File: RAMAN_data/12022024_r1/black fibre7.CSV
9.931763e+01,0.000000e+00
1.022103e+02,0.000000e+00
1.051030e+02,0.000000e+00
1.079957e+02,0.000000e+00
1.108884e+02,0.000000e+00
1.137811e+02,0.000000e+00
1.166738e+02,0.000000e+00
1.195665e+02,0.000000e+00
1.224592e+02,0.000000e+00
1.253519e+02,0.000000e+00
1.282446e+02,0.000000e+00
1.311373e+02,0.000000e+00
1.340300e+02,0.000000e+00
1.369227e+02,0.000000e+00
1.398154e+02,0.000000e+00
1.427081e+02,0.000000e+00
1.456008e+02,0.000000e+00
1.484935e+02,0.000000e+00
1.513862e+02,0.000000e+00
1.542789e+02,0.000000e+00
1.571716e+02,0.000000e+00
1.600643e+02,0.000000e+00
1.629570e+02,0.000000e+00
1.658497e+02,0.000000e+00
1.687424e+02,0.000000e+00
1.716351e+02,0.000000e+00
1.745278e+02,0.000000e+00
1.774205e+02,0.000000e+00
1.803132e+02,0.000000e+00
1.832059e+02,0.000000e+00
1.860986e+02,0.000000e+00
1.889913e+02,0.000000e+00
1.918840e+02,0.000000e+00
1.947767e+02,0.000000e+00
1.976694e+02,0.000000e+00
2.005621e+02,1.081251e+03
2.034548e+02,1.083032e+03
2.063475e+02,1.087084e+03
2.092402e+02,1.072124e+03
2.121329e+02,1.080219e+03
2.150256e+02,1.077706e+03
2.179183e+02,1.089907e+03
2.208110e+02,1.086905e+03
2.237037e+02,1.073188e+03
2.265964e+02,1.073158e+03
2.294892e+02,1.076732e+03
2.323819e+02,1.080518e+03
2.352746e+02,1.076092e+03
2.381673e+02,1.078712e+03
2.410600e+02,1.074042e+03
2.439527e+02,1.074906e+03
2.468454e+02,1.072692e+03
2.497381e+02,1.073977e+03
2.526308e+02,1.068028e+03
2.555235e+02,1.069024e+03
2.584161e+02,1.071561e+03
2.613088e+02,1.067521e+03
2.642015e+02,1.063573e+03
2.670942e+02,1.068656e+03
2.699869e+02,1.061995e+03
2.728796e+02,1.064444e+03
2.757723e+02,1.061803e+03
2.786650e+02,1.062440e+03
2.815577e+02,1.060636e+03
2.844504e+02,1.060776e+03
2.873431e+02,1.056876e+03
2.902358e+02,1.060470e+03
2.931285e+02,1.058882e+03
2.960212e+02,1.056807e+03
2.989139e+02,1.052058e+03
3.018066e+02,1.051658e+03
3.046993e+02,1.055305e+03
3.075920e+02,1.062164e+03
3.104847e+02,1.048290e+03
3.133774e+02,1.051690e+03
3.162701e+02,1.045092e+03
3.191628e+02,1.043770e+03
3.220555e+02,1.042778e+03
3.249482e+02,1.057087e+03
3.278409e+02,1.059921e+03
3.307336e+02,1.056542e+03
3.336263e+02,1.050427e+03
3.365190e+02,1.039333e+03
3.394117e+02,1.050105e+03
3.423044e+02,1.050380e+03
3.451971e+02,1.049162e+03
3.480898e+02,1.038128e+03
3.509825e+02,1.031673e+03
3.538752e+02,1.036625e+03
3.567680e+02,1.041500e+03
3.596607e+02,1.037156e+03
3.625534e+02,1.032134e+03
3.654461e+02,1.030386e+03
3.683388e+02,1.042417e+03
3.712315e+02,1.042938e+03
3.741242e+02,1.045433e+03
3.770169e+02,1.056219e+03
3.799096e+02,1.055570e+03
3.828023e+02,1.036131e+03
3.856950e+02,1.026527e+03
3.885877e+02,1.028803e+03
3.914804e+02,1.023800e+03
3.943731e+02,1.021652e+03
3.972658e+02,1.016267e+03
4.001585e+02,1.012982e+03
4.030512e+02,1.025542e+03
4.059439e+02,1.014454e+03
4.088366e+02,1.013865e+03
4.117293e+02,1.018670e+03
4.146220e+02,1.012551e+03
4.175147e+02,1.000073e+03
4.204074e+02,1.005457e+03
4.233001e+02,1.010817e+03
4.261928e+02,1.026452e+03
4.290855e+02,1.011551e+03
4.319782e+02,1.017096e+03
4.348709e+02,1.020079e+03
4.377636e+02,1.008640e+03
4.406563e+02,1.010947e+03
4.435490e+02,1.008760e+03
4.464417e+02,1.000502e+03
4.493344e+02,1.002132e+03
4.522271e+02,1.010827e+03
4.551198e+02,1.006081e+03
4.580125e+02,1.007572e+03
4.609052e+02,1.002245e+03
4.637979e+02,9.999659e+02
4.666906e+02,9.935955e+02
4.695833e+02,9.835748e+02
4.724760e+02,9.925367e+02
4.753687e+02,9.889375e+02
4.782614e+02,9.941061e+02
4.811541e+02,9.910998e+02
4.840468e+02,9.936122e+02
4.869395e+02,9.906967e+02
4.898322e+02,9.901645e+02
4.927249e+02,9.924231e+02
4.956176e+02,9.881288e+02
4.985103e+02,9.814088e+02
5.014030e+02,9.895131e+02
5.042957e+02,9.882488e+02
5.071884e+02,9.804348e+02
5.100811e+02,9.757559e+02
5.129738e+02,9.835292e+02
5.158665e+02,9.854210e+02
5.187592e+02,9.822556e+02
5.216519e+02,9.746465e+02
5.245446e+02,9.598288e+02
5.274373e+02,9.710980e+02
5.303300e+02,9.761923e+02
5.332227e+02,9.674562e+02
5.361154e+02,9.725732e+02
5.390081e+02,9.725165e+02
5.419008e+02,9.635780e+02
5.447935e+02,9.695697e+02
5.476862e+02,9.724471e+02
5.505789e+02,9.627900e+02
5.534716e+02,9.538758e+02
5.563643e+02,9.600065e+02
5.592570e+02,9.605315e+02
5.621497e+02,9.529932e+02
5.650424e+02,9.590574e+02
5.679351e+02,9.549691e+02
5.708278e+02,9.530707e+02
5.737205e+02,9.545227e+02
5.766132e+02,9.524628e+02
5.795059e+02,9.595443e+02
5.823986e+02,9.462286e+02
5.852913e+02,9.507542e+02
5.881840e+02,9.525223e+02
5.910767e+02,9.531133e+02
5.939694e+02,9.495679e+02
5.968621e+02,9.505900e+02
5.997548e+02,9.498163e+02
6.026475e+02,9.469193e+02
6.055402e+02,9.529143e+02
6.084329e+02,9.477166e+02
6.113256e+02,9.429637e+02
6.142183e+02,9.438086e+02
6.171110e+02,9.448382e+02
6.200037e+02,9.470892e+02
6.228964e+02,9.345892e+02
6.257891e+02,9.388322e+02
6.286818e+02,9.352877e+02
6.315745e+02,9.390916e+02
6.344672e+02,9.280299e+02
6.373599e+02,9.315328e+02
6.402526e+02,9.325131e+02
6.431453e+02,9.318365e+02
6.460380e+02,9.328733e+02
6.489307e+02,9.325240e+02
6.518234e+02,9.339851e+02
6.547161e+02,9.295789e+02
6.576088e+02,9.295213e+02
6.605015e+02,9.133702e+02
6.633942e+02,9.208723e+02
6.662869e+02,9.260640e+02
6.691796e+02,9.263820e+02
6.720723e+02,9.190081e+02
6.749650e+02,9.193269e+02
6.778577e+02,9.159534e+02
6.807504e+02,9.152993e+02
6.836431e+02,9.211423e+02
6.865358e+02,9.217346e+02
6.894285e+02,9.104766e+02
6.923212e+02,9.171196e+02
6.952139e+02,9.082454e+02
6.981066e+02,9.026817e+02
7.009993e+02,9.092356e+02
7.038920e+02,9.086695e+02
7.067847e+02,9.086511e+02
7.096774e+02,9.153724e+02
7.125701e+02,9.095031e+02
7.154628e+02,9.065363e+02
7.183555e+02,9.052716e+02
7.212482e+02,9.029261e+02
7.241409e+02,9.036912e+02
7.270336e+02,9.031242e+02
7.299263e+02,9.000240e+02
7.328190e+02,9.071661e+02
7.357117e+02,8.987164e+02
7.386044e+02,8.988472e+02
7.414971e+02,8.925979e+02
7.443898e+02,8.985738e+02
7.472825e+02,8.948826e+02
7.501752e+02,8.947523e+02
7.530679e+02,8.845944e+02
7.559606e+02,8.962754e+02
7.588533e+02,8.905713e+02
7.617460e+02,8.855930e+02
7.646387e+02,8.896968e+02
7.675314e+02,8.934549e+02
7.704241e+02,8.874910e+02
7.733168e+02,8.883287e+02
7.762095e+02,8.883360e+02
7.791022e+02,8.863805e+02
7.819949e+02,8.953295e+02
7.848876e+02,8.827929e+02
7.877803e+02,8.849492e+02
7.906730e+02,8.709355e+02
7.935657e+02,8.784534e+02
7.964584e+02,8.720507e+02
7.993511e+02,8.757881e+02
8.022438e+02,8.782143e+02
8.051365e+02,8.741147e+02
8.080292e+02,8.768683e+02
8.109219e+02,8.715186e+02
8.138146e+02,8.714240e+02
8.167073e+02,8.816946e+02
8.196000e+02,8.776151e+02
8.224927e+02,8.755147e+02
8.253854e+02,8.692053e+02
8.282781e+02,8.843688e+02
8.311708e+02,8.633257e+02
8.340635e+02,8.678640e+02
8.369562e+02,8.645793e+02
8.398489e+02,8.686243e+02
8.427416e+02,8.695062e+02
8.456343e+02,8.668859e+02
8.485270e+02,8.639491e+02
8.514197e+02,8.613089e+02
8.543124e+02,8.582786e+02
8.572051e+02,8.632031e+02
8.600978e+02,8.550068e+02
8.629905e+02,8.672360e+02
8.658832e+02,8.579884e+02
8.687759e+02,8.581942e+02
8.716686e+02,8.588422e+02
8.745613e+02,8.590369e+02
8.774540e+02,8.606231e+02
8.803467e+02,8.557487e+02
8.832394e+02,8.589755e+02
8.861321e+02,8.618953e+02
8.890248e+02,8.534984e+02
8.919175e+02,8.521732e+02
8.948102e+02,8.584025e+02
8.977029e+02,8.433406e+02
9.005956e+02,8.489433e+02
9.034883e+02,8.588425e+02
9.063810e+02,8.477039e+02
9.092737e+02,8.451772e+02
9.121664e+02,8.497430e+02
9.150591e+02,8.446440e+02
9.179518e+02,8.431385e+02
9.208445e+02,8.442157e+02
9.237372e+02,8.287643e+02
9.266299e+02,8.263917e+02
9.295226e+02,8.317798e+02
9.324153e+02,8.336835e+02
9.353080e+02,8.324756e+02
9.382007e+02,8.218991e+02
9.410934e+02,8.264150e+02
9.439861e+02,8.216713e+02
9.468788e+02,8.216075e+02
9.497715e+02,8.275680e+02
9.526642e+02,8.231096e+02
9.555569e+02,8.303997e+02
9.584496e+02,8.247787e+02
9.613423e+02,8.237469e+02
9.642350e+02,8.173444e+02
9.671277e+02,8.187487e+02
9.700204e+02,8.244902e+02
9.729131e+02,8.128231e+02
9.758058e+02,8.125244e+02
9.786985e+02,8.179539e+02
9.815912e+02,8.190131e+02
9.844839e+02,7.999677e+02
9.873766e+02,8.163718e+02
9.902693e+02,8.130090e+02
9.931620e+02,8.096237e+02
9.960547e+02,8.110214e+02
9.989474e+02,8.201716e+02
1.001840e+03,8.136935e+02
1.004733e+03,8.143434e+02
1.007626e+03,8.125143e+02
1.010518e+03,8.078065e+02
1.013411e+03,7.991878e+02
1.016304e+03,8.056915e+02
1.019196e+03,8.028254e+02
1.022089e+03,8.052192e+02
1.024982e+03,8.092029e+02
1.027875e+03,8.095565e+02
1.030767e+03,7.996061e+02
1.033660e+03,8.034137e+02
1.036552e+03,8.056590e+02
1.039445e+03,7.954071e+02
1.042338e+03,8.046763e+02
1.045231e+03,8.028347e+02
1.048123e+03,8.021777e+02
1.051016e+03,7.938879e+02
1.053909e+03,8.024893e+02
1.056802e+03,8.003155e+02
1.059694e+03,8.029972e+02
1.062587e+03,7.955880e+02
1.065479e+03,7.949125e+02
1.068372e+03,7.985024e+02
1.071265e+03,7.939592e+02
1.074158e+03,8.089376e+02
1.077050e+03,7.917823e+02
1.079943e+03,7.981053e+02
1.082836e+03,8.045016e+02
1.085729e+03,8.043330e+02
1.088621e+03,8.183560e+02
1.091514e+03,8.288185e+02
1.094406e+03,8.212717e+02
1.097299e+03,8.082384e+02
1.100192e+03,8.144675e+02
1.103085e+03,7.978112e+02
1.105977e+03,7.979562e+02
1.108870e+03,7.987346e+02
1.111763e+03,8.019312e+02
1.114656e+03,8.080715e+02
1.117548e+03,8.032723e+02
1.120441e+03,8.053564e+02
1.123334e+03,8.105232e+02
1.126226e+03,8.017272e+02
1.129119e+03,7.951018e+02
1.132012e+03,7.931904e+02
1.134904e+03,7.902684e+02
1.137797e+03,7.794105e+02
1.140690e+03,7.896707e+02
1.143583e+03,7.903183e+02
1.146475e+03,7.890304e+02
1.149368e+03,7.986449e+02
1.152261e+03,7.898259e+02
1.155153e+03,7.843323e+02
1.158046e+03,7.804638e+02
1.160939e+03,7.705447e+02
1.163831e+03,7.672689e+02
1.166724e+03,7.709704e+02
1.169617e+03,7.612589e+02
1.172510e+03,7.632940e+02
1.175402e+03,7.633503e+02
1.178295e+03,7.651815e+02
1.181188e+03,7.655217e+02
1.184080e+03,7.617045e+02
1.186973e+03,7.620253e+02
1.189866e+03,7.653375e+02
1.192758e+03,7.635969e+02
1.195651e+03,7.564774e+02
1.198544e+03,7.590848e+02
1.201437e+03,7.518619e+02
1.204329e+03,7.483469e+02
1.207222e+03,7.496036e+02
1.210115e+03,7.542011e+02
1.213007e+03,7.415635e+02
1.215900e+03,7.541853e+02
1.218793e+03,7.496771e+02
1.221685e+03,7.556257e+02
1.224578e+03,7.497647e+02
1.227471e+03,7.476731e+02
1.230364e+03,7.499716e+02
1.233256e+03,7.425102e+02
1.236149e+03,7.395833e+02
1.239042e+03,7.426191e+02
1.241934e+03,7.448343e+02
1.244827e+03,7.439680e+02
1.247720e+03,7.413965e+02
1.250612e+03,7.405058e+02
1.253505e+03,7.469403e+02
1.256398e+03,7.414108e+02
1.259291e+03,7.457138e+02
1.262183e+03,7.400972e+02
1.265076e+03,7.376862e+02
1.267969e+03,7.452167e+02
1.270861e+03,7.450496e+02
1.273754e+03,7.445427e+02
1.276647e+03,7.498165e+02
1.279539e+03,7.503525e+02
1.282432e+03,7.424060e+02
1.285325e+03,7.472494e+02
1.288218e+03,7.443226e+02
1.291110e+03,7.441680e+02
1.294003e+03,7.452471e+02
1.296896e+03,7.386104e+02
1.299788e+03,7.349149e+02
1.302681e+03,7.365428e+02
1.305574e+03,7.329672e+02
1.308466e+03,7.315053e+02
1.311359e+03,7.288779e+02
1.314252e+03,7.326829e+02
1.317145e+03,7.371350e+02
1.320037e+03,7.431901e+02
1.322930e+03,7.357547e+02
1.325823e+03,7.309080e+02
1.328715e+03,7.342719e+02
1.331608e+03,7.374527e+02
1.334501e+03,7.448232e+02
1.337393e+03,7.440266e+02
1.340286e+03,7.405753e+02
1.343179e+03,7.349682e+02
1.346072e+03,7.378604e+02
1.348964e+03,7.343221e+02
1.351857e+03,7.333243e+02
1.354750e+03,7.296998e+02
1.357642e+03,7.284031e+02
1.360535e+03,7.290399e+02
1.363428e+03,7.262237e+02
1.366320e+03,7.307601e+02
1.369213e+03,7.278679e+02
1.372106e+03,7.282286e+02
1.374999e+03,7.337695e+02
1.377891e+03,7.257196e+02
1.380784e+03,7.290983e+02
1.383677e+03,7.198286e+02
1.386569e+03,7.266629e+02
1.389462e+03,7.202523e+02
1.392355e+03,7.122239e+02
1.395247e+03,7.029183e+02
1.398140e+03,7.127462e+02
1.401033e+03,7.121412e+02
1.403926e+03,7.192631e+02
1.406818e+03,7.140118e+02
1.409711e+03,7.157665e+02
1.412604e+03,7.166293e+02
1.415496e+03,7.080192e+02
1.418389e+03,7.089635e+02
1.421282e+03,7.021569e+02
1.424174e+03,6.978284e+02
1.427067e+03,6.961477e+02
1.429960e+03,6.962482e+02
1.432853e+03,6.928317e+02
1.435745e+03,6.830018e+02
1.438638e+03,6.932135e+02
1.441531e+03,6.888503e+02
1.444423e+03,6.917444e+02
1.447316e+03,6.891780e+02
1.450209e+03,6.828357e+02
1.453101e+03,6.907096e+02
1.455994e+03,6.835795e+02
1.458887e+03,6.843454e+02
1.461780e+03,6.894801e+02
1.464672e+03,6.855369e+02
1.467565e+03,6.857175e+02
1.470458e+03,6.823707e+02
1.473350e+03,6.848071e+02
1.476243e+03,6.959651e+02
1.479136e+03,6.810934e+02
1.482028e+03,6.795547e+02
1.484921e+03,6.803105e+02
1.487814e+03,6.811698e+02
1.490707e+03,6.775826e+02
1.493599e+03,6.718513e+02
1.496492e+03,6.823087e+02
1.499385e+03,6.696038e+02
1.502277e+03,6.735990e+02
1.505170e+03,6.724362e+02
1.508063e+03,6.687112e+02
1.510955e+03,6.652348e+02
1.513848e+03,6.611614e+02
1.516741e+03,6.605213e+02
1.519634e+03,6.573375e+02
1.522526e+03,6.646652e+02
1.525419e+03,6.644820e+02
1.528312e+03,6.672745e+02
1.531204e+03,6.652650e+02
1.534097e+03,6.650035e+02
1.536990e+03,6.645101e+02
1.539882e+03,6.640663e+02
1.542775e+03,6.561114e+02
1.545668e+03,6.643332e+02
1.548561e+03,6.576480e+02
1.551453e+03,6.573671e+02
1.554346e+03,6.603546e+02
1.557239e+03,6.626840e+02
1.560131e+03,6.572952e+02
1.563024e+03,6.620958e+02
1.565917e+03,6.528859e+02
1.568809e+03,6.629002e+02
1.571702e+03,6.631763e+02
1.574595e+03,6.577274e+02
1.577488e+03,6.592756e+02
1.580380e+03,6.533943e+02
1.583273e+03,6.578697e+02
1.586166e+03,6.623189e+02
1.589058e+03,6.570268e+02
1.591951e+03,6.562444e+02
1.594844e+03,6.557560e+02
1.597736e+03,6.524467e+02
1.600629e+03,6.464890e+02
1.603522e+03,6.503074e+02
1.606415e+03,6.471544e+02
1.609307e+03,6.332997e+02
1.612200e+03,6.509548e+02
1.615093e+03,6.462763e+02
1.617985e+03,6.426977e+02
1.620878e+03,6.344053e+02
1.623771e+03,6.387167e+02
1.626663e+03,6.306725e+02
1.629556e+03,6.392570e+02
1.632449e+03,6.296379e+02
1.635342e+03,6.391155e+02
1.638234e+03,6.289250e+02
1.641127e+03,6.339388e+02
1.644020e+03,6.283536e+02
1.646912e+03,6.245925e+02
1.649805e+03,6.193055e+02
1.652698e+03,6.288218e+02
1.655590e+03,6.259236e+02
1.658483e+03,6.206116e+02
1.661376e+03,6.186434e+02
1.664269e+03,6.192856e+02
1.667161e+03,6.199788e+02
1.670054e+03,6.174017e+02
1.672947e+03,6.159958e+02
1.675839e+03,6.102806e+02
1.678732e+03,6.178101e+02
1.681625e+03,6.162937e+02
1.684517e+03,6.151709e+02
1.687410e+03,6.154578e+02
1.690303e+03,6.177802e+02
1.693196e+03,6.088546e+02
1.696088e+03,6.085354e+02
1.698981e+03,6.034788e+02
1.701874e+03,6.088928e+02
1.704766e+03,6.147621e+02
1.707659e+03,6.065345e+02
1.710552e+03,6.078514e+02
1.713444e+03,6.007871e+02
1.716337e+03,6.065168e+02
1.719230e+03,6.106940e+02
1.722123e+03,5.908355e+02
1.725015e+03,6.032555e+02
1.727908e+03,5.918866e+02
1.730801e+03,5.981459e+02
1.733693e+03,5.959562e+02
1.736586e+03,6.004998e+02
1.739479e+03,5.915587e+02
1.742371e+03,6.015371e+02
1.745264e+03,5.903792e+02
1.748157e+03,5.965715e+02
1.751050e+03,5.987873e+02
1.753942e+03,5.971934e+02
1.756835e+03,5.971758e+02
1.759728e+03,5.778094e+02
1.762620e+03,5.829709e+02
1.765513e+03,5.899855e+02
1.768406e+03,5.858214e+02
1.771298e+03,5.792990e+02
1.774191e+03,5.796265e+02
1.777084e+03,5.893353e+02
1.779977e+03,5.793226e+02
1.782869e+03,5.726446e+02
1.785762e+03,5.742473e+02
1.788655e+03,5.828458e+02
1.791547e+03,5.843477e+02
1.794440e+03,5.695814e+02
1.797333e+03,5.730974e+02
1.800225e+03,5.802092e+02
1.803118e+03,5.701180e+02
1.806011e+03,5.684754e+02
1.808904e+03,5.685710e+02
1.811796e+03,5.676232e+02
1.814689e+03,5.698513e+02
1.817582e+03,5.607499e+02
1.820474e+03,5.664241e+02
1.823367e+03,5.606717e+02
1.826260e+03,5.693378e+02
1.829152e+03,5.645189e+02
1.832045e+03,5.690247e+02
1.834938e+03,5.644461e+02
1.837831e+03,5.590309e+02
1.840723e+03,5.584752e+02
1.843616e+03,5.689609e+02
1.846509e+03,5.684310e+02
1.849401e+03,5.598376e+02
1.852294e+03,5.476188e+02
1.855187e+03,5.530316e+02
1.858079e+03,5.551951e+02
1.860972e+03,5.574179e+02
1.863865e+03,5.550080e+02
1.866758e+03,5.463900e+02
1.869650e+03,5.417127e+02
1.872543e+03,5.510622e+02
1.875436e+03,5.585730e+02
1.878328e+03,5.437881e+02
1.881221e+03,5.369418e+02
1.884114e+03,5.381874e+02
1.887006e+03,5.387090e+02
1.889899e+03,5.415912e+02
1.892792e+03,5.334207e+02
1.895685e+03,5.403202e+02
1.898577e+03,5.394164e+02
1.901470e+03,5.420597e+02
1.904363e+03,5.271222e+02
1.907255e+03,5.383706e+02
1.910148e+03,5.380757e+02
1.913041e+03,5.356101e+02
1.915933e+03,5.324858e+02
1.918826e+03,5.271871e+02
1.921719e+03,5.243917e+02
1.924612e+03,5.286492e+02
1.927504e+03,5.252955e+02
1.930397e+03,5.311411e+02
1.933290e+03,5.249321e+02
1.936182e+03,5.238099e+02
1.939075e+03,5.219594e+02
1.941968e+03,5.295425e+02
1.944860e+03,5.149791e+02
1.947753e+03,5.171015e+02
1.950646e+03,5.227551e+02
1.953539e+03,5.176367e+02
1.956431e+03,5.107104e+02
1.959324e+03,5.161558e+02
1.962217e+03,5.190541e+02
1.965109e+03,5.168110e+02
1.968002e+03,5.116532e+02
1.970895e+03,5.109161e+02
1.973787e+03,5.044106e+02
1.976680e+03,5.021927e+02
1.979573e+03,5.132573e+02
1.982466e+03,5.115147e+02
1.985358e+03,5.068185e+02
1.988251e+03,4.978853e+02
1.991144e+03,5.013354e+02
1.994036e+03,5.014754e+02
1.996929e+03,4.981820e+02
1.999822e+03,5.009908e+02
2.002714e+03,5.038602e+02
2.005607e+03,4.973715e+02
2.008500e+03,4.928102e+02
2.011393e+03,4.863820e+02
2.014285e+03,4.921706e+02
2.017178e+03,4.936641e+02
2.020071e+03,4.921024e+02
2.022963e+03,4.912736e+02
2.025856e+03,4.871244e+02
2.028749e+03,4.884086e+02
2.031641e+03,4.825055e+02
2.034534e+03,4.820919e+02
2.037427e+03,4.827680e+02
2.040320e+03,4.795485e+02
2.043212e+03,4.847858e+02
2.046105e+03,4.916722e+02
2.048998e+03,4.842740e+02
2.051890e+03,4.761905e+02
2.054783e+03,4.730799e+02
2.057676e+03,4.700193e+02
2.060568e+03,4.707943e+02
2.063461e+03,4.750479e+02
2.066354e+03,4.723650e+02
2.069247e+03,4.717781e+02
2.072139e+03,4.692874e+02
2.075032e+03,4.698836e+02
2.077925e+03,4.660265e+02
2.080817e+03,4.713860e+02
2.083710e+03,4.598451e+02
2.086603e+03,4.643727e+02
2.089496e+03,4.627299e+02
2.092388e+03,4.693023e+02
2.095281e+03,4.679891e+02
2.098174e+03,4.629957e+02
2.101066e+03,4.626204e+02
2.103959e+03,4.550162e+02
2.106852e+03,4.585711e+02
2.109744e+03,4.587758e+02
2.112637e+03,4.611685e+02
2.115530e+03,4.489709e+02
2.118422e+03,4.430923e+02
2.121315e+03,4.499637e+02
2.124208e+03,4.485256e+02
2.127101e+03,4.454750e+02
2.129993e+03,4.492947e+02
2.132886e+03,4.419949e+02
2.135779e+03,4.500209e+02
2.138671e+03,4.490576e+02
2.141564e+03,4.502219e+02
2.144457e+03,4.469679e+02
2.147350e+03,4.283823e+02
2.150242e+03,4.447212e+02
2.153135e+03,4.416261e+02
2.156028e+03,4.447939e+02
2.158920e+03,4.431713e+02
2.161813e+03,4.374489e+02
2.164706e+03,4.410771e+02
2.167598e+03,4.369371e+02
2.170491e+03,4.439093e+02
2.173384e+03,4.342716e+02
2.176277e+03,4.353652e+02
2.179169e+03,4.294068e+02
2.182062e+03,4.338520e+02
2.184955e+03,4.349776e+02
2.187847e+03,4.248955e+02
2.190740e+03,4.315107e+02
2.193633e+03,4.266269e+02
2.196525e+03,4.274542e+02
2.199418e+03,4.309398e+02
2.202311e+03,4.257950e+02
2.205204e+03,4.254901e+02
2.208096e+03,4.295629e+02
2.210989e+03,4.198827e+02
2.213882e+03,4.166184e+02
2.216774e+03,4.197436e+02
2.219667e+03,4.226763e+02
2.222560e+03,4.080057e+02
2.225452e+03,4.117130e+02
2.228345e+03,4.206425e+02
2.231238e+03,4.156999e+02
2.234131e+03,3.960293e+02
2.237023e+03,4.179316e+02
2.239916e+03,4.125541e+02
2.242809e+03,4.078521e+02
2.245701e+03,4.153819e+02
2.248594e+03,4.100519e+02
2.251487e+03,4.020635e+02
2.254379e+03,3.976302e+02
2.257272e+03,4.029245e+02
2.260165e+03,4.010860e+02
2.263058e+03,4.021047e+02
2.265950e+03,4.097047e+02
2.268843e+03,3.978268e+02
2.271736e+03,3.997481e+02
2.274628e+03,4.043070e+02
2.277521e+03,3.964745e+02
2.280414e+03,3.935582e+02
2.283306e+03,3.944598e+02
2.286199e+03,4.026703e+02
2.289092e+03,3.900254e+02
2.291985e+03,3.943601e+02
2.294877e+03,3.836243e+02
2.297770e+03,3.951294e+02
2.300663e+03,3.824011e+02
2.303555e+03,3.867535e+02
2.306448e+03,3.883125e+02
2.309341e+03,3.908196e+02
2.312233e+03,3.868556e+02
2.315126e+03,3.858493e+02
2.318019e+03,3.864254e+02
2.320912e+03,3.852515e+02
2.323804e+03,3.890268e+02
2.326697e+03,3.862680e+02
2.329590e+03,3.875310e+02
2.332482e+03,3.888807e+02
2.335375e+03,3.768361e+02
2.338268e+03,3.768253e+02
2.341160e+03,3.833232e+02
2.344053e+03,3.771711e+02
2.346946e+03,3.739345e+02
2.349839e+03,3.780191e+02
2.352731e+03,3.773727e+02
2.355624e+03,3.685626e+02
2.358517e+03,3.786751e+02
2.361409e+03,3.822946e+02
2.364302e+03,3.729110e+02
2.367195e+03,3.649088e+02
2.370087e+03,3.742914e+02
2.372980e+03,3.700964e+02
2.375873e+03,3.622260e+02
2.378766e+03,3.739013e+02
2.381658e+03,3.611832e+02
2.384551e+03,3.595968e+02
2.387444e+03,3.703123e+02
2.390336e+03,3.657119e+02
2.393229e+03,3.649273e+02
2.396122e+03,3.603584e+02
2.399014e+03,3.571635e+02
2.401907e+03,3.629770e+02
2.404800e+03,3.568874e+02
2.407693e+03,3.612774e+02
2.410585e+03,3.516607e+02
2.413478e+03,3.605758e+02
2.416371e+03,3.523957e+02
2.419263e+03,3.643729e+02
2.422156e+03,3.615420e+02
2.425049e+03,3.469439e+02
2.427941e+03,3.583301e+02
2.430834e+03,3.457650e+02
2.433727e+03,3.507690e+02
2.436620e+03,3.608456e+02
2.439512e+03,3.493474e+02
2.442405e+03,3.576099e+02
2.445298e+03,3.485430e+02
2.448190e+03,3.483618e+02
2.451083e+03,3.508491e+02
2.453976e+03,3.490378e+02
2.456868e+03,3.427169e+02
2.459761e+03,3.432531e+02
2.462654e+03,3.454682e+02
2.465547e+03,3.481842e+02
2.468439e+03,3.404669e+02
2.471332e+03,3.391004e+02
2.474225e+03,3.332299e+02
2.477117e+03,3.452248e+02
2.480010e+03,3.475692e+02
2.482903e+03,3.444879e+02
2.485795e+03,3.480405e+02
2.488688e+03,3.313678e+02
2.491581e+03,3.377341e+02
2.494474e+03,3.410403e+02
2.497366e+03,3.407311e+02
2.500259e+03,3.358380e+02
2.503152e+03,3.370772e+02
2.506044e+03,3.332408e+02
2.508937e+03,3.450621e+02
2.511830e+03,3.370985e+02
2.514722e+03,3.342260e+02
2.517615e+03,3.370865e+02
2.520508e+03,3.355036e+02
2.523401e+03,3.370292e+02
2.526293e+03,3.299001e+02
2.529186e+03,3.317048e+02
2.532079e+03,3.407021e+02
2.534971e+03,3.312921e+02
2.537864e+03,3.254019e+02
2.540757e+03,3.271261e+02
2.543649e+03,3.298763e+02
2.546542e+03,3.366668e+02
2.549435e+03,3.295842e+02
2.552328e+03,3.388754e+02
2.555220e+03,3.383312e+02
2.558113e+03,3.412896e+02
2.561006e+03,3.342606e+02
2.563898e+03,3.230370e+02
2.566791e+03,3.357596e+02
2.569684e+03,3.241462e+02
2.572576e+03,3.285596e+02
2.575469e+03,3.329109e+02
2.578362e+03,3.305095e+02
2.581255e+03,3.237768e+02
2.584147e+03,3.264789e+02
2.587040e+03,3.260673e+02
2.589933e+03,3.138250e+02
2.592825e+03,3.125661e+02
2.595718e+03,3.217997e+02
2.598611e+03,3.127361e+02
2.601503e+03,3.255689e+02
2.604396e+03,3.122101e+02
2.607289e+03,3.129310e+02
2.610182e+03,3.163709e+02
2.613074e+03,3.080122e+02
2.615967e+03,3.188006e+02
2.618860e+03,3.105235e+02
2.621752e+03,3.086406e+02
2.624645e+03,3.080070e+02
2.627538e+03,3.154203e+02
2.630430e+03,3.077623e+02
2.633323e+03,3.055693e+02
2.636216e+03,3.070018e+02
2.639109e+03,3.102061e+02
2.642001e+03,2.992483e+02
2.644894e+03,3.095607e+02
2.647787e+03,3.107936e+02
2.650679e+03,3.047272e+02
2.653572e+03,3.175219e+02
2.656465e+03,3.002423e+02
2.659357e+03,3.097677e+02
2.662250e+03,3.112147e+02
2.665143e+03,3.101541e+02
2.668036e+03,3.094869e+02
2.670928e+03,3.075567e+02
2.673821e+03,3.073253e+02
2.676714e+03,2.843246e+02
2.679606e+03,2.979682e+02
2.682499e+03,3.108770e+02
2.685392e+03,2.932171e+02
2.688284e+03,3.043045e+02
2.691177e+03,3.018708e+02
2.694070e+03,2.913384e+02
2.696963e+03,3.002188e+02
2.699855e+03,3.009599e+02
2.702748e+03,2.999850e+02
2.705641e+03,2.981789e+02
2.708533e+03,2.994061e+02
2.711426e+03,3.008223e+02
2.714319e+03,3.048995e+02
2.717211e+03,3.070612e+02
2.720104e+03,3.010945e+02
2.722997e+03,3.002013e+02
2.725890e+03,2.884303e+02
2.728782e+03,2.973323e+02
2.731675e+03,2.890558e+02
2.734568e+03,2.960458e+02
2.737460e+03,2.877436e+02
2.740353e+03,2.949022e+02
2.743246e+03,2.787840e+02
2.746138e+03,2.991152e+02
2.749031e+03,2.801133e+02
2.751924e+03,2.904108e+02
2.754817e+03,2.903879e+02
2.757709e+03,2.995377e+02
2.760602e+03,2.934542e+02
2.763495e+03,2.865491e+02
2.766387e+03,2.947155e+02
2.769280e+03,2.936965e+02
2.772173e+03,2.867917e+02
2.775065e+03,2.932307e+02
2.777958e+03,2.926176e+02
2.780851e+03,2.824828e+02
2.783744e+03,2.765404e+02
2.786636e+03,2.802857e+02
2.789529e+03,2.937443e+02
2.792422e+03,2.854067e+02
2.795314e+03,2.841845e+02
2.798207e+03,2.851034e+02
2.801100e+03,2.919658e+02
2.803992e+03,2.773077e+02
2.806885e+03,2.840932e+02
2.809778e+03,2.819918e+02
2.812671e+03,2.931385e+02
2.815563e+03,2.786962e+02
2.818456e+03,2.870815e+02
2.821349e+03,2.830534e+02
2.824241e+03,2.840157e+02
2.827134e+03,2.869566e+02
2.830027e+03,2.927057e+02
2.832919e+03,2.774023e+02
2.835812e+03,2.742306e+02
2.838705e+03,2.795116e+02
2.841598e+03,2.777213e+02
2.844490e+03,2.871239e+02
2.847383e+03,2.848775e+02
2.850276e+03,2.886070e+02
2.853168e+03,2.770905e+02
2.856061e+03,2.996271e+02
2.858954e+03,2.803124e+02
2.861846e+03,2.927101e+02
2.864739e+03,3.044417e+02
2.867632e+03,2.981530e+02
2.870525e+03,2.965490e+02
2.873417e+03,3.077839e+02
2.876310e+03,3.101720e+02
2.879203e+03,3.098819e+02
2.882095e+03,2.962241e+02
2.884988e+03,3.114096e+02
2.887881e+03,4.650813e+02
2.890773e+03,3.076996e+02
2.893666e+03,3.076725e+02
2.896559e+03,3.087480e+02
2.899452e+03,3.234512e+02
2.902344e+03,3.032887e+02
2.905237e+03,3.169877e+02
2.908130e+03,3.075497e+02
2.911022e+03,3.140501e+02
2.913915e+03,2.828716e+02
2.916808e+03,3.039422e+02
2.919700e+03,2.846992e+02
2.922593e+03,2.875969e+02
2.925486e+03,2.983456e+02
2.928379e+03,2.789084e+02
2.931271e+03,2.754713e+02
2.934164e+03,2.957384e+02
2.937057e+03,2.727128e+02
2.939949e+03,2.809105e+02
2.942842e+03,2.653530e+02
2.945735e+03,2.863026e+02
2.948627e+03,2.840975e+02
2.951520e+03,2.745895e+02
2.954413e+03,2.764479e+02
2.957306e+03,3.206694e+02
2.960198e+03,2.884247e+02
2.963091e+03,2.709369e+02
2.965984e+03,2.744522e+02
2.968876e+03,2.885149e+02
2.971769e+03,2.728220e+02
2.974662e+03,2.726604e+02
2.977554e+03,2.652625e+02
2.980447e+03,2.532557e+02
2.983340e+03,2.603445e+02
2.986233e+03,2.590912e+02
2.989125e+03,2.658294e+02
2.992018e+03,2.723234e+02
2.994911e+03,2.411037e+02
2.997803e+03,2.615879e+02
3.000696e+03,2.631344e+02
3.003589e+03,2.465598e+02
3.006481e+03,2.628839e+02
3.009374e+03,2.620421e+02
3.012267e+03,2.586771e+02
3.015160e+03,2.412643e+02
3.018052e+03,2.508728e+02
3.020945e+03,2.599843e+02
3.023838e+03,2.436946e+02
3.026730e+03,2.598067e+02
3.029623e+03,2.466859e+02
3.032516e+03,2.488393e+02
3.035408e+03,2.341326e+02
3.038301e+03,2.599770e+02
3.041194e+03,2.326466e+02
3.044087e+03,2.390120e+02
3.046979e+03,2.726064e+02
3.049872e+03,2.494605e+02
3.052765e+03,2.314106e+02
3.055657e+03,2.554796e+02
3.058550e+03,2.573490e+02
3.061443e+03,2.563846e+02
3.064335e+03,2.332870e+02
3.067228e+03,2.455606e+02
3.070121e+03,2.550214e+02
3.073014e+03,2.489856e+02
3.075906e+03,2.470252e+02
3.078799e+03,2.442084e+02
3.081692e+03,2.633557e+02
3.084584e+03,2.621700e+02
3.087477e+03,2.577791e+02
3.090370e+03,2.379959e+02
3.093262e+03,2.267327e+02
3.096155e+03,2.423606e+02
3.099048e+03,2.430885e+02
3.101941e+03,2.611199e+02
3.104833e+03,2.453427e+02
3.107726e+03,2.479487e+02
3.110619e+03,2.449119e+02
3.113511e+03,2.453222e+02
3.116404e+03,2.261431e+02
3.119297e+03,2.490758e+02
3.122189e+03,2.786943e+02
3.125082e+03,2.587732e+02
3.127975e+03,2.574486e+02
3.130868e+03,2.639408e+02
3.133760e+03,2.537334e+02
3.136653e+03,2.321494e+02
3.139546e+03,2.460940e+02
3.142438e+03,2.497404e+02
3.145331e+03,2.497310e+02
3.148224e+03,2.547348e+02
3.151116e+03,2.346862e+02
3.154009e+03,2.859748e+02
3.156902e+03,2.434565e+02
3.159795e+03,2.056640e+02
3.162687e+03,2.545561e+02
3.165580e+03,2.626930e+02
3.168473e+03,2.685257e+02
3.171365e+03,2.468452e+02
3.174258e+03,2.377759e+02
3.177151e+03,2.439261e+02
3.180043e+03,2.528656e+02
3.182936e+03,2.824732e+02
3.185829e+03,2.504437e+02
3.188722e+03,2.210688e+02
3.191614e+03,2.826699e+02
3.194507e+03,2.685877e+02
3.197400e+03,2.447132e+02
3.200292e+03,2.825100e+02
3.203185e+03,0.000000e+00
3.206078e+03,0.000000e+00
3.208970e+03,0.000000e+00
3.211863e+03,0.000000e+00
3.214756e+03,0.000000e+00
3.217649e+03,0.000000e+00
3.220541e+03,0.000000e+00
3.223434e+03,0.000000e+00
3.226327e+03,0.000000e+00
3.229219e+03,0.000000e+00
3.232112e+03,0.000000e+00
3.235005e+03,0.000000e+00
3.237897e+03,0.000000e+00
3.240790e+03,0.000000e+00
3.243683e+03,0.000000e+00
3.246576e+03,0.000000e+00
3.249468e+03,0.000000e+00
3.252361e+03,0.000000e+00
3.255254e+03,0.000000e+00
3.258146e+03,0.000000e+00
3.261039e+03,0.000000e+00
3.263932e+03,0.000000e+00
3.266824e+03,0.000000e+00
3.269717e+03,0.000000e+00
3.272610e+03,0.000000e+00
3.275503e+03,0.000000e+00
3.278395e+03,0.000000e+00
3.281288e+03,0.000000e+00
3.284181e+03,0.000000e+00
3.287073e+03,0.000000e+00
3.289966e+03,0.000000e+00
3.292859e+03,0.000000e+00
3.295751e+03,0.000000e+00
3.298644e+03,0.000000e+00
3.301537e+03,0.000000e+00
3.304430e+03,0.000000e+00
3.307322e+03,0.000000e+00
3.310215e+03,0.000000e+00
3.313108e+03,0.000000e+00
3.316000e+03,0.000000e+00
3.318893e+03,0.000000e+00
3.321786e+03,0.000000e+00
3.324678e+03,0.000000e+00
3.327571e+03,0.000000e+00
3.330464e+03,0.000000e+00
3.333357e+03,0.000000e+00
3.336249e+03,0.000000e+00
3.339142e+03,0.000000e+00
3.342035e+03,0.000000e+00
3.344927e+03,0.000000e+00
3.347820e+03,0.000000e+00
3.350713e+03,0.000000e+00
3.353605e+03,0.000000e+00
3.356498e+03,0.000000e+00
3.359391e+03,0.000000e+00
3.362284e+03,0.000000e+00
3.365176e+03,0.000000e+00
3.368069e+03,0.000000e+00
3.370962e+03,0.000000e+00
3.373854e+03,0.000000e+00
3.376747e+03,0.000000e+00
3.379640e+03,0.000000e+00
3.382532e+03,0.000000e+00
3.385425e+03,0.000000e+00
3.388318e+03,0.000000e+00
3.391211e+03,0.000000e+00
3.394103e+03,0.000000e+00
3.396996e+03,0.000000e+00
3.399889e+03,0.000000e+00
3.402781e+03,0.000000e+00
3.405674e+03,0.000000e+00
3.408567e+03,0.000000e+00
3.411459e+03,0.000000e+00
3.414352e+03,0.000000e+00
3.417245e+03,0.000000e+00
3.420138e+03,0.000000e+00
3.423030e+03,0.000000e+00
3.425923e+03,0.000000e+00
3.428816e+03,0.000000e+00
3.431708e+03,0.000000e+00
3.434601e+03,0.000000e+00
3.437494e+03,0.000000e+00
3.440386e+03,0.000000e+00
3.443279e+03,0.000000e+00
3.446172e+03,0.000000e+00
3.449065e+03,0.000000e+00
3.451957e+03,0.000000e+00
3.454850e+03,0.000000e+00
3.457743e+03,0.000000e+00
3.460635e+03,0.000000e+00
3.463528e+03,0.000000e+00
3.466421e+03,0.000000e+00
3.469313e+03,0.000000e+00
3.472206e+03,0.000000e+00
3.475099e+03,0.000000e+00
3.477992e+03,0.000000e+00
3.480884e+03,0.000000e+00
3.483777e+03,0.000000e+00
3.486670e+03,0.000000e+00
3.489563e+03,0.000000e+00
3.492455e+03,0.000000e+00
3.495348e+03,0.000000e+00
3.498240e+03,0.000000e+00
3.500169e+03,0.000000e+00