File: RAMAN_data/12022024_r1/black fibre4.CSV
9.931763e+01,0.000000e+00
1.022103e+02,0.000000e+00
1.051030e+02,0.000000e+00
1.079957e+02,0.000000e+00
1.108884e+02,0.000000e+00
1.137811e+02,0.000000e+00
1.166738e+02,0.000000e+00
1.195665e+02,0.000000e+00
1.224592e+02,0.000000e+00
1.253519e+02,0.000000e+00
1.282446e+02,0.000000e+00
1.311373e+02,0.000000e+00
1.340300e+02,0.000000e+00
1.369227e+02,0.000000e+00
1.398154e+02,0.000000e+00
1.427081e+02,0.000000e+00
1.456008e+02,0.000000e+00
1.484935e+02,0.000000e+00
1.513862e+02,0.000000e+00
1.542789e+02,0.000000e+00
1.571716e+02,0.000000e+00
1.600643e+02,0.000000e+00
1.629570e+02,0.000000e+00
1.658497e+02,0.000000e+00
1.687424e+02,0.000000e+00
1.716351e+02,0.000000e+00
1.745278e+02,0.000000e+00
1.774205e+02,0.000000e+00
1.803132e+02,0.000000e+00
1.832059e+02,0.000000e+00
1.860986e+02,0.000000e+00
1.889913e+02,0.000000e+00
1.918840e+02,0.000000e+00
1.947767e+02,0.000000e+00
1.976694e+02,0.000000e+00
2.005621e+02,1.069670e+03
2.034548e+02,1.074320e+03
2.063475e+02,1.068850e+03
2.092402e+02,1.068827e+03
2.121329e+02,1.059241e+03
2.150256e+02,1.070991e+03
2.179183e+02,1.067642e+03
2.208110e+02,1.060182e+03
2.237037e+02,1.067186e+03
2.265964e+02,1.061675e+03
2.294892e+02,1.056832e+03
2.323819e+02,1.061301e+03
2.352746e+02,1.057150e+03
2.381673e+02,1.060413e+03
2.410600e+02,1.054928e+03
2.439527e+02,1.055292e+03
2.468454e+02,1.060935e+03
2.497381e+02,1.049237e+03
2.526308e+02,1.059121e+03
2.555235e+02,1.049502e+03
2.584161e+02,1.047082e+03
2.613088e+02,1.041738e+03
2.642015e+02,1.044184e+03
2.670942e+02,1.047764e+03
2.699869e+02,1.053906e+03
2.728796e+02,1.041285e+03
2.757723e+02,1.047933e+03
2.786650e+02,1.044294e+03
2.815577e+02,1.041471e+03
2.844504e+02,1.041575e+03
2.873431e+02,1.043393e+03
2.902358e+02,1.042543e+03
2.931285e+02,1.040341e+03
2.960212e+02,1.038435e+03
2.989139e+02,1.035577e+03
3.018066e+02,1.036192e+03
3.046993e+02,1.036420e+03
3.075920e+02,1.038541e+03
3.104847e+02,1.027548e+03
3.133774e+02,1.032874e+03
3.162701e+02,1.034961e+03
3.191628e+02,1.031099e+03
3.220555e+02,1.025907e+03
3.249482e+02,1.033518e+03
3.278409e+02,1.032654e+03
3.307336e+02,1.030224e+03
3.336263e+02,1.028799e+03
3.365190e+02,1.021864e+03
3.394117e+02,1.027060e+03
3.423044e+02,1.029109e+03
3.451971e+02,1.022110e+03
3.480898e+02,1.017376e+03
3.509825e+02,1.015068e+03
3.538752e+02,1.010323e+03
3.567680e+02,1.014672e+03
3.596607e+02,1.018393e+03
3.625534e+02,1.016809e+03
3.654461e+02,1.014246e+03
3.683388e+02,1.019188e+03
3.712315e+02,1.028140e+03
3.741242e+02,1.022075e+03
3.770169e+02,1.045221e+03
3.799096e+02,1.028402e+03
3.828023e+02,1.013130e+03
3.856950e+02,1.003806e+03
3.885877e+02,9.991077e+02
3.914804e+02,9.905569e+02
3.943731e+02,9.904633e+02
3.972658e+02,9.820868e+02
4.001585e+02,9.786718e+02
4.030512e+02,9.847690e+02
4.059439e+02,9.857068e+02
4.088366e+02,9.819927e+02
4.117293e+02,9.852918e+02
4.146220e+02,9.769934e+02
4.175147e+02,9.839711e+02
4.204074e+02,9.800368e+02
4.233001e+02,9.826071e+02
4.261928e+02,9.835076e+02
4.290855e+02,9.788350e+02
4.319782e+02,9.802924e+02
4.348709e+02,9.862889e+02
4.377636e+02,9.788438e+02
4.406563e+02,9.671612e+02
4.435490e+02,9.662169e+02
4.464417e+02,9.655795e+02
4.493344e+02,9.644631e+02
4.522271e+02,9.687248e+02
4.551198e+02,9.667879e+02
4.580125e+02,9.692339e+02
4.609052e+02,9.558187e+02
4.637979e+02,9.482578e+02
4.666906e+02,9.469835e+02
4.695833e+02,9.447783e+02
4.724760e+02,9.352296e+02
4.753687e+02,9.315611e+02
4.782614e+02,9.514824e+02
4.811541e+02,9.473514e+02
4.840468e+02,9.454517e+02
4.869395e+02,9.346432e+02
4.898322e+02,9.296603e+02
4.927249e+02,9.351578e+02
4.956176e+02,9.358119e+02
4.985103e+02,9.214086e+02
5.014030e+02,9.303059e+02
5.042957e+02,9.253890e+02
5.071884e+02,9.316017e+02
5.100811e+02,9.282500e+02
5.129738e+02,9.252728e+02
5.158665e+02,9.296671e+02
5.187592e+02,9.339442e+02
5.216519e+02,9.194068e+02
5.245446e+02,9.129110e+02
5.274373e+02,9.190688e+02
5.303300e+02,9.171736e+02
5.332227e+02,9.116833e+02
5.361154e+02,9.172828e+02
5.390081e+02,8.998857e+02
5.419008e+02,9.137775e+02
5.447935e+02,9.034590e+02
5.476862e+02,9.043198e+02
5.505789e+02,8.957866e+02
5.534716e+02,8.999626e+02
5.563643e+02,8.958687e+02
5.592570e+02,9.019467e+02
5.621497e+02,8.916584e+02
5.650424e+02,8.977389e+02
5.679351e+02,8.863505e+02
5.708278e+02,8.864769e+02
5.737205e+02,8.914628e+02
5.766132e+02,8.947007e+02
5.795059e+02,8.935770e+02
5.823986e+02,8.907701e+02
5.852913e+02,8.865553e+02
5.881840e+02,8.830999e+02
5.910767e+02,8.854982e+02
5.939694e+02,8.850256e+02
5.968621e+02,8.693734e+02
5.997548e+02,8.837037e+02
6.026475e+02,8.756743e+02
6.055402e+02,8.755486e+02
6.084329e+02,8.786564e+02
6.113256e+02,8.829930e+02
6.142183e+02,8.681461e+02
6.171110e+02,8.686816e+02
6.200037e+02,8.627869e+02
6.228964e+02,8.783441e+02
6.257891e+02,8.708513e+02
6.286818e+02,8.710105e+02
6.315745e+02,8.715716e+02
6.344672e+02,8.644794e+02
6.373599e+02,8.588958e+02
6.402526e+02,8.631283e+02
6.431453e+02,8.641711e+02
6.460380e+02,8.709642e+02
6.489307e+02,8.556268e+02
6.518234e+02,8.478875e+02
6.547161e+02,8.588480e+02
6.576088e+02,8.531996e+02
6.605015e+02,8.522991e+02
6.633942e+02,8.469610e+02
6.662869e+02,8.437538e+02
6.691796e+02,8.516340e+02
6.720723e+02,8.475033e+02
6.749650e+02,8.360926e+02
6.778577e+02,8.386599e+02
6.807504e+02,8.458444e+02
6.836431e+02,8.363735e+02
6.865358e+02,8.351548e+02
6.894285e+02,8.227369e+02
6.923212e+02,8.261621e+02
6.952139e+02,8.315657e+02
6.981066e+02,8.431104e+02
7.009993e+02,8.219832e+02
7.038920e+02,8.246706e+02
7.067847e+02,8.287000e+02
7.096774e+02,8.309221e+02
7.125701e+02,8.338893e+02
7.154628e+02,8.213390e+02
7.183555e+02,8.278701e+02
7.212482e+02,8.240534e+02
7.241409e+02,8.207735e+02
7.270336e+02,8.132315e+02
7.299263e+02,8.201133e+02
7.328190e+02,8.218879e+02
7.357117e+02,8.151344e+02
7.386044e+02,8.057189e+02
7.414971e+02,8.120955e+02
7.443898e+02,8.121056e+02
7.472825e+02,8.133355e+02
7.501752e+02,8.008115e+02
7.530679e+02,7.963889e+02
7.559606e+02,7.938371e+02
7.588533e+02,8.004933e+02
7.617460e+02,8.013349e+02
7.646387e+02,8.029671e+02
7.675314e+02,8.021002e+02
7.704241e+02,7.914597e+02
7.733168e+02,7.907766e+02
7.762095e+02,8.014653e+02
7.791022e+02,7.973497e+02
7.819949e+02,7.880462e+02
7.848876e+02,7.866735e+02
7.877803e+02,7.865140e+02
7.906730e+02,7.904926e+02
7.935657e+02,7.815099e+02
7.964584e+02,7.812233e+02
7.993511e+02,7.864757e+02
8.022438e+02,7.770909e+02
8.051365e+02,7.780016e+02
8.080292e+02,7.880920e+02
8.109219e+02,7.857741e+02
8.138146e+02,7.805189e+02
8.167073e+02,7.790488e+02
8.196000e+02,7.739686e+02
8.224927e+02,7.706968e+02
8.253854e+02,7.657987e+02
8.282781e+02,7.728201e+02
8.311708e+02,7.645850e+02
8.340635e+02,7.710596e+02
8.369562e+02,7.732626e+02
8.398489e+02,7.674086e+02
8.427416e+02,7.716964e+02
8.456343e+02,7.620082e+02
8.485270e+02,7.635309e+02
8.514197e+02,7.650995e+02
8.543124e+02,7.777186e+02
8.572051e+02,7.673357e+02
8.600978e+02,7.561893e+02
8.629905e+02,7.684802e+02
8.658832e+02,7.659071e+02
8.687759e+02,7.622459e+02
8.716686e+02,7.574483e+02
8.745613e+02,7.551604e+02
8.774540e+02,7.575285e+02
8.803467e+02,7.573742e+02
8.832394e+02,7.566894e+02
8.861321e+02,7.503065e+02
8.890248e+02,7.552275e+02
8.919175e+02,7.557824e+02
8.948102e+02,7.493602e+02
8.977029e+02,7.433333e+02
9.005956e+02,7.521599e+02
9.034883e+02,7.407540e+02
9.063810e+02,7.357453e+02
9.092737e+02,7.498110e+02
9.121664e+02,7.436118e+02
9.150591e+02,7.396829e+02
9.179518e+02,7.307128e+02
9.208445e+02,7.342840e+02
9.237372e+02,7.318250e+02
9.266299e+02,7.305558e+02
9.295226e+02,7.274443e+02
9.324153e+02,7.285385e+02
9.353080e+02,7.292429e+02
9.382007e+02,7.196543e+02
9.410934e+02,7.160506e+02
9.439861e+02,7.174891e+02
9.468788e+02,7.219991e+02
9.497715e+02,7.240505e+02
9.526642e+02,7.259420e+02
9.555569e+02,7.163328e+02
9.584496e+02,7.171888e+02
9.613423e+02,7.247276e+02
9.642350e+02,7.246174e+02
9.671277e+02,7.234995e+02
9.700204e+02,7.142195e+02
9.729131e+02,7.190020e+02
9.758058e+02,7.150525e+02
9.786985e+02,7.124437e+02
9.815912e+02,7.141599e+02
9.844839e+02,7.103789e+02
9.873766e+02,7.167427e+02
9.902693e+02,7.160967e+02
9.931620e+02,7.150879e+02
9.960547e+02,7.166226e+02
9.989474e+02,7.048171e+02
1.001840e+03,7.050242e+02
1.004733e+03,7.022648e+02
1.007626e+03,7.007272e+02
1.010518e+03,6.998018e+02
1.013411e+03,6.977086e+02
1.016304e+03,6.953333e+02
1.019196e+03,6.984447e+02
1.022089e+03,7.011584e+02
1.024982e+03,7.004842e+02
1.027875e+03,7.085267e+02
1.030767e+03,7.060416e+02
1.033660e+03,6.963663e+02
1.036552e+03,7.056055e+02
1.039445e+03,6.943282e+02
1.042338e+03,7.060873e+02
1.045231e+03,7.004968e+02
1.048123e+03,7.012997e+02
1.051016e+03,7.004498e+02
1.053909e+03,7.107461e+02
1.056802e+03,6.957729e+02
1.059694e+03,7.033661e+02
1.062587e+03,6.987599e+02
1.065479e+03,6.989302e+02
1.068372e+03,7.032720e+02
1.071265e+03,7.105268e+02
1.074158e+03,7.109701e+02
1.077050e+03,7.113134e+02
1.079943e+03,7.094074e+02
1.082836e+03,7.090475e+02
1.085729e+03,7.134659e+02
1.088621e+03,7.313561e+02
1.091514e+03,7.476516e+02
1.094406e+03,7.415330e+02
1.097299e+03,7.272120e+02
1.100192e+03,7.271334e+02
1.103085e+03,7.139950e+02
1.105977e+03,7.003344e+02
1.108870e+03,7.018308e+02
1.111763e+03,7.145876e+02
1.114656e+03,7.110929e+02
1.117548e+03,7.270705e+02
1.120441e+03,7.220505e+02
1.123334e+03,7.143557e+02
1.126226e+03,6.951934e+02
1.129119e+03,6.950183e+02
1.132012e+03,6.867303e+02
1.134904e+03,6.781849e+02
1.137797e+03,6.818614e+02
1.140690e+03,6.783000e+02
1.143583e+03,6.835958e+02
1.146475e+03,6.919409e+02
1.149368e+03,6.923163e+02
1.152261e+03,6.934815e+02
1.155153e+03,6.861705e+02
1.158046e+03,6.861182e+02
1.160939e+03,6.936728e+02
1.163831e+03,6.921454e+02
1.166724e+03,6.869563e+02
1.169617e+03,6.827634e+02
1.172510e+03,6.803405e+02
1.175402e+03,6.719706e+02
1.178295e+03,6.684653e+02
1.181188e+03,6.736358e+02
1.184080e+03,6.567176e+02
1.186973e+03,6.561426e+02
1.189866e+03,6.517219e+02
1.192758e+03,6.509701e+02
1.195651e+03,6.515996e+02
1.198544e+03,6.523633e+02
1.201437e+03,6.512581e+02
1.204329e+03,6.469725e+02
1.207222e+03,6.510545e+02
1.210115e+03,6.484952e+02
1.213007e+03,6.536637e+02
1.215900e+03,6.467888e+02
1.218793e+03,6.435143e+02
1.221685e+03,6.386876e+02
1.224578e+03,6.380818e+02
1.227471e+03,6.437199e+02
1.230364e+03,6.361254e+02
1.233256e+03,6.372316e+02
1.236149e+03,6.398249e+02
1.239042e+03,6.361156e+02
1.241934e+03,6.377131e+02
1.244827e+03,6.347092e+02
1.247720e+03,6.346604e+02
1.250612e+03,6.327377e+02
1.253505e+03,6.313453e+02
1.256398e+03,6.393142e+02
1.259291e+03,6.344807e+02
1.262183e+03,6.316934e+02
1.265076e+03,6.343251e+02
1.267969e+03,6.415488e+02
1.270861e+03,6.304052e+02
1.273754e+03,6.347939e+02
1.276647e+03,6.316580e+02
1.279539e+03,6.375189e+02
1.282432e+03,6.325590e+02
1.285325e+03,6.303242e+02
1.288218e+03,6.341708e+02
1.291110e+03,6.463307e+02
1.294003e+03,6.338863e+02
1.296896e+03,6.361276e+02
1.299788e+03,6.332653e+02
1.302681e+03,6.404821e+02
1.305574e+03,6.382527e+02
1.308466e+03,6.389926e+02
1.311359e+03,6.420865e+02
1.314252e+03,6.451572e+02
1.317145e+03,6.515969e+02
1.320037e+03,6.551964e+02
1.322930e+03,6.489858e+02
1.325823e+03,6.566172e+02
1.328715e+03,6.558249e+02
1.331608e+03,6.544821e+02
1.334501e+03,6.578202e+02
1.337393e+03,6.453096e+02
1.340286e+03,6.447255e+02
1.343179e+03,6.365009e+02
1.346072e+03,6.315891e+02
1.348964e+03,6.321578e+02
1.351857e+03,6.253868e+02
1.354750e+03,6.222604e+02
1.357642e+03,6.218658e+02
1.360535e+03,6.205342e+02
1.363428e+03,6.298094e+02
1.366320e+03,6.289794e+02
1.369213e+03,6.314180e+02
1.372106e+03,6.282150e+02
1.374999e+03,6.261814e+02
1.377891e+03,6.303251e+02
1.380784e+03,6.254943e+02
1.383677e+03,6.197782e+02
1.386569e+03,6.163625e+02
1.389462e+03,6.097382e+02
1.392355e+03,6.085143e+02
1.395247e+03,6.024567e+02
1.398140e+03,5.937433e+02
1.401033e+03,5.972921e+02
1.403926e+03,5.968496e+02
1.406818e+03,6.022736e+02
1.409711e+03,5.983796e+02
1.412604e+03,5.988971e+02
1.415496e+03,6.008627e+02
1.418389e+03,5.905294e+02
1.421282e+03,5.894334e+02
1.424174e+03,5.909297e+02
1.427067e+03,5.919570e+02
1.429960e+03,5.847910e+02
1.432853e+03,5.897473e+02
1.435745e+03,5.794424e+02
1.438638e+03,5.862717e+02
1.441531e+03,5.814654e+02
1.444423e+03,5.833029e+02
1.447316e+03,5.726042e+02
1.450209e+03,5.747303e+02
1.453101e+03,5.860687e+02
1.455994e+03,5.779977e+02
1.458887e+03,5.782242e+02
1.461780e+03,5.746470e+02
1.464672e+03,5.799170e+02
1.467565e+03,5.735691e+02
1.470458e+03,5.753421e+02
1.473350e+03,5.773594e+02
1.476243e+03,5.782867e+02
1.479136e+03,5.772099e+02
1.482028e+03,5.675473e+02
1.484921e+03,5.674464e+02
1.487814e+03,5.653847e+02
1.490707e+03,5.664987e+02
1.493599e+03,5.620866e+02
1.496492e+03,5.697706e+02
1.499385e+03,5.578405e+02
1.502277e+03,5.557142e+02
1.505170e+03,5.633676e+02
1.508063e+03,5.504703e+02
1.510955e+03,5.514371e+02
1.513848e+03,5.518113e+02
1.516741e+03,5.465833e+02
1.519634e+03,5.527777e+02
1.522526e+03,5.548988e+02
1.525419e+03,5.501675e+02
1.528312e+03,5.487390e+02
1.531204e+03,5.480340e+02
1.534097e+03,5.547371e+02
1.536990e+03,5.523021e+02
1.539882e+03,5.428906e+02
1.542775e+03,5.486207e+02
1.545668e+03,5.468923e+02
1.548561e+03,5.448650e+02
1.551453e+03,5.486279e+02
1.554346e+03,5.471182e+02
1.557239e+03,5.522776e+02
1.560131e+03,5.449416e+02
1.563024e+03,5.450934e+02
1.565917e+03,5.525082e+02
1.568809e+03,5.449454e+02
1.571702e+03,5.458655e+02
1.574595e+03,5.463383e+02
1.577488e+03,5.497418e+02
1.580380e+03,5.482189e+02
1.583273e+03,5.467394e+02
1.586166e+03,5.439788e+02
1.589058e+03,5.386523e+02
1.591951e+03,5.381078e+02
1.594844e+03,5.395334e+02
1.597736e+03,5.366213e+02
1.600629e+03,5.401501e+02
1.603522e+03,5.413577e+02
1.606415e+03,5.408621e+02
1.609307e+03,5.511386e+02
1.612200e+03,5.477154e+02
1.615093e+03,5.489395e+02
1.617985e+03,5.458351e+02
1.620878e+03,5.274342e+02
1.623771e+03,5.254421e+02
1.626663e+03,5.219772e+02
1.629556e+03,5.226422e+02
1.632449e+03,5.171667e+02
1.635342e+03,5.155722e+02
1.638234e+03,5.249667e+02
1.641127e+03,5.216337e+02
1.644020e+03,5.110765e+02
1.646912e+03,5.135875e+02
1.649805e+03,5.107995e+02
1.652698e+03,5.159520e+02
1.655590e+03,5.067892e+02
1.658483e+03,5.047735e+02
1.661376e+03,5.131376e+02
1.664269e+03,5.037034e+02
1.667161e+03,5.132950e+02
1.670054e+03,5.093642e+02
1.672947e+03,5.027698e+02
1.675839e+03,4.983340e+02
1.678732e+03,5.072929e+02
1.681625e+03,5.000933e+02
1.684517e+03,5.095958e+02
1.687410e+03,4.996643e+02
1.690303e+03,5.012747e+02
1.693196e+03,5.015045e+02
1.696088e+03,4.968081e+02
1.698981e+03,4.920818e+02
1.701874e+03,4.960536e+02
1.704766e+03,4.938552e+02
1.707659e+03,4.976999e+02
1.710552e+03,4.946862e+02
1.713444e+03,4.929644e+02
1.716337e+03,4.859441e+02
1.719230e+03,4.972432e+02
1.722123e+03,4.972179e+02
1.725015e+03,5.014675e+02
1.727908e+03,4.961596e+02
1.730801e+03,4.939988e+02
1.733693e+03,4.944403e+02
1.736586e+03,4.920849e+02
1.739479e+03,4.865220e+02
1.742371e+03,4.779324e+02
1.745264e+03,4.760947e+02
1.748157e+03,4.857924e+02
1.751050e+03,4.823805e+02
1.753942e+03,4.791355e+02
1.756835e+03,4.716137e+02
1.759728e+03,4.710901e+02
1.762620e+03,4.694716e+02
1.765513e+03,4.687596e+02
1.768406e+03,4.680241e+02
1.771298e+03,4.605162e+02
1.774191e+03,4.736806e+02
1.777084e+03,4.685151e+02
1.779977e+03,4.701748e+02
1.782869e+03,4.634585e+02
1.785762e+03,4.644663e+02
1.788655e+03,4.680954e+02
1.791547e+03,4.577343e+02
1.794440e+03,4.665508e+02
1.797333e+03,4.665253e+02
1.800225e+03,4.594586e+02
1.803118e+03,4.522437e+02
1.806011e+03,4.593608e+02
1.808904e+03,4.589363e+02
1.811796e+03,4.642290e+02
1.814689e+03,4.522311e+02
1.817582e+03,4.485121e+02
1.820474e+03,4.617464e+02
1.823367e+03,4.516006e+02
1.826260e+03,4.504817e+02
1.829152e+03,4.448266e+02
1.832045e+03,4.519674e+02
1.834938e+03,4.544567e+02
1.837831e+03,4.445464e+02
1.840723e+03,4.471620e+02
1.843616e+03,4.436153e+02
1.846509e+03,4.498573e+02
1.849401e+03,4.405254e+02
1.852294e+03,4.385039e+02
1.855187e+03,4.321086e+02
1.858079e+03,4.429850e+02
1.860972e+03,4.397260e+02
1.863865e+03,4.396848e+02
1.866758e+03,4.334904e+02
1.869650e+03,4.303101e+02
1.872543e+03,4.363138e+02
1.875436e+03,4.281556e+02
1.878328e+03,4.336779e+02
1.881221e+03,4.228750e+02
1.884114e+03,4.318557e+02
1.887006e+03,4.217640e+02
1.889899e+03,4.238374e+02
1.892792e+03,4.233861e+02
1.895685e+03,4.220984e+02
1.898577e+03,4.218387e+02
1.901470e+03,4.239055e+02
1.904363e+03,4.235813e+02
1.907255e+03,4.222958e+02
1.910148e+03,4.171421e+02
1.913041e+03,4.139823e+02
1.915933e+03,4.185510e+02
1.918826e+03,4.144704e+02
1.921719e+03,4.138446e+02
1.924612e+03,4.095844e+02
1.927504e+03,4.115760e+02
1.930397e+03,4.204804e+02
1.933290e+03,4.038422e+02
1.936182e+03,4.126490e+02
1.939075e+03,4.138948e+02
1.941968e+03,4.152099e+02
1.944860e+03,4.130161e+02
1.947753e+03,4.093046e+02
1.950646e+03,4.045619e+02
1.953539e+03,4.033907e+02
1.956431e+03,3.957341e+02
1.959324e+03,4.040099e+02
1.962217e+03,4.014586e+02
1.965109e+03,4.071835e+02
1.968002e+03,4.014568e+02
1.970895e+03,3.985453e+02
1.973787e+03,4.070434e+02
1.976680e+03,3.924312e+02
1.979573e+03,4.005123e+02
1.982466e+03,3.952213e+02
1.985358e+03,3.868211e+02
1.988251e+03,3.909882e+02
1.991144e+03,3.899414e+02
1.994036e+03,3.858659e+02
1.996929e+03,3.886533e+02
1.999822e+03,3.876955e+02
2.002714e+03,3.890074e+02
2.005607e+03,3.894048e+02
2.008500e+03,3.897484e+02
2.011393e+03,3.870211e+02
2.014285e+03,3.882357e+02
2.017178e+03,3.781406e+02
2.020071e+03,3.840625e+02
2.022963e+03,3.851026e+02
2.025856e+03,3.724781e+02
2.028749e+03,3.754591e+02
2.031641e+03,3.756808e+02
2.034534e+03,3.740615e+02
2.037427e+03,3.736815e+02
2.040320e+03,3.724218e+02
2.043212e+03,3.699672e+02
2.046105e+03,3.764210e+02
2.048998e+03,3.741158e+02
2.051890e+03,3.764915e+02
2.054783e+03,3.780130e+02
2.057676e+03,3.712540e+02
2.060568e+03,3.589789e+02
2.063461e+03,3.569352e+02
2.066354e+03,3.688896e+02
2.069247e+03,3.625907e+02
2.072139e+03,3.643893e+02
2.075032e+03,3.644683e+02
2.077925e+03,3.630513e+02
2.080817e+03,3.619042e+02
2.083710e+03,3.558973e+02
2.086603e+03,3.539583e+02
2.089496e+03,3.562873e+02
2.092388e+03,3.620513e+02
2.095281e+03,3.472022e+02
2.098174e+03,3.585104e+02
2.101066e+03,3.488588e+02
2.103959e+03,3.458017e+02
2.106852e+03,3.461945e+02
2.109744e+03,3.519069e+02
2.112637e+03,3.435224e+02
2.115530e+03,3.383086e+02
2.118422e+03,3.480231e+02
2.121315e+03,3.460135e+02
2.124208e+03,3.448255e+02
2.127101e+03,3.435851e+02
2.129993e+03,3.453122e+02
2.132886e+03,3.464475e+02
2.135779e+03,3.374155e+02
2.138671e+03,3.365162e+02
2.141564e+03,3.497050e+02
2.144457e+03,3.329377e+02
2.147350e+03,3.302208e+02
2.150242e+03,3.356855e+02
2.153135e+03,3.262836e+02
2.156028e+03,3.371256e+02
2.158920e+03,3.241393e+02
2.161813e+03,3.364800e+02
2.164706e+03,3.329338e+02
2.167598e+03,3.294536e+02
2.170491e+03,3.223499e+02
2.173384e+03,3.286678e+02
2.176277e+03,3.262739e+02
2.179169e+03,3.271966e+02
2.182062e+03,3.332780e+02
2.184955e+03,3.357608e+02
2.187847e+03,3.280164e+02
2.190740e+03,3.267977e+02
2.193633e+03,3.187351e+02
2.196525e+03,3.184851e+02
2.199418e+03,3.161475e+02
2.202311e+03,3.172479e+02
2.205204e+03,3.229387e+02
2.208096e+03,3.172021e+02
2.210989e+03,3.204147e+02
2.213882e+03,3.110430e+02
2.216774e+03,3.175589e+02
2.219667e+03,3.153155e+02
2.222560e+03,3.139140e+02
2.225452e+03,3.107657e+02
2.228345e+03,3.101421e+02
2.231238e+03,3.106998e+02
2.234131e+03,3.039321e+02
2.237023e+03,3.087869e+02
2.239916e+03,3.090371e+02
2.242809e+03,3.076195e+02
2.245701e+03,3.049303e+02
2.248594e+03,3.026276e+02
2.251487e+03,2.988330e+02
2.254379e+03,2.944845e+02
2.257272e+03,3.086201e+02
2.260165e+03,2.970111e+02
2.263058e+03,3.068400e+02
2.265950e+03,3.071830e+02
2.268843e+03,2.952876e+02
2.271736e+03,2.959919e+02
2.274628e+03,2.903805e+02
2.277521e+03,2.956066e+02
2.280414e+03,2.966223e+02
2.283306e+03,2.971557e+02
2.286199e+03,2.865160e+02
2.289092e+03,2.941738e+02
2.291985e+03,2.873337e+02
2.294877e+03,2.839604e+02
2.297770e+03,2.978720e+02
2.300663e+03,2.881283e+02
2.303555e+03,2.862964e+02
2.306448e+03,2.862646e+02
2.309341e+03,2.838417e+02
2.312233e+03,2.861442e+02
2.315126e+03,2.812829e+02
2.318019e+03,2.893075e+02
2.320912e+03,2.857633e+02
2.323804e+03,2.840613e+02
2.326697e+03,2.821242e+02
2.329590e+03,2.825622e+02
2.332482e+03,2.798144e+02
2.335375e+03,2.842283e+02
2.338268e+03,2.835911e+02
2.341160e+03,2.779688e+02
2.344053e+03,2.809366e+02
2.346946e+03,2.805274e+02
2.349839e+03,2.823064e+02
2.352731e+03,2.748844e+02
2.355624e+03,2.775157e+02
2.358517e+03,2.750573e+02
2.361409e+03,2.813772e+02
2.364302e+03,2.718013e+02
2.367195e+03,2.708962e+02
2.370087e+03,2.738817e+02
2.372980e+03,2.775940e+02
2.375873e+03,2.709119e+02
2.378766e+03,2.746337e+02
2.381658e+03,2.705045e+02
2.384551e+03,2.676393e+02
2.387444e+03,2.636095e+02
2.390336e+03,2.674848e+02
2.393229e+03,2.694941e+02
2.396122e+03,2.700946e+02
2.399014e+03,2.634624e+02
2.401907e+03,2.666232e+02
2.404800e+03,2.592086e+02
2.407693e+03,2.675157e+02
2.410585e+03,2.720511e+02
2.413478e+03,2.605363e+02
2.416371e+03,2.601594e+02
2.419263e+03,2.610568e+02
2.422156e+03,2.646628e+02
2.425049e+03,2.620396e+02
2.427941e+03,2.586046e+02
2.430834e+03,2.564771e+02
2.433727e+03,2.494410e+02
2.436620e+03,2.611979e+02
2.439512e+03,2.555119e+02
2.442405e+03,2.559448e+02
2.445298e+03,2.577832e+02
2.448190e+03,2.507954e+02
2.451083e+03,2.574778e+02
2.453976e+03,2.589489e+02
2.456868e+03,2.505508e+02
2.459761e+03,2.546583e+02
2.462654e+03,2.536250e+02
2.465547e+03,2.437213e+02
2.468439e+03,2.481687e+02
2.471332e+03,2.523895e+02
2.474225e+03,2.464668e+02
2.477117e+03,2.476643e+02
2.480010e+03,2.594129e+02
2.482903e+03,2.482666e+02
2.485795e+03,2.499143e+02
2.488688e+03,2.477501e+02
2.491581e+03,2.441882e+02
2.494474e+03,2.381213e+02
2.497366e+03,2.517545e+02
2.500259e+03,2.456751e+02
2.503152e+03,2.472571e+02
2.506044e+03,2.511969e+02
2.508937e+03,2.449245e+02
2.511830e+03,2.492239e+02
2.514722e+03,2.386659e+02
2.517615e+03,2.501514e+02
2.520508e+03,2.423957e+02
2.523401e+03,2.437930e+02
2.526293e+03,2.415110e+02
2.529186e+03,2.431316e+02
2.532079e+03,2.375493e+02
2.534971e+03,2.460701e+02
2.537864e+03,2.362283e+02
2.540757e+03,2.368280e+02
2.543649e+03,2.433881e+02
2.546542e+03,2.482433e+02
2.549435e+03,2.396393e+02
2.552328e+03,2.407637e+02
2.555220e+03,2.541924e+02
2.558113e+03,2.416887e+02
2.561006e+03,2.427666e+02
2.563898e+03,2.499246e+02
2.566791e+03,2.355235e+02
2.569684e+03,2.401741e+02
2.572576e+03,2.345609e+02
2.575469e+03,2.465088e+02
2.578362e+03,2.367243e+02
2.581255e+03,2.274657e+02
2.584147e+03,2.322697e+02
2.587040e+03,2.337169e+02
2.589933e+03,2.347295e+02
2.592825e+03,2.234911e+02
2.595718e+03,2.212472e+02
2.598611e+03,2.343887e+02
2.601503e+03,2.306657e+02
2.604396e+03,2.295330e+02
2.607289e+03,2.213454e+02
2.610182e+03,2.277785e+02
2.613074e+03,2.282654e+02
2.615967e+03,2.267444e+02
2.618860e+03,2.260248e+02
2.621752e+03,2.258458e+02
2.624645e+03,2.290733e+02
2.627538e+03,2.298609e+02
2.630430e+03,2.214187e+02
2.633323e+03,2.270383e+02
2.636216e+03,2.250278e+02
2.639109e+03,2.172896e+02
2.642001e+03,2.266235e+02
2.644894e+03,2.264436e+02
2.647787e+03,2.236070e+02
2.650679e+03,2.209509e+02
2.653572e+03,2.234789e+02
2.656465e+03,2.228645e+02
2.659357e+03,2.294674e+02
2.662250e+03,2.139263e+02
2.665143e+03,2.162289e+02
2.668036e+03,2.145568e+02
2.670928e+03,2.184065e+02
2.673821e+03,2.259212e+02
2.676714e+03,2.189171e+02
2.679606e+03,2.190763e+02
2.682499e+03,2.173530e+02
2.685392e+03,2.220107e+02
2.688284e+03,2.233616e+02
2.691177e+03,2.193945e+02
2.694070e+03,2.126368e+02
2.696963e+03,2.173629e+02
2.699855e+03,2.210736e+02
2.702748e+03,2.208032e+02
2.705641e+03,2.090142e+02
2.708533e+03,2.224537e+02
2.711426e+03,2.178167e+02
2.714319e+03,2.147482e+02
2.717211e+03,2.315371e+02
2.720104e+03,2.235537e+02
2.722997e+03,2.151140e+02
2.725890e+03,2.070527e+02
2.728782e+03,2.253479e+02
2.731675e+03,2.106446e+02
2.734568e+03,2.279303e+02
2.737460e+03,2.158971e+02
2.740353e+03,2.163876e+02
2.743246e+03,2.189506e+02
2.746138e+03,2.170719e+02
2.749031e+03,2.186863e+02
2.751924e+03,2.067073e+02
2.754817e+03,2.158541e+02
2.757709e+03,2.142283e+02
2.760602e+03,2.184694e+02
2.763495e+03,2.056250e+02
2.766387e+03,2.138867e+02
2.769280e+03,2.090868e+02
2.772173e+03,2.204539e+02
2.775065e+03,2.120620e+02
2.777958e+03,2.155544e+02
2.780851e+03,2.102830e+02
2.783744e+03,2.105573e+02
2.786636e+03,2.093477e+02
2.789529e+03,2.096610e+02
2.792422e+03,2.256159e+02
2.795314e+03,2.068343e+02
2.798207e+03,2.158060e+02
2.801100e+03,2.199933e+02
2.803992e+03,2.072665e+02
2.806885e+03,2.071268e+02
2.809778e+03,2.076962e+02
2.812671e+03,2.084962e+02
2.815563e+03,2.030285e+02
2.818456e+03,2.063804e+02
2.821349e+03,2.010838e+02
2.824241e+03,2.000491e+02
2.827134e+03,2.145723e+02
2.830027e+03,2.173349e+02
2.832919e+03,2.100088e+02
2.835812e+03,2.287714e+02
2.838705e+03,2.174139e+02
2.841598e+03,2.173943e+02
2.844490e+03,2.271489e+02
2.847383e+03,2.248858e+02
2.850276e+03,2.413346e+02
2.853168e+03,2.232316e+02
2.856061e+03,2.276391e+02
2.858954e+03,2.193315e+02
2.861846e+03,2.342446e+02
2.864739e+03,2.276148e+02
2.867632e+03,2.374350e+02
2.870525e+03,2.343078e+02
2.873417e+03,2.356595e+02
2.876310e+03,2.372831e+02
2.879203e+03,2.431807e+02
2.882095e+03,2.567423e+02
2.884988e+03,2.505316e+02
2.887881e+03,2.544670e+02
2.890773e+03,2.568099e+02
2.893666e+03,2.467739e+02
2.896559e+03,2.575535e+02
2.899452e+03,2.603578e+02
2.902344e+03,2.560338e+02
2.905237e+03,2.415847e+02
2.908130e+03,2.504360e+02
2.911022e+03,2.547848e+02
2.913915e+03,2.194422e+02
2.916808e+03,2.379814e+02
2.919700e+03,2.329608e+02
2.922593e+03,2.194526e+02
2.925486e+03,2.307978e+02
2.928379e+03,2.295725e+02
2.931271e+03,2.316245e+02
2.934164e+03,2.355479e+02
2.937057e+03,2.173823e+02
2.939949e+03,2.322283e+02
2.942842e+03,2.123770e+02
2.945735e+03,2.340527e+02
2.948627e+03,2.168089e+02
2.951520e+03,2.230761e+02
2.954413e+03,2.194918e+02
2.957306e+03,2.429447e+02
2.960198e+03,2.378557e+02
2.963091e+03,2.047735e+02
2.965984e+03,2.144424e+02
2.968876e+03,2.205585e+02
2.971769e+03,2.129681e+02
2.974662e+03,1.959203e+02
2.977554e+03,2.225153e+02
2.980447e+03,1.829742e+02
2.983340e+03,2.020659e+02
2.986233e+03,1.966951e+02
2.989125e+03,2.064028e+02
2.992018e+03,1.933887e+02
2.994911e+03,1.892365e+02
2.997803e+03,2.033548e+02
3.000696e+03,1.979140e+02
3.003589e+03,1.829083e+02
3.006481e+03,1.942916e+02
3.009374e+03,2.129499e+02
3.012267e+03,1.801214e+02
3.015160e+03,1.799235e+02
3.018052e+03,1.784053e+02
3.020945e+03,1.762465e+02
3.023838e+03,1.720712e+02
3.026730e+03,1.849289e+02
3.029623e+03,1.918097e+02
3.032516e+03,1.940896e+02
3.035408e+03,1.569119e+02
3.038301e+03,1.861364e+02
3.041194e+03,1.914470e+02
3.044087e+03,1.802758e+02
3.046979e+03,1.939048e+02
3.049872e+03,1.847398e+02
3.052765e+03,1.731314e+02
3.055657e+03,1.876175e+02
3.058550e+03,1.935791e+02
3.061443e+03,1.940842e+02
3.064335e+03,1.797733e+02
3.067228e+03,2.047600e+02
3.070121e+03,2.022490e+02
3.073014e+03,1.813065e+02
3.075906e+03,1.812821e+02
3.078799e+03,1.934229e+02
3.081692e+03,1.955791e+02
3.084584e+03,1.839353e+02
3.087477e+03,1.810887e+02
3.090370e+03,1.992220e+02
3.093262e+03,1.699749e+02
3.096155e+03,1.893143e+02
3.099048e+03,1.763106e+02
3.101941e+03,2.024077e+02
3.104833e+03,1.860106e+02
3.107726e+03,1.909987e+02
3.110619e+03,1.906317e+02
3.113511e+03,1.757641e+02
3.116404e+03,1.914976e+02
3.119297e+03,2.149606e+02
3.122189e+03,1.904291e+02
3.125082e+03,1.894990e+02
3.127975e+03,2.067695e+02
3.130868e+03,2.023761e+02
3.133760e+03,2.124554e+02
3.136653e+03,1.662238e+02
3.139546e+03,1.954796e+02
3.142438e+03,2.065194e+02
3.145331e+03,1.739143e+02
3.148224e+03,1.896835e+02
3.151116e+03,1.858891e+02
3.154009e+03,2.079718e+02
3.156902e+03,2.101215e+02
3.159795e+03,1.766898e+02
3.162687e+03,2.006127e+02
3.165580e+03,1.959186e+02
3.168473e+03,1.995097e+02
3.171365e+03,1.917961e+02
3.174258e+03,2.059646e+02
3.177151e+03,1.804407e+02
3.180043e+03,1.778530e+02
3.182936e+03,2.125668e+02
3.185829e+03,2.085195e+02
3.188722e+03,1.803430e+02
3.191614e+03,2.255582e+02
3.194507e+03,1.886141e+02
3.197400e+03,1.727195e+02
3.200292e+03,2.213849e+02
3.203185e+03,0.000000e+00
3.206078e+03,0.000000e+00
3.208970e+03,0.000000e+00
3.211863e+03,0.000000e+00
3.214756e+03,0.000000e+00
3.217649e+03,0.000000e+00
3.220541e+03,0.000000e+00
3.223434e+03,0.000000e+00
3.226327e+03,0.000000e+00
3.229219e+03,0.000000e+00
3.232112e+03,0.000000e+00
3.235005e+03,0.000000e+00
3.237897e+03,0.000000e+00
3.240790e+03,0.000000e+00
3.243683e+03,0.000000e+00
3.246576e+03,0.000000e+00
3.249468e+03,0.000000e+00
3.252361e+03,0.000000e+00
3.255254e+03,0.000000e+00
3.258146e+03,0.000000e+00
3.261039e+03,0.000000e+00
3.263932e+03,0.000000e+00
3.266824e+03,0.000000e+00
3.269717e+03,0.000000e+00
3.272610e+03,0.000000e+00
3.275503e+03,0.000000e+00
3.278395e+03,0.000000e+00
3.281288e+03,0.000000e+00
3.284181e+03,0.000000e+00
3.287073e+03,0.000000e+00
3.289966e+03,0.000000e+00
3.292859e+03,0.000000e+00
3.295751e+03,0.000000e+00
3.298644e+03,0.000000e+00
3.301537e+03,0.000000e+00
3.304430e+03,0.000000e+00
3.307322e+03,0.000000e+00
3.310215e+03,0.000000e+00
3.313108e+03,0.000000e+00
3.316000e+03,0.000000e+00
3.318893e+03,0.000000e+00
3.321786e+03,0.000000e+00
3.324678e+03,0.000000e+00
3.327571e+03,0.000000e+00
3.330464e+03,0.000000e+00
3.333357e+03,0.000000e+00
3.336249e+03,0.000000e+00
3.339142e+03,0.000000e+00
3.342035e+03,0.000000e+00
3.344927e+03,0.000000e+00
3.347820e+03,0.000000e+00
3.350713e+03,0.000000e+00
3.353605e+03,0.000000e+00
3.356498e+03,0.000000e+00
3.359391e+03,0.000000e+00
3.362284e+03,0.000000e+00
3.365176e+03,0.000000e+00
3.368069e+03,0.000000e+00
3.370962e+03,0.000000e+00
3.373854e+03,0.000000e+00
3.376747e+03,0.000000e+00
3.379640e+03,0.000000e+00
3.382532e+03,0.000000e+00
3.385425e+03,0.000000e+00
3.388318e+03,0.000000e+00
3.391211e+03,0.000000e+00
3.394103e+03,0.000000e+00
3.396996e+03,0.000000e+00
3.399889e+03,0.000000e+00
3.402781e+03,0.000000e+00
3.405674e+03,0.000000e+00
3.408567e+03,0.000000e+00
3.411459e+03,0.000000e+00
3.414352e+03,0.000000e+00
3.417245e+03,0.000000e+00
3.420138e+03,0.000000e+00
3.423030e+03,0.000000e+00
3.425923e+03,0.000000e+00
3.428816e+03,0.000000e+00
3.431708e+03,0.000000e+00
3.434601e+03,0.000000e+00
3.437494e+03,0.000000e+00
3.440386e+03,0.000000e+00
3.443279e+03,0.000000e+00
3.446172e+03,0.000000e+00
3.449065e+03,0.000000e+00
3.451957e+03,0.000000e+00
3.454850e+03,0.000000e+00
3.457743e+03,0.000000e+00
3.460635e+03,0.000000e+00
3.463528e+03,0.000000e+00
3.466421e+03,0.000000e+00
3.469313e+03,0.000000e+00
3.472206e+03,0.000000e+00
3.475099e+03,0.000000e+00
3.477992e+03,0.000000e+00
3.480884e+03,0.000000e+00
3.483777e+03,0.000000e+00
3.486670e+03,0.000000e+00
3.489563e+03,0.000000e+00
3.492455e+03,0.000000e+00
3.495348e+03,0.000000e+00
3.498240e+03,0.000000e+00
3.500169e+03,0.000000e+00