File: RAMAN_data/12022024_r1/black fibre14.CSV
9.931763e+01,0.000000e+00
1.022103e+02,0.000000e+00
1.051030e+02,0.000000e+00
1.079957e+02,0.000000e+00
1.108884e+02,0.000000e+00
1.137811e+02,0.000000e+00
1.166738e+02,0.000000e+00
1.195665e+02,0.000000e+00
1.224592e+02,0.000000e+00
1.253519e+02,0.000000e+00
1.282446e+02,0.000000e+00
1.311373e+02,0.000000e+00
1.340300e+02,0.000000e+00
1.369227e+02,0.000000e+00
1.398154e+02,0.000000e+00
1.427081e+02,0.000000e+00
1.456008e+02,0.000000e+00
1.484935e+02,0.000000e+00
1.513862e+02,0.000000e+00
1.542789e+02,0.000000e+00
1.571716e+02,0.000000e+00
1.600643e+02,0.000000e+00
1.629570e+02,0.000000e+00
1.658497e+02,0.000000e+00
1.687424e+02,0.000000e+00
1.716351e+02,0.000000e+00
1.745278e+02,0.000000e+00
1.774205e+02,0.000000e+00
1.803132e+02,0.000000e+00
1.832059e+02,0.000000e+00
1.860986e+02,0.000000e+00
1.889913e+02,0.000000e+00
1.918840e+02,0.000000e+00
1.947767e+02,0.000000e+00
1.976694e+02,0.000000e+00
2.005621e+02,2.366889e+03
2.034548e+02,2.371750e+03
2.063475e+02,2.378360e+03
2.092402e+02,2.385000e+03
2.121329e+02,2.367600e+03
2.150256e+02,2.366973e+03
2.179183e+02,2.373526e+03
2.208110e+02,2.390839e+03
2.237037e+02,2.387081e+03
2.265964e+02,2.376635e+03
2.294892e+02,2.373316e+03
2.323819e+02,2.373028e+03
2.352746e+02,2.358207e+03
2.381673e+02,2.368427e+03
2.410600e+02,2.351371e+03
2.439527e+02,2.349491e+03
2.468454e+02,2.369038e+03
2.497381e+02,2.365823e+03
2.526308e+02,2.356011e+03
2.555235e+02,2.338333e+03
2.584161e+02,2.348996e+03
2.613088e+02,2.342050e+03
2.642015e+02,2.343754e+03
2.670942e+02,2.349823e+03
2.699869e+02,2.368231e+03
2.728796e+02,2.354760e+03
2.757723e+02,2.348807e+03
2.786650e+02,2.360510e+03
2.815577e+02,2.367216e+03
2.844504e+02,2.354903e+03
2.873431e+02,2.368317e+03
2.902358e+02,2.360559e+03
2.931285e+02,2.356341e+03
2.960212e+02,2.366379e+03
2.989139e+02,2.382513e+03
3.018066e+02,2.389545e+03
3.046993e+02,2.376169e+03
3.075920e+02,2.390004e+03
3.104847e+02,2.396084e+03
3.133774e+02,2.394640e+03
3.162701e+02,2.391801e+03
3.191628e+02,2.406815e+03
3.220555e+02,2.409920e+03
3.249482e+02,2.415009e+03
3.278409e+02,2.413008e+03
3.307336e+02,2.420121e+03
3.336263e+02,2.414560e+03
3.365190e+02,2.403420e+03
3.394117e+02,2.403324e+03
3.423044e+02,2.410602e+03
3.451971e+02,2.415604e+03
3.480898e+02,2.400829e+03
3.509825e+02,2.394968e+03
3.538752e+02,2.387836e+03
3.567680e+02,2.380339e+03
3.596607e+02,2.389468e+03
3.625534e+02,2.405812e+03
3.654461e+02,2.384308e+03
3.683388e+02,2.395966e+03
3.712315e+02,2.406752e+03
3.741242e+02,2.410478e+03
3.770169e+02,2.422333e+03
3.799096e+02,2.409745e+03
3.828023e+02,2.398371e+03
3.856950e+02,2.386691e+03
3.885877e+02,2.371623e+03
3.914804e+02,2.377729e+03
3.943731e+02,2.364570e+03
3.972658e+02,2.351897e+03
4.001585e+02,2.367353e+03
4.030512e+02,2.361744e+03
4.059439e+02,2.347575e+03
4.088366e+02,2.350131e+03
4.117293e+02,2.351820e+03
4.146220e+02,2.349664e+03
4.175147e+02,2.360068e+03
4.204074e+02,2.368410e+03
4.233001e+02,2.337114e+03
4.261928e+02,2.346090e+03
4.290855e+02,2.353706e+03
4.319782e+02,2.357821e+03
4.348709e+02,2.358480e+03
4.377636e+02,2.341467e+03
4.406563e+02,2.336283e+03
4.435490e+02,2.342358e+03
4.464417e+02,2.339857e+03
4.493344e+02,2.337089e+03
4.522271e+02,2.355643e+03
4.551198e+02,2.354509e+03
4.580125e+02,2.348648e+03
4.609052e+02,2.350540e+03
4.637979e+02,2.340575e+03
4.666906e+02,2.346577e+03
4.695833e+02,2.362396e+03
4.724760e+02,2.361887e+03
4.753687e+02,2.345493e+03
4.782614e+02,2.350967e+03
4.811541e+02,2.358653e+03
4.840468e+02,2.358440e+03
4.869395e+02,2.359041e+03
4.898322e+02,2.344971e+03
4.927249e+02,2.347346e+03
4.956176e+02,2.332635e+03
4.985103e+02,2.370110e+03
5.014030e+02,2.350203e+03
5.042957e+02,2.332381e+03
5.071884e+02,2.337167e+03
5.100811e+02,2.327936e+03
5.129738e+02,2.336694e+03
5.158665e+02,2.344422e+03
5.187592e+02,2.337469e+03
5.216519e+02,2.320336e+03
5.245446e+02,2.313554e+03
5.274373e+02,2.323412e+03
5.303300e+02,2.314917e+03
5.332227e+02,2.308366e+03
5.361154e+02,2.299529e+03
5.390081e+02,2.313751e+03
5.419008e+02,2.298971e+03
5.447935e+02,2.288722e+03
5.476862e+02,2.283921e+03
5.505789e+02,2.284016e+03
5.534716e+02,2.274931e+03
5.563643e+02,2.274496e+03
5.592570e+02,2.274115e+03
5.621497e+02,2.266920e+03
5.650424e+02,2.270984e+03
5.679351e+02,2.274438e+03
5.708278e+02,2.269651e+03
5.737205e+02,2.262453e+03
5.766132e+02,2.265047e+03
5.795059e+02,2.265255e+03
5.823986e+02,2.259260e+03
5.852913e+02,2.268859e+03
5.881840e+02,2.252368e+03
5.910767e+02,2.264218e+03
5.939694e+02,2.266736e+03
5.968621e+02,2.257207e+03
5.997548e+02,2.247866e+03
6.026475e+02,2.263415e+03
6.055402e+02,2.261666e+03
6.084329e+02,2.267691e+03
6.113256e+02,2.263677e+03
6.142183e+02,2.265459e+03
6.171110e+02,2.261497e+03
6.200037e+02,2.249424e+03
6.228964e+02,2.266913e+03
6.257891e+02,2.280740e+03
6.286818e+02,2.277291e+03
6.315745e+02,2.284621e+03
6.344672e+02,2.276925e+03
6.373599e+02,2.262820e+03
6.402526e+02,2.276938e+03
6.431453e+02,2.260647e+03
6.460380e+02,2.262738e+03
6.489307e+02,2.263147e+03
6.518234e+02,2.268792e+03
6.547161e+02,2.255239e+03
6.576088e+02,2.249025e+03
6.605015e+02,2.240877e+03
6.633942e+02,2.223098e+03
6.662869e+02,2.231990e+03
6.691796e+02,2.231645e+03
6.720723e+02,2.222563e+03
6.749650e+02,2.222139e+03
6.778577e+02,2.231031e+03
6.807504e+02,2.205884e+03
6.836431e+02,2.202539e+03
6.865358e+02,2.205042e+03
6.894285e+02,2.196740e+03
6.923212e+02,2.202415e+03
6.952139e+02,2.195467e+03
6.981066e+02,2.204462e+03
7.009993e+02,2.183953e+03
7.038920e+02,2.190095e+03
7.067847e+02,2.181222e+03
7.096774e+02,2.178851e+03
7.125701e+02,2.170408e+03
7.154628e+02,2.186945e+03
7.183555e+02,2.170268e+03
7.212482e+02,2.174948e+03
7.241409e+02,2.188466e+03
7.270336e+02,2.179155e+03
7.299263e+02,2.180269e+03
7.328190e+02,2.187560e+03
7.357117e+02,2.181240e+03
7.386044e+02,2.177443e+03
7.414971e+02,2.152462e+03
7.443898e+02,2.166774e+03
7.472825e+02,2.167168e+03
7.501752e+02,2.165447e+03
7.530679e+02,2.157430e+03
7.559606e+02,2.167127e+03
7.588533e+02,2.159757e+03
7.617460e+02,2.152182e+03
7.646387e+02,2.161378e+03
7.675314e+02,2.154699e+03
7.704241e+02,2.157192e+03
7.733168e+02,2.161527e+03
7.762095e+02,2.163354e+03
7.791022e+02,2.157809e+03
7.819949e+02,2.155761e+03
7.848876e+02,2.153292e+03
7.877803e+02,2.155787e+03
7.906730e+02,2.164002e+03
7.935657e+02,2.161006e+03
7.964584e+02,2.145205e+03
7.993511e+02,2.154653e+03
8.022438e+02,2.126376e+03
8.051365e+02,2.131667e+03
8.080292e+02,2.134727e+03
8.109219e+02,2.134341e+03
8.138146e+02,2.131203e+03
8.167073e+02,2.138238e+03
8.196000e+02,2.131796e+03
8.224927e+02,2.131743e+03
8.253854e+02,2.128889e+03
8.282781e+02,2.132370e+03
8.311708e+02,2.093778e+03
8.340635e+02,2.100062e+03
8.369562e+02,2.106349e+03
8.398489e+02,2.083439e+03
8.427416e+02,2.089327e+03
8.456343e+02,2.077439e+03
8.485270e+02,2.076564e+03
8.514197e+02,2.086205e+03
8.543124e+02,2.086443e+03
8.572051e+02,2.083423e+03
8.600978e+02,2.075152e+03
8.629905e+02,2.081133e+03
8.658832e+02,2.070216e+03
8.687759e+02,2.071247e+03
8.716686e+02,2.069930e+03
8.745613e+02,2.058542e+03
8.774540e+02,2.060862e+03
8.803467e+02,2.067618e+03
8.832394e+02,2.058532e+03
8.861321e+02,2.063890e+03
8.890248e+02,2.054131e+03
8.919175e+02,2.059231e+03
8.948102e+02,2.031696e+03
8.977029e+02,2.031030e+03
9.005956e+02,2.041975e+03
9.034883e+02,2.051115e+03
9.063810e+02,2.033468e+03
9.092737e+02,2.056250e+03
9.121664e+02,2.046326e+03
9.150591e+02,2.039808e+03
9.179518e+02,2.039928e+03
9.208445e+02,2.036438e+03
9.237372e+02,2.035971e+03
9.266299e+02,2.044152e+03
9.295226e+02,2.047856e+03
9.324153e+02,2.045988e+03
9.353080e+02,2.038103e+03
9.382007e+02,2.035055e+03
9.410934e+02,2.021433e+03
9.439861e+02,2.028427e+03
9.468788e+02,2.034606e+03
9.497715e+02,2.021036e+03
9.526642e+02,2.018409e+03
9.555569e+02,2.004010e+03
9.584496e+02,2.025177e+03
9.613423e+02,2.021046e+03
9.642350e+02,2.017889e+03
9.671277e+02,2.000742e+03
9.700204e+02,1.993674e+03
9.729131e+02,1.991064e+03
9.758058e+02,1.995704e+03
9.786985e+02,1.992782e+03
9.815912e+02,1.985057e+03
9.844839e+02,1.976617e+03
9.873766e+02,1.965293e+03
9.902693e+02,1.965083e+03
9.931620e+02,1.982175e+03
9.960547e+02,1.970838e+03
9.989474e+02,1.969467e+03
1.001840e+03,1.950779e+03
1.004733e+03,1.948880e+03
1.007626e+03,1.957755e+03
1.010518e+03,1.950784e+03
1.013411e+03,1.952114e+03
1.016304e+03,1.945578e+03
1.019196e+03,1.951395e+03
1.022089e+03,1.942195e+03
1.024982e+03,1.941393e+03
1.027875e+03,1.936485e+03
1.030767e+03,1.937411e+03
1.033660e+03,1.946141e+03
1.036552e+03,1.952642e+03
1.039445e+03,1.945981e+03
1.042338e+03,1.946136e+03
1.045231e+03,1.940907e+03
1.048123e+03,1.937910e+03
1.051016e+03,1.947607e+03
1.053909e+03,1.950246e+03
1.056802e+03,1.940366e+03
1.059694e+03,1.955658e+03
1.062587e+03,1.955790e+03
1.065479e+03,1.955086e+03
1.068372e+03,1.962707e+03
1.071265e+03,1.967186e+03
1.074158e+03,1.996732e+03
1.077050e+03,1.965586e+03
1.079943e+03,1.977356e+03
1.082836e+03,1.968264e+03
1.085729e+03,1.960872e+03
1.088621e+03,1.987822e+03
1.091514e+03,1.992172e+03
1.094406e+03,1.998757e+03
1.097299e+03,1.991291e+03
1.100192e+03,1.969735e+03
1.103085e+03,1.976993e+03
1.105977e+03,1.977699e+03
1.108870e+03,1.966556e+03
1.111763e+03,1.961126e+03
1.114656e+03,1.966899e+03
1.117548e+03,1.965063e+03
1.120441e+03,1.959287e+03
1.123334e+03,1.958748e+03
1.126226e+03,1.936670e+03
1.129119e+03,1.939228e+03
1.132012e+03,1.938647e+03
1.134904e+03,1.955243e+03
1.137797e+03,1.940965e+03
1.140690e+03,1.948748e+03
1.143583e+03,1.941009e+03
1.146475e+03,1.958722e+03
1.149368e+03,1.948744e+03
1.152261e+03,1.965159e+03
1.155153e+03,1.943738e+03
1.158046e+03,1.954575e+03
1.160939e+03,1.957580e+03
1.163831e+03,1.969916e+03
1.166724e+03,1.956441e+03
1.169617e+03,1.948684e+03
1.172510e+03,1.919500e+03
1.175402e+03,1.914086e+03
1.178295e+03,1.903331e+03
1.181188e+03,1.903422e+03
1.184080e+03,1.876022e+03
1.186973e+03,1.883578e+03
1.189866e+03,1.883557e+03
1.192758e+03,1.902178e+03
1.195651e+03,1.896209e+03
1.198544e+03,1.900036e+03
1.201437e+03,1.875611e+03
1.204329e+03,1.876145e+03
1.207222e+03,1.884993e+03
1.210115e+03,1.882440e+03
1.213007e+03,1.888267e+03
1.215900e+03,1.855394e+03
1.218793e+03,1.855332e+03
1.221685e+03,1.855675e+03
1.224578e+03,1.870542e+03
1.227471e+03,1.875312e+03
1.230364e+03,1.857691e+03
1.233256e+03,1.845234e+03
1.236149e+03,1.842005e+03
1.239042e+03,1.846479e+03
1.241934e+03,1.844806e+03
1.244827e+03,1.844335e+03
1.247720e+03,1.844836e+03
1.250612e+03,1.845646e+03
1.253505e+03,1.853872e+03
1.256398e+03,1.854142e+03
1.259291e+03,1.845560e+03
1.262183e+03,1.835755e+03
1.265076e+03,1.842344e+03
1.267969e+03,1.838514e+03
1.270861e+03,1.840301e+03
1.273754e+03,1.848895e+03
1.276647e+03,1.851055e+03
1.279539e+03,1.852769e+03
1.282432e+03,1.848934e+03
1.285325e+03,1.849965e+03
1.288218e+03,1.855304e+03
1.291110e+03,1.856798e+03
1.294003e+03,1.849765e+03
1.296896e+03,1.847766e+03
1.299788e+03,1.837402e+03
1.302681e+03,1.857537e+03
1.305574e+03,1.864055e+03
1.308466e+03,1.868939e+03
1.311359e+03,1.876366e+03
1.314252e+03,1.886556e+03
1.317145e+03,1.897692e+03
1.320037e+03,1.899728e+03
1.322930e+03,1.892330e+03
1.325823e+03,1.894816e+03
1.328715e+03,1.893873e+03
1.331608e+03,1.880028e+03
1.334501e+03,1.885939e+03
1.337393e+03,1.878266e+03
1.340286e+03,1.875564e+03
1.343179e+03,1.862662e+03
1.346072e+03,1.843654e+03
1.348964e+03,1.828820e+03
1.351857e+03,1.825631e+03
1.354750e+03,1.822297e+03
1.357642e+03,1.817896e+03
1.360535e+03,1.821855e+03
1.363428e+03,1.807162e+03
1.366320e+03,1.816419e+03
1.369213e+03,1.810649e+03
1.372106e+03,1.803838e+03
1.374999e+03,1.805291e+03
1.377891e+03,1.805938e+03
1.380784e+03,1.818097e+03
1.383677e+03,1.786968e+03
1.386569e+03,1.788645e+03
1.389462e+03,1.791010e+03
1.392355e+03,1.782820e+03
1.395247e+03,1.764647e+03
1.398140e+03,1.774660e+03
1.401033e+03,1.779621e+03
1.403926e+03,1.761772e+03
1.406818e+03,1.758740e+03
1.409711e+03,1.759286e+03
1.412604e+03,1.760324e+03
1.415496e+03,1.754605e+03
1.418389e+03,1.761581e+03
1.421282e+03,1.755837e+03
1.424174e+03,1.745396e+03
1.427067e+03,1.756838e+03
1.429960e+03,1.754287e+03
1.432853e+03,1.745815e+03
1.435745e+03,1.740207e+03
1.438638e+03,1.743631e+03
1.441531e+03,1.744492e+03
1.444423e+03,1.737129e+03
1.447316e+03,1.721208e+03
1.450209e+03,1.718242e+03
1.453101e+03,1.724860e+03
1.455994e+03,1.718047e+03
1.458887e+03,1.709849e+03
1.461780e+03,1.707058e+03
1.464672e+03,1.710683e+03
1.467565e+03,1.696290e+03
1.470458e+03,1.698359e+03
1.473350e+03,1.697757e+03
1.476243e+03,1.700719e+03
1.479136e+03,1.695384e+03
1.482028e+03,1.699070e+03
1.484921e+03,1.694119e+03
1.487814e+03,1.701656e+03
1.490707e+03,1.676443e+03
1.493599e+03,1.689428e+03
1.496492e+03,1.693955e+03
1.499385e+03,1.683452e+03
1.502277e+03,1.682420e+03
1.505170e+03,1.687125e+03
1.508063e+03,1.681102e+03
1.510955e+03,1.669654e+03
1.513848e+03,1.686320e+03
1.516741e+03,1.673945e+03
1.519634e+03,1.675422e+03
1.522526e+03,1.670049e+03
1.525419e+03,1.671675e+03
1.528312e+03,1.659403e+03
1.531204e+03,1.649043e+03
1.534097e+03,1.640046e+03
1.536990e+03,1.642876e+03
1.539882e+03,1.653086e+03
1.542775e+03,1.647763e+03
1.545668e+03,1.638624e+03
1.548561e+03,1.651068e+03
1.551453e+03,1.660750e+03
1.554346e+03,1.655003e+03
1.557239e+03,1.648905e+03
1.560131e+03,1.641291e+03
1.563024e+03,1.664843e+03
1.565917e+03,1.664927e+03
1.568809e+03,1.660062e+03
1.571702e+03,1.664072e+03
1.574595e+03,1.671630e+03
1.577488e+03,1.682276e+03
1.580380e+03,1.677283e+03
1.583273e+03,1.671219e+03
1.586166e+03,1.668072e+03
1.589058e+03,1.653320e+03
1.591951e+03,1.648119e+03
1.594844e+03,1.649134e+03
1.597736e+03,1.643929e+03
1.600629e+03,1.653338e+03
1.603522e+03,1.645315e+03
1.606415e+03,1.641827e+03
1.609307e+03,1.636981e+03
1.612200e+03,1.651590e+03
1.615093e+03,1.639583e+03
1.617985e+03,1.626672e+03
1.620878e+03,1.610751e+03
1.623771e+03,1.593820e+03
1.626663e+03,1.581899e+03
1.629556e+03,1.595432e+03
1.632449e+03,1.580313e+03
1.635342e+03,1.587183e+03
1.638234e+03,1.587211e+03
1.641127e+03,1.577590e+03
1.644020e+03,1.595730e+03
1.646912e+03,1.586514e+03
1.649805e+03,1.568200e+03
1.652698e+03,1.571627e+03
1.655590e+03,1.578998e+03
1.658483e+03,1.578145e+03
1.661376e+03,1.554252e+03
1.664269e+03,1.553630e+03
1.667161e+03,1.572543e+03
1.670054e+03,1.548810e+03
1.672947e+03,1.552948e+03
1.675839e+03,1.558997e+03
1.678732e+03,1.545489e+03
1.681625e+03,1.541746e+03
1.684517e+03,1.538795e+03
1.687410e+03,1.524787e+03
1.690303e+03,1.527500e+03
1.693196e+03,1.522995e+03
1.696088e+03,1.515598e+03
1.698981e+03,1.509966e+03
1.701874e+03,1.511502e+03
1.704766e+03,1.518754e+03
1.707659e+03,1.507917e+03
1.710552e+03,1.512059e+03
1.713444e+03,1.514120e+03
1.716337e+03,1.509860e+03
1.719230e+03,1.515267e+03
1.722123e+03,1.524642e+03
1.725015e+03,1.529656e+03
1.727908e+03,1.514687e+03
1.730801e+03,1.500102e+03
1.733693e+03,1.507349e+03
1.736586e+03,1.504013e+03
1.739479e+03,1.489938e+03
1.742371e+03,1.488642e+03
1.745264e+03,1.479311e+03
1.748157e+03,1.473644e+03
1.751050e+03,1.488272e+03
1.753942e+03,1.478331e+03
1.756835e+03,1.472612e+03
1.759728e+03,1.462768e+03
1.762620e+03,1.455452e+03
1.765513e+03,1.451012e+03
1.768406e+03,1.447128e+03
1.771298e+03,1.453128e+03
1.774191e+03,1.458753e+03
1.777084e+03,1.460563e+03
1.779977e+03,1.455254e+03
1.782869e+03,1.444750e+03
1.785762e+03,1.448706e+03
1.788655e+03,1.438390e+03
1.791547e+03,1.440109e+03
1.794440e+03,1.442290e+03
1.797333e+03,1.433424e+03
1.800225e+03,1.435376e+03
1.803118e+03,1.439765e+03
1.806011e+03,1.427893e+03
1.808904e+03,1.421847e+03
1.811796e+03,1.429388e+03
1.814689e+03,1.430060e+03
1.817582e+03,1.419881e+03
1.820474e+03,1.422115e+03
1.823367e+03,1.427993e+03
1.826260e+03,1.405267e+03
1.829152e+03,1.410092e+03
1.832045e+03,1.390278e+03
1.834938e+03,1.404437e+03
1.837831e+03,1.398158e+03
1.840723e+03,1.398054e+03
1.843616e+03,1.395057e+03
1.846509e+03,1.390885e+03
1.849401e+03,1.383921e+03
1.852294e+03,1.374150e+03
1.855187e+03,1.362595e+03
1.858079e+03,1.370147e+03
1.860972e+03,1.367979e+03
1.863865e+03,1.361596e+03
1.866758e+03,1.370831e+03
1.869650e+03,1.360513e+03
1.872543e+03,1.358635e+03
1.875436e+03,1.371587e+03
1.878328e+03,1.349623e+03
1.881221e+03,1.363638e+03
1.884114e+03,1.340178e+03
1.887006e+03,1.348894e+03
1.889899e+03,1.342424e+03
1.892792e+03,1.350400e+03
1.895685e+03,1.338470e+03
1.898577e+03,1.336878e+03
1.901470e+03,1.346799e+03
1.904363e+03,1.337214e+03
1.907255e+03,1.341398e+03
1.910148e+03,1.343736e+03
1.913041e+03,1.320468e+03
1.915933e+03,1.321303e+03
1.918826e+03,1.315610e+03
1.921719e+03,1.315613e+03
1.924612e+03,1.299194e+03
1.927504e+03,1.318148e+03
1.930397e+03,1.314446e+03
1.933290e+03,1.297273e+03
1.936182e+03,1.295256e+03
1.939075e+03,1.293271e+03
1.941968e+03,1.288289e+03
1.944860e+03,1.286271e+03
1.947753e+03,1.278608e+03
1.950646e+03,1.279832e+03
1.953539e+03,1.286613e+03
1.956431e+03,1.273961e+03
1.959324e+03,1.279032e+03
1.962217e+03,1.276212e+03
1.965109e+03,1.270173e+03
1.968002e+03,1.270512e+03
1.970895e+03,1.282621e+03
1.973787e+03,1.249488e+03
1.976680e+03,1.262355e+03
1.979573e+03,1.254498e+03
1.982466e+03,1.268902e+03
1.985358e+03,1.259695e+03
1.988251e+03,1.253009e+03
1.991144e+03,1.233487e+03
1.994036e+03,1.231497e+03
1.996929e+03,1.250147e+03
1.999822e+03,1.248263e+03
2.002714e+03,1.233533e+03
2.005607e+03,1.230723e+03
2.008500e+03,1.226647e+03
2.011393e+03,1.207644e+03
2.014285e+03,1.215417e+03
2.017178e+03,1.221467e+03
2.020071e+03,1.207150e+03
2.022963e+03,1.197447e+03
2.025856e+03,1.220685e+03
2.028749e+03,1.225461e+03
2.031641e+03,1.212953e+03
2.034534e+03,1.210939e+03
2.037427e+03,1.212708e+03
2.040320e+03,1.196547e+03
2.043212e+03,1.198005e+03
2.046105e+03,1.185105e+03
2.048998e+03,1.174868e+03
2.051890e+03,1.184006e+03
2.054783e+03,1.183127e+03
2.057676e+03,1.190514e+03
2.060568e+03,1.179122e+03
2.063461e+03,1.177932e+03
2.066354e+03,1.180262e+03
2.069247e+03,1.158809e+03
2.072139e+03,1.158732e+03
2.075032e+03,1.159210e+03
2.077925e+03,1.154634e+03
2.080817e+03,1.158995e+03
2.083710e+03,1.141951e+03
2.086603e+03,1.138450e+03
2.089496e+03,1.144958e+03
2.092388e+03,1.142958e+03
2.095281e+03,1.127555e+03
2.098174e+03,1.151572e+03
2.101066e+03,1.142876e+03
2.103959e+03,1.115246e+03
2.106852e+03,1.125760e+03
2.109744e+03,1.143375e+03
2.112637e+03,1.116065e+03
2.115530e+03,1.127143e+03
2.118422e+03,1.100430e+03
2.121315e+03,1.106842e+03
2.124208e+03,1.122508e+03
2.127101e+03,1.084846e+03
2.129993e+03,1.112227e+03
2.132886e+03,1.096599e+03
2.135779e+03,1.117018e+03
2.138671e+03,1.109655e+03
2.141564e+03,1.095781e+03
2.144457e+03,1.088694e+03
2.147350e+03,1.092763e+03
2.150242e+03,1.088411e+03
2.153135e+03,1.098225e+03
2.156028e+03,1.075233e+03
2.158920e+03,1.062044e+03
2.161813e+03,1.080963e+03
2.164706e+03,1.077684e+03
2.167598e+03,1.076334e+03
2.170491e+03,1.073073e+03
2.173384e+03,1.072059e+03
2.176277e+03,1.057050e+03
2.179169e+03,1.068735e+03
2.182062e+03,1.059762e+03
2.184955e+03,1.064349e+03
2.187847e+03,1.069259e+03
2.190740e+03,1.055985e+03
2.193633e+03,1.053253e+03
2.196525e+03,1.049388e+03
2.199418e+03,1.043756e+03
2.202311e+03,1.049276e+03
2.205204e+03,1.034988e+03
2.208096e+03,1.035311e+03
2.210989e+03,1.020446e+03
2.213882e+03,1.020660e+03
2.216774e+03,1.032266e+03
2.219667e+03,1.020465e+03
2.222560e+03,1.038303e+03
2.225452e+03,1.017968e+03
2.228345e+03,1.012477e+03
2.231238e+03,1.022968e+03
2.234131e+03,1.005667e+03
2.237023e+03,1.006472e+03
2.239916e+03,1.009680e+03
2.242809e+03,1.000977e+03
2.245701e+03,1.008562e+03
2.248594e+03,9.955833e+02
2.251487e+03,1.006952e+03
2.254379e+03,9.888615e+02
2.257272e+03,9.879788e+02
2.260165e+03,9.794056e+02
2.263058e+03,9.942201e+02
2.265950e+03,9.895901e+02
2.268843e+03,9.814240e+02
2.271736e+03,9.701094e+02
2.274628e+03,9.711668e+02
2.277521e+03,9.811154e+02
2.280414e+03,9.712216e+02
2.283306e+03,9.742132e+02
2.286199e+03,9.570704e+02
2.289092e+03,9.533840e+02
2.291985e+03,9.657910e+02
2.294877e+03,9.563102e+02
2.297770e+03,9.610344e+02
2.300663e+03,9.669827e+02
2.303555e+03,9.469005e+02
2.306448e+03,9.316818e+02
2.309341e+03,9.429192e+02
2.312233e+03,9.424631e+02
2.315126e+03,9.478679e+02
2.318019e+03,9.339037e+02
2.320912e+03,9.414344e+02
2.323804e+03,9.274944e+02
2.326697e+03,9.373045e+02
2.329590e+03,9.368348e+02
2.332482e+03,9.245134e+02
2.335375e+03,9.309133e+02
2.338268e+03,9.307845e+02
2.341160e+03,9.178259e+02
2.344053e+03,9.246921e+02
2.346946e+03,9.357637e+02
2.349839e+03,9.176375e+02
2.352731e+03,9.158945e+02
2.355624e+03,9.186376e+02
2.358517e+03,9.190684e+02
2.361409e+03,8.997457e+02
2.364302e+03,8.966265e+02
2.367195e+03,9.093613e+02
2.370087e+03,8.991667e+02
2.372980e+03,9.033295e+02
2.375873e+03,9.024837e+02
2.378766e+03,8.989407e+02
2.381658e+03,8.971317e+02
2.384551e+03,8.822571e+02
2.387444e+03,8.819627e+02
2.390336e+03,8.825731e+02
2.393229e+03,8.869817e+02
2.396122e+03,8.730277e+02
2.399014e+03,8.690590e+02
2.401907e+03,8.737604e+02
2.404800e+03,8.666033e+02
2.407693e+03,8.609606e+02
2.410585e+03,8.661074e+02
2.413478e+03,8.608756e+02
2.416371e+03,8.547450e+02
2.419263e+03,8.564025e+02
2.422156e+03,8.451302e+02
2.425049e+03,8.461650e+02
2.427941e+03,8.610497e+02
2.430834e+03,8.369846e+02
2.433727e+03,8.466117e+02
2.436620e+03,8.524397e+02
2.439512e+03,8.406970e+02
2.442405e+03,8.323770e+02
2.445298e+03,8.530442e+02
2.448190e+03,8.396844e+02
2.451083e+03,8.331529e+02
2.453976e+03,8.432535e+02
2.456868e+03,8.262847e+02
2.459761e+03,8.174424e+02
2.462654e+03,8.099782e+02
2.465547e+03,8.161454e+02
2.468439e+03,8.154491e+02
2.471332e+03,8.211481e+02
2.474225e+03,8.222350e+02
2.477117e+03,8.129300e+02
2.480010e+03,8.210139e+02
2.482903e+03,8.132999e+02
2.485795e+03,8.233328e+02
2.488688e+03,8.254671e+02
2.491581e+03,8.163437e+02
2.494474e+03,8.022214e+02
2.497366e+03,8.234410e+02
2.500259e+03,8.228685e+02
2.503152e+03,8.147425e+02
2.506044e+03,8.272951e+02
2.508937e+03,8.110564e+02
2.511830e+03,7.999362e+02
2.514722e+03,7.952458e+02
2.517615e+03,8.007990e+02
2.520508e+03,7.936620e+02
2.523401e+03,8.054396e+02
2.526293e+03,7.966842e+02
2.529186e+03,7.805814e+02
2.532079e+03,8.027745e+02
2.534971e+03,7.864736e+02
2.537864e+03,7.821246e+02
2.540757e+03,7.908483e+02
2.543649e+03,7.969352e+02
2.546542e+03,7.976887e+02
2.549435e+03,7.810194e+02
2.552328e+03,7.877570e+02
2.555220e+03,8.009121e+02
2.558113e+03,7.731133e+02
2.561006e+03,7.799081e+02
2.563898e+03,7.736193e+02
2.566791e+03,7.736054e+02
2.569684e+03,7.701677e+02
2.572576e+03,7.503384e+02
2.575469e+03,7.694131e+02
2.578362e+03,7.674399e+02
2.581255e+03,7.473607e+02
2.584147e+03,7.658301e+02
2.587040e+03,7.485595e+02
2.589933e+03,7.637430e+02
2.592825e+03,7.332988e+02
2.595718e+03,7.534341e+02
2.598611e+03,7.558867e+02
2.601503e+03,7.562705e+02
2.604396e+03,7.453737e+02
2.607289e+03,7.554617e+02
2.610182e+03,7.520085e+02
2.613074e+03,7.337186e+02
2.615967e+03,7.253302e+02
2.618860e+03,7.279963e+02
2.621752e+03,7.379550e+02
2.624645e+03,7.221854e+02
2.627538e+03,7.394644e+02
2.630430e+03,7.336116e+02
2.633323e+03,7.399758e+02
2.636216e+03,7.286458e+02
2.639109e+03,7.464785e+02
2.642001e+03,7.423630e+02
2.644894e+03,7.344210e+02
2.647787e+03,7.341064e+02
2.650679e+03,7.296956e+02
2.653572e+03,7.477714e+02
2.656465e+03,7.244821e+02
2.659357e+03,7.393870e+02
2.662250e+03,7.324703e+02
2.665143e+03,7.200114e+02
2.668036e+03,7.372119e+02
2.670928e+03,7.299820e+02
2.673821e+03,7.180821e+02
2.676714e+03,7.163132e+02
2.679606e+03,7.143751e+02
2.682499e+03,7.163075e+02
2.685392e+03,7.204474e+02
2.688284e+03,7.147650e+02
2.691177e+03,7.123230e+02
2.694070e+03,7.077395e+02
2.696963e+03,7.086155e+02
2.699855e+03,7.064000e+02
2.702748e+03,6.923307e+02
2.705641e+03,6.986934e+02
2.708533e+03,7.033499e+02
2.711426e+03,6.977940e+02
2.714319e+03,6.988583e+02
2.717211e+03,7.059987e+02
2.720104e+03,6.997211e+02
2.722997e+03,7.051991e+02
2.725890e+03,6.864690e+02
2.728782e+03,7.045519e+02
2.731675e+03,6.783988e+02
2.734568e+03,6.751412e+02
2.737460e+03,6.806545e+02
2.740353e+03,6.892938e+02
2.743246e+03,6.793021e+02
2.746138e+03,6.891329e+02
2.749031e+03,6.735406e+02
2.751924e+03,6.750922e+02
2.754817e+03,6.856282e+02
2.757709e+03,6.646913e+02
2.760602e+03,6.742097e+02
2.763495e+03,6.762258e+02
2.766387e+03,6.687039e+02
2.769280e+03,6.802643e+02
2.772173e+03,6.725189e+02
2.775065e+03,6.574294e+02
2.777958e+03,6.696658e+02
2.780851e+03,6.698486e+02
2.783744e+03,6.551476e+02
2.786636e+03,6.778762e+02
2.789529e+03,6.818055e+02
2.792422e+03,6.707451e+02
2.795314e+03,6.739071e+02
2.798207e+03,6.676580e+02
2.801100e+03,6.719588e+02
2.803992e+03,6.635263e+02
2.806885e+03,6.679246e+02
2.809778e+03,6.683621e+02
2.812671e+03,6.813659e+02
2.815563e+03,6.567064e+02
2.818456e+03,6.521731e+02
2.821349e+03,6.591936e+02
2.824241e+03,6.588439e+02
2.827134e+03,6.776802e+02
2.830027e+03,6.687013e+02
2.832919e+03,6.667933e+02
2.835812e+03,6.651428e+02
2.838705e+03,6.549030e+02
2.841598e+03,6.533513e+02
2.844490e+03,6.594178e+02
2.847383e+03,6.629989e+02
2.850276e+03,6.709577e+02
2.853168e+03,6.644847e+02
2.856061e+03,6.812507e+02
2.858954e+03,6.596235e+02
2.861846e+03,6.780223e+02
2.864739e+03,6.653245e+02
2.867632e+03,6.825760e+02
2.870525e+03,6.735854e+02
2.873417e+03,6.863342e+02
2.876310e+03,6.769757e+02
2.879203e+03,6.668707e+02
2.882095e+03,6.777391e+02
2.884988e+03,6.790321e+02
2.887881e+03,6.806706e+02
2.890773e+03,6.821649e+02
2.893666e+03,6.734116e+02
2.896559e+03,6.801370e+02
2.899452e+03,6.721227e+02
2.902344e+03,6.837919e+02
2.905237e+03,6.619362e+02
2.908130e+03,6.481518e+02
2.911022e+03,6.760104e+02
2.913915e+03,6.482468e+02
2.916808e+03,6.513119e+02
2.919700e+03,6.328373e+02
2.922593e+03,6.364127e+02
2.925486e+03,6.441117e+02
2.928379e+03,6.354032e+02
2.931271e+03,6.538851e+02
2.934164e+03,6.467617e+02
2.937057e+03,6.344779e+02
2.939949e+03,6.432209e+02
2.942842e+03,6.308949e+02
2.945735e+03,6.383316e+02
2.948627e+03,6.239271e+02
2.951520e+03,6.446146e+02
2.954413e+03,6.485919e+02
2.957306e+03,6.843561e+02
2.960198e+03,6.358478e+02
2.963091e+03,6.302160e+02
2.965984e+03,6.480757e+02
2.968876e+03,6.072019e+02
2.971769e+03,6.170917e+02
2.974662e+03,6.375807e+02
2.977554e+03,5.974468e+02
2.980447e+03,6.362910e+02
2.983340e+03,6.130808e+02
2.986233e+03,6.031719e+02
2.989125e+03,6.015876e+02
2.992018e+03,6.120468e+02
2.994911e+03,5.904301e+02
2.997803e+03,6.088709e+02
3.000696e+03,5.809547e+02
3.003589e+03,6.089110e+02
3.006481e+03,6.155491e+02
3.009374e+03,5.763693e+02
3.012267e+03,5.811862e+02
3.015160e+03,5.993867e+02
3.018052e+03,5.769576e+02
3.020945e+03,6.154969e+02
3.023838e+03,5.807841e+02
3.026730e+03,5.767394e+02
3.029623e+03,6.046928e+02
3.032516e+03,5.783090e+02
3.035408e+03,5.610164e+02
3.038301e+03,5.958770e+02
3.041194e+03,5.733488e+02
3.044087e+03,5.816888e+02
3.046979e+03,6.294483e+02
3.049872e+03,5.691686e+02
3.052765e+03,5.999147e+02
3.055657e+03,5.733972e+02
3.058550e+03,5.876163e+02
3.061443e+03,6.060878e+02
3.064335e+03,5.785493e+02
3.067228e+03,5.800836e+02
3.070121e+03,6.085342e+02
3.073014e+03,5.692939e+02
3.075906e+03,5.992961e+02
3.078799e+03,6.155922e+02
3.081692e+03,6.016425e+02
3.084584e+03,5.482914e+02
3.087477e+03,5.906780e+02
3.090370e+03,6.281311e+02
3.093262e+03,5.490995e+02
3.096155e+03,5.648743e+02
3.099048e+03,5.724551e+02
3.101941e+03,5.818238e+02
3.104833e+03,5.594194e+02
3.107726e+03,5.637520e+02
3.110619e+03,5.637137e+02
3.113511e+03,5.923961e+02
3.116404e+03,6.015826e+02
3.119297e+03,5.835949e+02
3.122189e+03,5.767692e+02
3.125082e+03,5.777208e+02
3.127975e+03,5.841396e+02
3.130868e+03,5.697393e+02
3.133760e+03,5.898791e+02
3.136653e+03,5.468909e+02
3.139546e+03,5.962797e+02
3.142438e+03,5.960012e+02
3.145331e+03,5.420413e+02
3.148224e+03,5.740313e+02
3.151116e+03,5.863282e+02
3.154009e+03,5.942230e+02
3.156902e+03,5.941639e+02
3.159795e+03,5.172195e+02
3.162687e+03,5.572635e+02
3.165580e+03,6.170128e+02
3.168473e+03,5.893527e+02
3.171365e+03,5.637357e+02
3.174258e+03,5.663646e+02
3.177151e+03,5.612809e+02
3.180043e+03,5.947245e+02
3.182936e+03,6.081342e+02
3.185829e+03,5.498589e+02
3.188722e+03,5.522800e+02
3.191614e+03,5.932078e+02
3.194507e+03,5.781609e+02
3.197400e+03,5.472997e+02
3.200292e+03,6.295883e+02
3.203185e+03,0.000000e+00
3.206078e+03,0.000000e+00
3.208970e+03,0.000000e+00
3.211863e+03,0.000000e+00
3.214756e+03,0.000000e+00
3.217649e+03,0.000000e+00
3.220541e+03,0.000000e+00
3.223434e+03,0.000000e+00
3.226327e+03,0.000000e+00
3.229219e+03,0.000000e+00
3.232112e+03,0.000000e+00
3.235005e+03,0.000000e+00
3.237897e+03,0.000000e+00
3.240790e+03,0.000000e+00
3.243683e+03,0.000000e+00
3.246576e+03,0.000000e+00
3.249468e+03,0.000000e+00
3.252361e+03,0.000000e+00
3.255254e+03,0.000000e+00
3.258146e+03,0.000000e+00
3.261039e+03,0.000000e+00
3.263932e+03,0.000000e+00
3.266824e+03,0.000000e+00
3.269717e+03,0.000000e+00
3.272610e+03,0.000000e+00
3.275503e+03,0.000000e+00
3.278395e+03,0.000000e+00
3.281288e+03,0.000000e+00
3.284181e+03,0.000000e+00
3.287073e+03,0.000000e+00
3.289966e+03,0.000000e+00
3.292859e+03,0.000000e+00
3.295751e+03,0.000000e+00
3.298644e+03,0.000000e+00
3.301537e+03,0.000000e+00
3.304430e+03,0.000000e+00
3.307322e+03,0.000000e+00
3.310215e+03,0.000000e+00
3.313108e+03,0.000000e+00
3.316000e+03,0.000000e+00
3.318893e+03,0.000000e+00
3.321786e+03,0.000000e+00
3.324678e+03,0.000000e+00
3.327571e+03,0.000000e+00
3.330464e+03,0.000000e+00
3.333357e+03,0.000000e+00
3.336249e+03,0.000000e+00
3.339142e+03,0.000000e+00
3.342035e+03,0.000000e+00
3.344927e+03,0.000000e+00
3.347820e+03,0.000000e+00
3.350713e+03,0.000000e+00
3.353605e+03,0.000000e+00
3.356498e+03,0.000000e+00
3.359391e+03,0.000000e+00
3.362284e+03,0.000000e+00
3.365176e+03,0.000000e+00
3.368069e+03,0.000000e+00
3.370962e+03,0.000000e+00
3.373854e+03,0.000000e+00
3.376747e+03,0.000000e+00
3.379640e+03,0.000000e+00
3.382532e+03,0.000000e+00
3.385425e+03,0.000000e+00
3.388318e+03,0.000000e+00
3.391211e+03,0.000000e+00
3.394103e+03,0.000000e+00
3.396996e+03,0.000000e+00
3.399889e+03,0.000000e+00
3.402781e+03,0.000000e+00
3.405674e+03,0.000000e+00
3.408567e+03,0.000000e+00
3.411459e+03,0.000000e+00
3.414352e+03,0.000000e+00
3.417245e+03,0.000000e+00
3.420138e+03,0.000000e+00
3.423030e+03,0.000000e+00
3.425923e+03,0.000000e+00
3.428816e+03,0.000000e+00
3.431708e+03,0.000000e+00
3.434601e+03,0.000000e+00
3.437494e+03,0.000000e+00
3.440386e+03,0.000000e+00
3.443279e+03,0.000000e+00
3.446172e+03,0.000000e+00
3.449065e+03,0.000000e+00
3.451957e+03,0.000000e+00
3.454850e+03,0.000000e+00
3.457743e+03,0.000000e+00
3.460635e+03,0.000000e+00
3.463528e+03,0.000000e+00
3.466421e+03,0.000000e+00
3.469313e+03,0.000000e+00
3.472206e+03,0.000000e+00
3.475099e+03,0.000000e+00
3.477992e+03,0.000000e+00
3.480884e+03,0.000000e+00
3.483777e+03,0.000000e+00
3.486670e+03,0.000000e+00
3.489563e+03,0.000000e+00
3.492455e+03,0.000000e+00
3.495348e+03,0.000000e+00
3.498240e+03,0.000000e+00
3.500169e+03,0.000000e+00