File: RAMAN_data/12022024_r1/black fibre5.CSV
9.931763e+01,0.000000e+00
1.022103e+02,0.000000e+00
1.051030e+02,0.000000e+00
1.079957e+02,0.000000e+00
1.108884e+02,0.000000e+00
1.137811e+02,0.000000e+00
1.166738e+02,0.000000e+00
1.195665e+02,0.000000e+00
1.224592e+02,0.000000e+00
1.253519e+02,0.000000e+00
1.282446e+02,0.000000e+00
1.311373e+02,0.000000e+00
1.340300e+02,0.000000e+00
1.369227e+02,0.000000e+00
1.398154e+02,0.000000e+00
1.427081e+02,0.000000e+00
1.456008e+02,0.000000e+00
1.484935e+02,0.000000e+00
1.513862e+02,0.000000e+00
1.542789e+02,0.000000e+00
1.571716e+02,0.000000e+00
1.600643e+02,0.000000e+00
1.629570e+02,0.000000e+00
1.658497e+02,0.000000e+00
1.687424e+02,0.000000e+00
1.716351e+02,0.000000e+00
1.745278e+02,0.000000e+00
1.774205e+02,0.000000e+00
1.803132e+02,0.000000e+00
1.832059e+02,0.000000e+00
1.860986e+02,0.000000e+00
1.889913e+02,0.000000e+00
1.918840e+02,0.000000e+00
1.947767e+02,0.000000e+00
1.976694e+02,0.000000e+00
2.005621e+02,5.207294e+03
2.034548e+02,5.210921e+03
2.063475e+02,5.227722e+03
2.092402e+02,5.207939e+03
2.121329e+02,5.201004e+03
2.150256e+02,5.214567e+03
2.179183e+02,5.222740e+03
2.208110e+02,5.230843e+03
2.237037e+02,5.218564e+03
2.265964e+02,5.191758e+03
2.294892e+02,5.197982e+03
2.323819e+02,5.201921e+03
2.352746e+02,5.223482e+03
2.381673e+02,5.208666e+03
2.410600e+02,5.206945e+03
2.439527e+02,5.204725e+03
2.468454e+02,5.194642e+03
2.497381e+02,5.225703e+03
2.526308e+02,5.242086e+03
2.555235e+02,5.231021e+03
2.584161e+02,5.214971e+03
2.613088e+02,5.216713e+03
2.642015e+02,5.241634e+03
2.670942e+02,5.232329e+03
2.699869e+02,5.239537e+03
2.728796e+02,5.222981e+03
2.757723e+02,5.246139e+03
2.786650e+02,5.263777e+03
2.815577e+02,5.237608e+03
2.844504e+02,5.267069e+03
2.873431e+02,5.249300e+03
2.902358e+02,5.248195e+03
2.931285e+02,5.237244e+03
2.960212e+02,5.241550e+03
2.989139e+02,5.257825e+03
3.018066e+02,5.235221e+03
3.046993e+02,5.242025e+03
3.075920e+02,5.206764e+03
3.104847e+02,5.238876e+03
3.133774e+02,5.220746e+03
3.162701e+02,5.237656e+03
3.191628e+02,5.223240e+03
3.220555e+02,5.227456e+03
3.249482e+02,5.230535e+03
3.278409e+02,5.221252e+03
3.307336e+02,5.214721e+03
3.336263e+02,5.234354e+03
3.365190e+02,5.219977e+03
3.394117e+02,5.213917e+03
3.423044e+02,5.209532e+03
3.451971e+02,5.222682e+03
3.480898e+02,5.194142e+03
3.509825e+02,5.174951e+03
3.538752e+02,5.180386e+03
3.567680e+02,5.211553e+03
3.596607e+02,5.209652e+03
3.625534e+02,5.207783e+03
3.654461e+02,5.186437e+03
3.683388e+02,5.189047e+03
3.712315e+02,5.200028e+03
3.741242e+02,5.192916e+03
3.770169e+02,5.207138e+03
3.799096e+02,5.208937e+03
3.828023e+02,5.170069e+03
3.856950e+02,5.148124e+03
3.885877e+02,5.168016e+03
3.914804e+02,5.167112e+03
3.943731e+02,5.159070e+03
3.972658e+02,5.159480e+03
4.001585e+02,5.137895e+03
4.030512e+02,5.147024e+03
4.059439e+02,5.138133e+03
4.088366e+02,5.135764e+03
4.117293e+02,5.133716e+03
4.146220e+02,5.138850e+03
4.175147e+02,5.148831e+03
4.204074e+02,5.157240e+03
4.233001e+02,5.147798e+03
4.261928e+02,5.129368e+03
4.290855e+02,5.123801e+03
4.319782e+02,5.117212e+03
4.348709e+02,5.133728e+03
4.377636e+02,5.120352e+03
4.406563e+02,5.118450e+03
4.435490e+02,5.084778e+03
4.464417e+02,5.100573e+03
4.493344e+02,5.105791e+03
4.522271e+02,5.096197e+03
4.551198e+02,5.077000e+03
4.580125e+02,5.073496e+03
4.609052e+02,5.055904e+03
4.637979e+02,5.047718e+03
4.666906e+02,5.040238e+03
4.695833e+02,5.042064e+03
4.724760e+02,5.009787e+03
4.753687e+02,5.026245e+03
4.782614e+02,5.004271e+03
4.811541e+02,5.009792e+03
4.840468e+02,5.022484e+03
4.869395e+02,5.002284e+03
4.898322e+02,4.985958e+03
4.927249e+02,4.983514e+03
4.956176e+02,5.006194e+03
4.985103e+02,4.984372e+03
5.014030e+02,4.993065e+03
5.042957e+02,4.995563e+03
5.071884e+02,4.962779e+03
5.100811e+02,4.955236e+03
5.129738e+02,4.985227e+03
5.158665e+02,4.998409e+03
5.187592e+02,4.969298e+03
5.216519e+02,4.949420e+03
5.245446e+02,4.945077e+03
5.274373e+02,4.952909e+03
5.303300e+02,4.950212e+03
5.332227e+02,4.925583e+03
5.361154e+02,4.914595e+03
5.390081e+02,4.908709e+03
5.419008e+02,4.928690e+03
5.447935e+02,4.922297e+03
5.476862e+02,4.926727e+03
5.505789e+02,4.899905e+03
5.534716e+02,4.877446e+03
5.563643e+02,4.879721e+03
5.592570e+02,4.881635e+03
5.621497e+02,4.874412e+03
5.650424e+02,4.863233e+03
5.679351e+02,4.858604e+03
5.708278e+02,4.861164e+03
5.737205e+02,4.859511e+03
5.766132e+02,4.879178e+03
5.795059e+02,4.849920e+03
5.823986e+02,4.853317e+03
5.852913e+02,4.836815e+03
5.881840e+02,4.823559e+03
5.910767e+02,4.824146e+03
5.939694e+02,4.826675e+03
5.968621e+02,4.814852e+03
5.997548e+02,4.816448e+03
6.026475e+02,4.821626e+03
6.055402e+02,4.795959e+03
6.084329e+02,4.807843e+03
6.113256e+02,4.787559e+03
6.142183e+02,4.755756e+03
6.171110e+02,4.774111e+03
6.200037e+02,4.737850e+03
6.228964e+02,4.752221e+03
6.257891e+02,4.774369e+03
6.286818e+02,4.768466e+03
6.315745e+02,4.747782e+03
6.344672e+02,4.729737e+03
6.373599e+02,4.733830e+03
6.402526e+02,4.705940e+03
6.431453e+02,4.707655e+03
6.460380e+02,4.677138e+03
6.489307e+02,4.702003e+03
6.518234e+02,4.695098e+03
6.547161e+02,4.682979e+03
6.576088e+02,4.680764e+03
6.605015e+02,4.682842e+03
6.633942e+02,4.658125e+03
6.662869e+02,4.670542e+03
6.691796e+02,4.679272e+03
6.720723e+02,4.665329e+03
6.749650e+02,4.646192e+03
6.778577e+02,4.617719e+03
6.807504e+02,4.635765e+03
6.836431e+02,4.633750e+03
6.865358e+02,4.627000e+03
6.894285e+02,4.603752e+03
6.923212e+02,4.609756e+03
6.952139e+02,4.584733e+03
6.981066e+02,4.601825e+03
7.009993e+02,4.595557e+03
7.038920e+02,4.577472e+03
7.067847e+02,4.556045e+03
7.096774e+02,4.568204e+03
7.125701e+02,4.575787e+03
7.154628e+02,4.561237e+03
7.183555e+02,4.579558e+03
7.212482e+02,4.554975e+03
7.241409e+02,4.548189e+03
7.270336e+02,4.543695e+03
7.299263e+02,4.551139e+03
7.328190e+02,4.536936e+03
7.357117e+02,4.544421e+03
7.386044e+02,4.529805e+03
7.414971e+02,4.532925e+03
7.443898e+02,4.514349e+03
7.472825e+02,4.522188e+03
7.501752e+02,4.510410e+03
7.530679e+02,4.494822e+03
7.559606e+02,4.473988e+03
7.588533e+02,4.470337e+03
7.617460e+02,4.469792e+03
7.646387e+02,4.440758e+03
7.675314e+02,4.445958e+03
7.704241e+02,4.430747e+03
7.733168e+02,4.429637e+03
7.762095e+02,4.430878e+03
7.791022e+02,4.436322e+03
7.819949e+02,4.417729e+03
7.848876e+02,4.428241e+03
7.877803e+02,4.406338e+03
7.906730e+02,4.394908e+03
7.935657e+02,4.408886e+03
7.964584e+02,4.404512e+03
7.993511e+02,4.357397e+03
8.022438e+02,4.384611e+03
8.051365e+02,4.365474e+03
8.080292e+02,4.378922e+03
8.109219e+02,4.388079e+03
8.138146e+02,4.358248e+03
8.167073e+02,4.380833e+03
8.196000e+02,4.336657e+03
8.224927e+02,4.352804e+03
8.253854e+02,4.343133e+03
8.282781e+02,4.350812e+03
8.311708e+02,4.333179e+03
8.340635e+02,4.327662e+03
8.369562e+02,4.314545e+03
8.398489e+02,4.316932e+03
8.427416e+02,4.314401e+03
8.456343e+02,4.303334e+03
8.485270e+02,4.298958e+03
8.514197e+02,4.288651e+03
8.543124e+02,4.307025e+03
8.572051e+02,4.281691e+03
8.600978e+02,4.276552e+03
8.629905e+02,4.271468e+03
8.658832e+02,4.248126e+03
8.687759e+02,4.242796e+03
8.716686e+02,4.245825e+03
8.745613e+02,4.245532e+03
8.774540e+02,4.232510e+03
8.803467e+02,4.254089e+03
8.832394e+02,4.249343e+03
8.861321e+02,4.214849e+03
8.890248e+02,4.224555e+03
8.919175e+02,4.219339e+03
8.948102e+02,4.195652e+03
8.977029e+02,4.181458e+03
9.005956e+02,4.198036e+03
9.034883e+02,4.179032e+03
9.063810e+02,4.163569e+03
9.092737e+02,4.165519e+03
9.121664e+02,4.161620e+03
9.150591e+02,4.147064e+03
9.179518e+02,4.143668e+03
9.208445e+02,4.140678e+03
9.237372e+02,4.128289e+03
9.266299e+02,4.130633e+03
9.295226e+02,4.119226e+03
9.324153e+02,4.107462e+03
9.353080e+02,4.120709e+03
9.382007e+02,4.106891e+03
9.410934e+02,4.083175e+03
9.439861e+02,4.111426e+03
9.468788e+02,4.075505e+03
9.497715e+02,4.113780e+03
9.526642e+02,4.076619e+03
9.555569e+02,4.082569e+03
9.584496e+02,4.071991e+03
9.613423e+02,4.079359e+03
9.642350e+02,4.076607e+03
9.671277e+02,4.059348e+03
9.700204e+02,4.052841e+03
9.729131e+02,4.035730e+03
9.758058e+02,4.045383e+03
9.786985e+02,4.048398e+03
9.815912e+02,4.028844e+03
9.844839e+02,4.017095e+03
9.873766e+02,4.005319e+03
9.902693e+02,4.019980e+03
9.931620e+02,4.025778e+03
9.960547e+02,4.025647e+03
9.989474e+02,4.018366e+03
1.001840e+03,3.990591e+03
1.004733e+03,3.983196e+03
1.007626e+03,3.982054e+03
1.010518e+03,3.975786e+03
1.013411e+03,3.970784e+03
1.016304e+03,3.981440e+03
1.019196e+03,3.956603e+03
1.022089e+03,3.947092e+03
1.024982e+03,3.979234e+03
1.027875e+03,3.949875e+03
1.030767e+03,3.953047e+03
1.033660e+03,3.961961e+03
1.036552e+03,3.959420e+03
1.039445e+03,3.944888e+03
1.042338e+03,3.946217e+03
1.045231e+03,3.927989e+03
1.048123e+03,3.931062e+03
1.051016e+03,3.923271e+03
1.053909e+03,3.930078e+03
1.056802e+03,3.932172e+03
1.059694e+03,3.925974e+03
1.062587e+03,3.924162e+03
1.065479e+03,3.934969e+03
1.068372e+03,3.942134e+03
1.071265e+03,3.955904e+03
1.074158e+03,3.966433e+03
1.077050e+03,3.966086e+03
1.079943e+03,3.913481e+03
1.082836e+03,3.936677e+03
1.085729e+03,3.911958e+03
1.088621e+03,3.929570e+03
1.091514e+03,3.944842e+03
1.094406e+03,3.928357e+03
1.097299e+03,3.933260e+03
1.100192e+03,3.907750e+03
1.103085e+03,3.902352e+03
1.105977e+03,3.910550e+03
1.108870e+03,3.901201e+03
1.111763e+03,3.904440e+03
1.114656e+03,3.913950e+03
1.117548e+03,3.926719e+03
1.120441e+03,3.887321e+03
1.123334e+03,3.894544e+03
1.126226e+03,3.864558e+03
1.129119e+03,3.868892e+03
1.132012e+03,3.886006e+03
1.134904e+03,3.895527e+03
1.137797e+03,3.883263e+03
1.140690e+03,3.893781e+03
1.143583e+03,3.868512e+03
1.146475e+03,3.879765e+03
1.149368e+03,3.880573e+03
1.152261e+03,3.900813e+03
1.155153e+03,3.886726e+03
1.158046e+03,3.878636e+03
1.160939e+03,3.914485e+03
1.163831e+03,3.900455e+03
1.166724e+03,3.885533e+03
1.169617e+03,3.871339e+03
1.172510e+03,3.860494e+03
1.175402e+03,3.820886e+03
1.178295e+03,3.822489e+03
1.181188e+03,3.828808e+03
1.184080e+03,3.790986e+03
1.186973e+03,3.787230e+03
1.189866e+03,3.778113e+03
1.192758e+03,3.803614e+03
1.195651e+03,3.810361e+03
1.198544e+03,3.801253e+03
1.201437e+03,3.774692e+03
1.204329e+03,3.783726e+03
1.207222e+03,3.774143e+03
1.210115e+03,3.795477e+03
1.213007e+03,3.774176e+03
1.215900e+03,3.764928e+03
1.218793e+03,3.747167e+03
1.221685e+03,3.742958e+03
1.224578e+03,3.757962e+03
1.227471e+03,3.732310e+03
1.230364e+03,3.736263e+03
1.233256e+03,3.722857e+03
1.236149e+03,3.711283e+03
1.239042e+03,3.710554e+03
1.241934e+03,3.735315e+03
1.244827e+03,3.719538e+03
1.247720e+03,3.698933e+03
1.250612e+03,3.715387e+03
1.253505e+03,3.689446e+03
1.256398e+03,3.698331e+03
1.259291e+03,3.710145e+03
1.262183e+03,3.692118e+03
1.265076e+03,3.684029e+03
1.267969e+03,3.693818e+03
1.270861e+03,3.692573e+03
1.273754e+03,3.709533e+03
1.276647e+03,3.710801e+03
1.279539e+03,3.704321e+03
1.282432e+03,3.692499e+03
1.285325e+03,3.695165e+03
1.288218e+03,3.702094e+03
1.291110e+03,3.713564e+03
1.294003e+03,3.694589e+03
1.296896e+03,3.664541e+03
1.299788e+03,3.685360e+03
1.302681e+03,3.706791e+03
1.305574e+03,3.735400e+03
1.308466e+03,3.716638e+03
1.311359e+03,3.724418e+03
1.314252e+03,3.730616e+03
1.317145e+03,3.728092e+03
1.320037e+03,3.731385e+03
1.322930e+03,3.760016e+03
1.325823e+03,3.737125e+03
1.328715e+03,3.717362e+03
1.331608e+03,3.722157e+03
1.334501e+03,3.718017e+03
1.337393e+03,3.723528e+03
1.340286e+03,3.691421e+03
1.343179e+03,3.682721e+03
1.346072e+03,3.649988e+03
1.348964e+03,3.622360e+03
1.351857e+03,3.629388e+03
1.354750e+03,3.599730e+03
1.357642e+03,3.624507e+03
1.360535e+03,3.604659e+03
1.363428e+03,3.621231e+03
1.366320e+03,3.621844e+03
1.369213e+03,3.594778e+03
1.372106e+03,3.600602e+03
1.374999e+03,3.589594e+03
1.377891e+03,3.593396e+03
1.380784e+03,3.592274e+03
1.383677e+03,3.597265e+03
1.386569e+03,3.570861e+03
1.389462e+03,3.568187e+03
1.392355e+03,3.557835e+03
1.395247e+03,3.540963e+03
1.398140e+03,3.537022e+03
1.401033e+03,3.543038e+03
1.403926e+03,3.537499e+03
1.406818e+03,3.518365e+03
1.409711e+03,3.531658e+03
1.412604e+03,3.521047e+03
1.415496e+03,3.528185e+03
1.418389e+03,3.533619e+03
1.421282e+03,3.497929e+03
1.424174e+03,3.499515e+03
1.427067e+03,3.496840e+03
1.429960e+03,3.482325e+03
1.432853e+03,3.485215e+03
1.435745e+03,3.458803e+03
1.438638e+03,3.470472e+03
1.441531e+03,3.482362e+03
1.444423e+03,3.472379e+03
1.447316e+03,3.451026e+03
1.450209e+03,3.442647e+03
1.453101e+03,3.470941e+03
1.455994e+03,3.445018e+03
1.458887e+03,3.438288e+03
1.461780e+03,3.443407e+03
1.464672e+03,3.415980e+03
1.467565e+03,3.409784e+03
1.470458e+03,3.410316e+03
1.473350e+03,3.405771e+03
1.476243e+03,3.413970e+03
1.479136e+03,3.418884e+03
1.482028e+03,3.396104e+03
1.484921e+03,3.375641e+03
1.487814e+03,3.373535e+03
1.490707e+03,3.386818e+03
1.493599e+03,3.372600e+03
1.496492e+03,3.385746e+03
1.499385e+03,3.375909e+03
1.502277e+03,3.360874e+03
1.505170e+03,3.370742e+03
1.508063e+03,3.363887e+03
1.510955e+03,3.338717e+03
1.513848e+03,3.334674e+03
1.516741e+03,3.341150e+03
1.519634e+03,3.337295e+03
1.522526e+03,3.335337e+03
1.525419e+03,3.328311e+03
1.528312e+03,3.305713e+03
1.531204e+03,3.316554e+03
1.534097e+03,3.324485e+03
1.536990e+03,3.326364e+03
1.539882e+03,3.330218e+03
1.542775e+03,3.302042e+03
1.545668e+03,3.306907e+03
1.548561e+03,3.306354e+03
1.551453e+03,3.313429e+03
1.554346e+03,3.313386e+03
1.557239e+03,3.298687e+03
1.560131e+03,3.300747e+03
1.563024e+03,3.318051e+03
1.565917e+03,3.318774e+03
1.568809e+03,3.295007e+03
1.571702e+03,3.306563e+03
1.574595e+03,3.292903e+03
1.577488e+03,3.283839e+03
1.580380e+03,3.309710e+03
1.583273e+03,3.296177e+03
1.586166e+03,3.301254e+03
1.589058e+03,3.265559e+03
1.591951e+03,3.265806e+03
1.594844e+03,3.243355e+03
1.597736e+03,3.247383e+03
1.600629e+03,3.255446e+03
1.603522e+03,3.240283e+03
1.606415e+03,3.248718e+03
1.609307e+03,3.256822e+03
1.612200e+03,3.260325e+03
1.615093e+03,3.246623e+03
1.617985e+03,3.229227e+03
1.620878e+03,3.192525e+03
1.623771e+03,3.190595e+03
1.626663e+03,3.170839e+03
1.629556e+03,3.167397e+03
1.632449e+03,3.169184e+03
1.635342e+03,3.150426e+03
1.638234e+03,3.147132e+03
1.641127e+03,3.136505e+03
1.644020e+03,3.134122e+03
1.646912e+03,3.127903e+03
1.649805e+03,3.135205e+03
1.652698e+03,3.093607e+03
1.655590e+03,3.114949e+03
1.658483e+03,3.083899e+03
1.661376e+03,3.083246e+03
1.664269e+03,3.103284e+03
1.667161e+03,3.082066e+03
1.670054e+03,3.072601e+03
1.672947e+03,3.057578e+03
1.675839e+03,3.061560e+03
1.678732e+03,3.087498e+03
1.681625e+03,3.038317e+03
1.684517e+03,3.033070e+03
1.687410e+03,3.054622e+03
1.690303e+03,3.042534e+03
1.693196e+03,3.045392e+03
1.696088e+03,3.022331e+03
1.698981e+03,3.021053e+03
1.701874e+03,3.017105e+03
1.704766e+03,3.013721e+03
1.707659e+03,2.993613e+03
1.710552e+03,3.007536e+03
1.713444e+03,2.983729e+03
1.716337e+03,2.990294e+03
1.719230e+03,2.986679e+03
1.722123e+03,3.015976e+03
1.725015e+03,2.983198e+03
1.727908e+03,2.978446e+03
1.730801e+03,2.963198e+03
1.733693e+03,2.969154e+03
1.736586e+03,2.961758e+03
1.739479e+03,2.949554e+03
1.742371e+03,2.922415e+03
1.745264e+03,2.927671e+03
1.748157e+03,2.919353e+03
1.751050e+03,2.927291e+03
1.753942e+03,2.925536e+03
1.756835e+03,2.904860e+03
1.759728e+03,2.872609e+03
1.762620e+03,2.894993e+03
1.765513e+03,2.869743e+03
1.768406e+03,2.888475e+03
1.771298e+03,2.875833e+03
1.774191e+03,2.861580e+03
1.777084e+03,2.846809e+03
1.779977e+03,2.849579e+03
1.782869e+03,2.851324e+03
1.785762e+03,2.842804e+03
1.788655e+03,2.841210e+03
1.791547e+03,2.824949e+03
1.794440e+03,2.818495e+03
1.797333e+03,2.837874e+03
1.800225e+03,2.814183e+03
1.803118e+03,2.817776e+03
1.806011e+03,2.816469e+03
1.808904e+03,2.787971e+03
1.811796e+03,2.796259e+03
1.814689e+03,2.783805e+03
1.817582e+03,2.795266e+03
1.820474e+03,2.754049e+03
1.823367e+03,2.777423e+03
1.826260e+03,2.748459e+03
1.829152e+03,2.758972e+03
1.832045e+03,2.743143e+03
1.834938e+03,2.755029e+03
1.837831e+03,2.732099e+03
1.840723e+03,2.753098e+03
1.843616e+03,2.739111e+03
1.846509e+03,2.734095e+03
1.849401e+03,2.692314e+03
1.852294e+03,2.700722e+03
1.855187e+03,2.681684e+03
1.858079e+03,2.708274e+03
1.860972e+03,2.690026e+03
1.863865e+03,2.680031e+03
1.866758e+03,2.668060e+03
1.869650e+03,2.672910e+03
1.872543e+03,2.660434e+03
1.875436e+03,2.672475e+03
1.878328e+03,2.654407e+03
1.881221e+03,2.644817e+03
1.884114e+03,2.637476e+03
1.887006e+03,2.639525e+03
1.889899e+03,2.623987e+03
1.892792e+03,2.609543e+03
1.895685e+03,2.631276e+03
1.898577e+03,2.602109e+03
1.901470e+03,2.597181e+03
1.904363e+03,2.591006e+03
1.907255e+03,2.588679e+03
1.910148e+03,2.597755e+03
1.913041e+03,2.581767e+03
1.915933e+03,2.551877e+03
1.918826e+03,2.549779e+03
1.921719e+03,2.558725e+03
1.924612e+03,2.544050e+03
1.927504e+03,2.530833e+03
1.930397e+03,2.532287e+03
1.933290e+03,2.512536e+03
1.936182e+03,2.523128e+03
1.939075e+03,2.517516e+03
1.941968e+03,2.514402e+03
1.944860e+03,2.504172e+03
1.947753e+03,2.493759e+03
1.950646e+03,2.468975e+03
1.953539e+03,2.489140e+03
1.956431e+03,2.473890e+03
1.959324e+03,2.469023e+03
1.962217e+03,2.478406e+03
1.965109e+03,2.467812e+03
1.968002e+03,2.474648e+03
1.970895e+03,2.437479e+03
1.973787e+03,2.434988e+03
1.976680e+03,2.457168e+03
1.979573e+03,2.409454e+03
1.982466e+03,2.437636e+03
1.985358e+03,2.415608e+03
1.988251e+03,2.411906e+03
1.991144e+03,2.406864e+03
1.994036e+03,2.392936e+03
1.996929e+03,2.402421e+03
1.999822e+03,2.414135e+03
2.002714e+03,2.362438e+03
2.005607e+03,2.387306e+03
2.008500e+03,2.371784e+03
2.011393e+03,2.375751e+03
2.014285e+03,2.357918e+03
2.017178e+03,2.345068e+03
2.020071e+03,2.325962e+03
2.022963e+03,2.350826e+03
2.025856e+03,2.328080e+03
2.028749e+03,2.323200e+03
2.031641e+03,2.327647e+03
2.034534e+03,2.323578e+03
2.037427e+03,2.312866e+03
2.040320e+03,2.297434e+03
2.043212e+03,2.304392e+03
2.046105e+03,2.302054e+03
2.048998e+03,2.291348e+03
2.051890e+03,2.268159e+03
2.054783e+03,2.271072e+03
2.057676e+03,2.254929e+03
2.060568e+03,2.248939e+03
2.063461e+03,2.272050e+03
2.066354e+03,2.240248e+03
2.069247e+03,2.220354e+03
2.072139e+03,2.194301e+03
2.075032e+03,2.221869e+03
2.077925e+03,2.204658e+03
2.080817e+03,2.228610e+03
2.083710e+03,2.208963e+03
2.086603e+03,2.182164e+03
2.089496e+03,2.196575e+03
2.092388e+03,2.184890e+03
2.095281e+03,2.189587e+03
2.098174e+03,2.180458e+03
2.101066e+03,2.179615e+03
2.103959e+03,2.149078e+03
2.106852e+03,2.154065e+03
2.109744e+03,2.148400e+03
2.112637e+03,2.141266e+03
2.115530e+03,2.125301e+03
2.118422e+03,2.127294e+03
2.121315e+03,2.151115e+03
2.124208e+03,2.124887e+03
2.127101e+03,2.083603e+03
2.129993e+03,2.099913e+03
2.132886e+03,2.092846e+03
2.135779e+03,2.096169e+03
2.138671e+03,2.091458e+03
2.141564e+03,2.089203e+03
2.144457e+03,2.075683e+03
2.147350e+03,2.054315e+03
2.150242e+03,2.056902e+03
2.153135e+03,2.052568e+03
2.156028e+03,2.061795e+03
2.158920e+03,2.051241e+03
2.161813e+03,2.040407e+03
2.164706e+03,2.023420e+03
2.167598e+03,2.039853e+03
2.170491e+03,2.022511e+03
2.173384e+03,2.008089e+03
2.176277e+03,2.001063e+03
2.179169e+03,2.012548e+03
2.182062e+03,2.000271e+03
2.184955e+03,2.001409e+03
2.187847e+03,1.988007e+03
2.190740e+03,1.982564e+03
2.193633e+03,1.980010e+03
2.196525e+03,1.984065e+03
2.199418e+03,1.967531e+03
2.202311e+03,1.970842e+03
2.205204e+03,1.961843e+03
2.208096e+03,1.956689e+03
2.210989e+03,1.945980e+03
2.213882e+03,1.930541e+03
2.216774e+03,1.934598e+03
2.219667e+03,1.926256e+03
2.222560e+03,1.921064e+03
2.225452e+03,1.887723e+03
2.228345e+03,1.896999e+03
2.231238e+03,1.918566e+03
2.234131e+03,1.902156e+03
2.237023e+03,1.877616e+03
2.239916e+03,1.898222e+03
2.242809e+03,1.892977e+03
2.245701e+03,1.864730e+03
2.248594e+03,1.872018e+03
2.251487e+03,1.891794e+03
2.254379e+03,1.875480e+03
2.257272e+03,1.843159e+03
2.260165e+03,1.848045e+03
2.263058e+03,1.857944e+03
2.265950e+03,1.844203e+03
2.268843e+03,1.838498e+03
2.271736e+03,1.830820e+03
2.274628e+03,1.829894e+03
2.277521e+03,1.833276e+03
2.280414e+03,1.811252e+03
2.283306e+03,1.822762e+03
2.286199e+03,1.808826e+03
2.289092e+03,1.791625e+03
2.291985e+03,1.798602e+03
2.294877e+03,1.785414e+03
2.297770e+03,1.797298e+03
2.300663e+03,1.789640e+03
2.303555e+03,1.758942e+03
2.306448e+03,1.768973e+03
2.309341e+03,1.769414e+03
2.312233e+03,1.749949e+03
2.315126e+03,1.765934e+03
2.318019e+03,1.752804e+03
2.320912e+03,1.743712e+03
2.323804e+03,1.740207e+03
2.326697e+03,1.747557e+03
2.329590e+03,1.737145e+03
2.332482e+03,1.732372e+03
2.335375e+03,1.708371e+03
2.338268e+03,1.723554e+03
2.341160e+03,1.699956e+03
2.344053e+03,1.717790e+03
2.346946e+03,1.702278e+03
2.349839e+03,1.692158e+03
2.352731e+03,1.701494e+03
2.355624e+03,1.679761e+03
2.358517e+03,1.680319e+03
2.361409e+03,1.696012e+03
2.364302e+03,1.664699e+03
2.367195e+03,1.676767e+03
2.370087e+03,1.658857e+03
2.372980e+03,1.657208e+03
2.375873e+03,1.676017e+03
2.378766e+03,1.655515e+03
2.381658e+03,1.652735e+03
2.384551e+03,1.620730e+03
2.387444e+03,1.613403e+03
2.390336e+03,1.623781e+03
2.393229e+03,1.629919e+03
2.396122e+03,1.621947e+03
2.399014e+03,1.623938e+03
2.401907e+03,1.638324e+03
2.404800e+03,1.601737e+03
2.407693e+03,1.607821e+03
2.410585e+03,1.597203e+03
2.413478e+03,1.598313e+03
2.416371e+03,1.589662e+03
2.419263e+03,1.569641e+03
2.422156e+03,1.587098e+03
2.425049e+03,1.571410e+03
2.427941e+03,1.566498e+03
2.430834e+03,1.568043e+03
2.433727e+03,1.575349e+03
2.436620e+03,1.548825e+03
2.439512e+03,1.547158e+03
2.442405e+03,1.550380e+03
2.445298e+03,1.558328e+03
2.448190e+03,1.522205e+03
2.451083e+03,1.555152e+03
2.453976e+03,1.529556e+03
2.456868e+03,1.542535e+03
2.459761e+03,1.534993e+03
2.462654e+03,1.530884e+03
2.465547e+03,1.527330e+03
2.468439e+03,1.503256e+03
2.471332e+03,1.511850e+03
2.474225e+03,1.509672e+03
2.477117e+03,1.510417e+03
2.480010e+03,1.508266e+03
2.482903e+03,1.505908e+03
2.485795e+03,1.484231e+03
2.488688e+03,1.498135e+03
2.491581e+03,1.505949e+03
2.494474e+03,1.487565e+03
2.497366e+03,1.485483e+03
2.500259e+03,1.496260e+03
2.503152e+03,1.472870e+03
2.506044e+03,1.463965e+03
2.508937e+03,1.463549e+03
2.511830e+03,1.465348e+03
2.514722e+03,1.473543e+03
2.517615e+03,1.458708e+03
2.520508e+03,1.442767e+03
2.523401e+03,1.436593e+03
2.526293e+03,1.456075e+03
2.529186e+03,1.450568e+03
2.532079e+03,1.444018e+03
2.534971e+03,1.452331e+03
2.537864e+03,1.418469e+03
2.540757e+03,1.422013e+03
2.543649e+03,1.423912e+03
2.546542e+03,1.417009e+03
2.549435e+03,1.416187e+03
2.552328e+03,1.429384e+03
2.555220e+03,1.410908e+03
2.558113e+03,1.420834e+03
2.561006e+03,1.401896e+03
2.563898e+03,1.415557e+03
2.566791e+03,1.384622e+03
2.569684e+03,1.407193e+03
2.572576e+03,1.400275e+03
2.575469e+03,1.392862e+03
2.578362e+03,1.398007e+03
2.581255e+03,1.391783e+03
2.584147e+03,1.395537e+03
2.587040e+03,1.376376e+03
2.589933e+03,1.367018e+03
2.592825e+03,1.384102e+03
2.595718e+03,1.366772e+03
2.598611e+03,1.383792e+03
2.601503e+03,1.345990e+03
2.604396e+03,1.370104e+03
2.607289e+03,1.365269e+03
2.610182e+03,1.354984e+03
2.613074e+03,1.334648e+03
2.615967e+03,1.345845e+03
2.618860e+03,1.338632e+03
2.621752e+03,1.358684e+03
2.624645e+03,1.358771e+03
2.627538e+03,1.329098e+03
2.630430e+03,1.325403e+03
2.633323e+03,1.329215e+03
2.636216e+03,1.343470e+03
2.639109e+03,1.304708e+03
2.642001e+03,1.315993e+03
2.644894e+03,1.319261e+03
2.647787e+03,1.291406e+03
2.650679e+03,1.332432e+03
2.653572e+03,1.315623e+03
2.656465e+03,1.321665e+03
2.659357e+03,1.292158e+03
2.662250e+03,1.285613e+03
2.665143e+03,1.300923e+03
2.668036e+03,1.288895e+03
2.670928e+03,1.305601e+03
2.673821e+03,1.293598e+03
2.676714e+03,1.294467e+03
2.679606e+03,1.306042e+03
2.682499e+03,1.274441e+03
2.685392e+03,1.280707e+03
2.688284e+03,1.287705e+03
2.691177e+03,1.280270e+03
2.694070e+03,1.288387e+03
2.696963e+03,1.272832e+03
2.699855e+03,1.267966e+03
2.702748e+03,1.262914e+03
2.705641e+03,1.261182e+03
2.708533e+03,1.253134e+03
2.711426e+03,1.250503e+03
2.714319e+03,1.274147e+03
2.717211e+03,1.240196e+03
2.720104e+03,1.259917e+03
2.722997e+03,1.242882e+03
2.725890e+03,1.246789e+03
2.728782e+03,1.242894e+03
2.731675e+03,1.252601e+03
2.734568e+03,1.238161e+03
2.737460e+03,1.219581e+03
2.740353e+03,1.244987e+03
2.743246e+03,1.209949e+03
2.746138e+03,1.223582e+03
2.749031e+03,1.232786e+03
2.751924e+03,1.216150e+03
2.754817e+03,1.221361e+03
2.757709e+03,1.226042e+03
2.760602e+03,1.218817e+03
2.763495e+03,1.205407e+03
2.766387e+03,1.218257e+03
2.769280e+03,1.214269e+03
2.772173e+03,1.204050e+03
2.775065e+03,1.209869e+03
2.777958e+03,1.198033e+03
2.780851e+03,1.183006e+03
2.783744e+03,1.201197e+03
2.786636e+03,1.185132e+03
2.789529e+03,1.186040e+03
2.792422e+03,1.187343e+03
2.795314e+03,1.180881e+03
2.798207e+03,1.185013e+03
2.801100e+03,1.167776e+03
2.803992e+03,1.171231e+03
2.806885e+03,1.169184e+03
2.809778e+03,1.169725e+03
2.812671e+03,1.175189e+03
2.815563e+03,1.162526e+03
2.818456e+03,1.162655e+03
2.821349e+03,1.163238e+03
2.824241e+03,1.168175e+03
2.827134e+03,1.190988e+03
2.830027e+03,1.158652e+03
2.832919e+03,1.171904e+03
2.835812e+03,1.160914e+03
2.838705e+03,1.133369e+03
2.841598e+03,1.172258e+03
2.844490e+03,1.152733e+03
2.847383e+03,1.142295e+03
2.850276e+03,1.160098e+03
2.853168e+03,1.144875e+03
2.856061e+03,1.147665e+03
2.858954e+03,1.139483e+03
2.861846e+03,1.141068e+03
2.864739e+03,1.139961e+03
2.867632e+03,1.146620e+03
2.870525e+03,1.123793e+03
2.873417e+03,1.162306e+03
2.876310e+03,1.161048e+03
2.879203e+03,1.155713e+03
2.882095e+03,1.140305e+03
2.884988e+03,1.187217e+03
2.887881e+03,1.170736e+03
2.890773e+03,1.131203e+03
2.893666e+03,1.160515e+03
2.896559e+03,1.136331e+03
2.899452e+03,1.140579e+03
2.902344e+03,1.127476e+03
2.905237e+03,1.139340e+03
2.908130e+03,1.147438e+03
2.911022e+03,1.139493e+03
2.913915e+03,1.107053e+03
2.916808e+03,1.160647e+03
2.919700e+03,1.135235e+03
2.922593e+03,1.117442e+03
2.925486e+03,1.137750e+03
2.928379e+03,1.100805e+03
2.931271e+03,1.107100e+03
2.934164e+03,1.117271e+03
2.937057e+03,1.071422e+03
2.939949e+03,1.100992e+03
2.942842e+03,1.091660e+03
2.945735e+03,1.087106e+03
2.948627e+03,1.132823e+03
2.951520e+03,1.090709e+03
2.954413e+03,1.111283e+03
2.957306e+03,1.129352e+03
2.960198e+03,1.088248e+03
2.963091e+03,1.112903e+03
2.965984e+03,1.088016e+03
2.968876e+03,1.082092e+03
2.971769e+03,1.069011e+03
2.974662e+03,1.072675e+03
2.977554e+03,1.045443e+03
2.980447e+03,1.070054e+03
2.983340e+03,1.058248e+03
2.986233e+03,1.060027e+03
2.989125e+03,1.038415e+03
2.992018e+03,1.054073e+03
2.994911e+03,1.032543e+03
2.997803e+03,1.064743e+03
3.000696e+03,1.058372e+03
3.003589e+03,1.054657e+03
3.006481e+03,1.045443e+03
3.009374e+03,1.054116e+03
3.012267e+03,1.059363e+03
3.015160e+03,1.038170e+03
3.018052e+03,1.009482e+03
3.020945e+03,1.067359e+03
3.023838e+03,1.019704e+03
3.026730e+03,9.960372e+02
3.029623e+03,1.016562e+03
3.032516e+03,1.010583e+03
3.035408e+03,1.016784e+03
3.038301e+03,1.051103e+03
3.041194e+03,1.009633e+03
3.044087e+03,9.823731e+02
3.046979e+03,1.010671e+03
3.049872e+03,1.033021e+03
3.052765e+03,9.845997e+02
3.055657e+03,9.954744e+02
3.058550e+03,9.751835e+02
3.061443e+03,1.025701e+03
3.064335e+03,9.895305e+02
3.067228e+03,1.008948e+03
3.070121e+03,1.004079e+03
3.073014e+03,1.016249e+03
3.075906e+03,1.046250e+03
3.078799e+03,9.881345e+02
3.081692e+03,1.003001e+03
3.084584e+03,9.940060e+02
3.087477e+03,9.801305e+02
3.090370e+03,1.019845e+03
3.093262e+03,1.011374e+03
3.096155e+03,1.022953e+03
3.099048e+03,9.766066e+02
3.101941e+03,1.000042e+03
3.104833e+03,1.009618e+03
3.107726e+03,1.003450e+03
3.110619e+03,9.963958e+02
3.113511e+03,9.928532e+02
3.116404e+03,1.008100e+03
3.119297e+03,1.020664e+03
3.122189e+03,1.003794e+03
3.125082e+03,9.750594e+02
3.127975e+03,1.016778e+03
3.130868e+03,9.674955e+02
3.133760e+03,1.012831e+03
3.136653e+03,9.624570e+02
3.139546e+03,9.707709e+02
3.142438e+03,1.001676e+03
3.145331e+03,9.678551e+02
3.148224e+03,1.005226e+03
3.151116e+03,9.930417e+02
3.154009e+03,9.766106e+02
3.156902e+03,1.007229e+03
3.159795e+03,9.483343e+02
3.162687e+03,1.000178e+03
3.165580e+03,9.815876e+02
3.168473e+03,9.986056e+02
3.171365e+03,9.876106e+02
3.174258e+03,9.982420e+02
3.177151e+03,9.882606e+02
3.180043e+03,9.935647e+02
3.182936e+03,9.937507e+02
3.185829e+03,9.735139e+02
3.188722e+03,9.514785e+02
3.191614e+03,1.032933e+03
3.194507e+03,9.731298e+02
3.197400e+03,9.830050e+02
3.200292e+03,1.054805e+03
3.203185e+03,0.000000e+00
3.206078e+03,0.000000e+00
3.208970e+03,0.000000e+00
3.211863e+03,0.000000e+00
3.214756e+03,0.000000e+00
3.217649e+03,0.000000e+00
3.220541e+03,0.000000e+00
3.223434e+03,0.000000e+00
3.226327e+03,0.000000e+00
3.229219e+03,0.000000e+00
3.232112e+03,0.000000e+00
3.235005e+03,0.000000e+00
3.237897e+03,0.000000e+00
3.240790e+03,0.000000e+00
3.243683e+03,0.000000e+00
3.246576e+03,0.000000e+00
3.249468e+03,0.000000e+00
3.252361e+03,0.000000e+00
3.255254e+03,0.000000e+00
3.258146e+03,0.000000e+00
3.261039e+03,0.000000e+00
3.263932e+03,0.000000e+00
3.266824e+03,0.000000e+00
3.269717e+03,0.000000e+00
3.272610e+03,0.000000e+00
3.275503e+03,0.000000e+00
3.278395e+03,0.000000e+00
3.281288e+03,0.000000e+00
3.284181e+03,0.000000e+00
3.287073e+03,0.000000e+00
3.289966e+03,0.000000e+00
3.292859e+03,0.000000e+00
3.295751e+03,0.000000e+00
3.298644e+03,0.000000e+00
3.301537e+03,0.000000e+00
3.304430e+03,0.000000e+00
3.307322e+03,0.000000e+00
3.310215e+03,0.000000e+00
3.313108e+03,0.000000e+00
3.316000e+03,0.000000e+00
3.318893e+03,0.000000e+00
3.321786e+03,0.000000e+00
3.324678e+03,0.000000e+00
3.327571e+03,0.000000e+00
3.330464e+03,0.000000e+00
3.333357e+03,0.000000e+00
3.336249e+03,0.000000e+00
3.339142e+03,0.000000e+00
3.342035e+03,0.000000e+00
3.344927e+03,0.000000e+00
3.347820e+03,0.000000e+00
3.350713e+03,0.000000e+00
3.353605e+03,0.000000e+00
3.356498e+03,0.000000e+00
3.359391e+03,0.000000e+00
3.362284e+03,0.000000e+00
3.365176e+03,0.000000e+00
3.368069e+03,0.000000e+00
3.370962e+03,0.000000e+00
3.373854e+03,0.000000e+00
3.376747e+03,0.000000e+00
3.379640e+03,0.000000e+00
3.382532e+03,0.000000e+00
3.385425e+03,0.000000e+00
3.388318e+03,0.000000e+00
3.391211e+03,0.000000e+00
3.394103e+03,0.000000e+00
3.396996e+03,0.000000e+00
3.399889e+03,0.000000e+00
3.402781e+03,0.000000e+00
3.405674e+03,0.000000e+00
3.408567e+03,0.000000e+00
3.411459e+03,0.000000e+00
3.414352e+03,0.000000e+00
3.417245e+03,0.000000e+00
3.420138e+03,0.000000e+00
3.423030e+03,0.000000e+00
3.425923e+03,0.000000e+00
3.428816e+03,0.000000e+00
3.431708e+03,0.000000e+00
3.434601e+03,0.000000e+00
3.437494e+03,0.000000e+00
3.440386e+03,0.000000e+00
3.443279e+03,0.000000e+00
3.446172e+03,0.000000e+00
3.449065e+03,0.000000e+00
3.451957e+03,0.000000e+00
3.454850e+03,0.000000e+00
3.457743e+03,0.000000e+00
3.460635e+03,0.000000e+00
3.463528e+03,0.000000e+00
3.466421e+03,0.000000e+00
3.469313e+03,0.000000e+00
3.472206e+03,0.000000e+00
3.475099e+03,0.000000e+00
3.477992e+03,0.000000e+00
3.480884e+03,0.000000e+00
3.483777e+03,0.000000e+00
3.486670e+03,0.000000e+00
3.489563e+03,0.000000e+00
3.492455e+03,0.000000e+00
3.495348e+03,0.000000e+00
3.498240e+03,0.000000e+00
3.500169e+03,0.000000e+00