File: RAMAN_data/12022024_r1/black fibre6.CSV
9.931763e+01,0.000000e+00
1.022103e+02,0.000000e+00
1.051030e+02,0.000000e+00
1.079957e+02,0.000000e+00
1.108884e+02,0.000000e+00
1.137811e+02,0.000000e+00
1.166738e+02,0.000000e+00
1.195665e+02,0.000000e+00
1.224592e+02,0.000000e+00
1.253519e+02,0.000000e+00
1.282446e+02,0.000000e+00
1.311373e+02,0.000000e+00
1.340300e+02,0.000000e+00
1.369227e+02,0.000000e+00
1.398154e+02,0.000000e+00
1.427081e+02,0.000000e+00
1.456008e+02,0.000000e+00
1.484935e+02,0.000000e+00
1.513862e+02,0.000000e+00
1.542789e+02,0.000000e+00
1.571716e+02,0.000000e+00
1.600643e+02,0.000000e+00
1.629570e+02,0.000000e+00
1.658497e+02,0.000000e+00
1.687424e+02,0.000000e+00
1.716351e+02,0.000000e+00
1.745278e+02,0.000000e+00
1.774205e+02,0.000000e+00
1.803132e+02,0.000000e+00
1.832059e+02,0.000000e+00
1.860986e+02,0.000000e+00
1.889913e+02,0.000000e+00
1.918840e+02,0.000000e+00
1.947767e+02,0.000000e+00
1.976694e+02,0.000000e+00
2.005621e+02,5.320456e+03
2.034548e+02,5.323715e+03
2.063475e+02,5.318360e+03
2.092402e+02,5.279269e+03
2.121329e+02,5.281916e+03
2.150256e+02,5.285436e+03
2.179183e+02,5.282787e+03
2.208110e+02,5.289010e+03
2.237037e+02,5.289168e+03
2.265964e+02,5.268633e+03
2.294892e+02,5.256371e+03
2.323819e+02,5.266709e+03
2.352746e+02,5.263247e+03
2.381673e+02,5.258761e+03
2.410600e+02,5.236674e+03
2.439527e+02,5.218088e+03
2.468454e+02,5.226816e+03
2.497381e+02,5.228594e+03
2.526308e+02,5.224187e+03
2.555235e+02,5.212820e+03
2.584161e+02,5.201862e+03
2.613088e+02,5.189040e+03
2.642015e+02,5.207147e+03
2.670942e+02,5.185501e+03
2.699869e+02,5.183586e+03
2.728796e+02,5.160189e+03
2.757723e+02,5.170385e+03
2.786650e+02,5.159243e+03
2.815577e+02,5.148373e+03
2.844504e+02,5.149973e+03
2.873431e+02,5.123660e+03
2.902358e+02,5.138071e+03
2.931285e+02,5.112170e+03
2.960212e+02,5.091642e+03
2.989139e+02,5.111945e+03
3.018066e+02,5.115216e+03
3.046993e+02,5.095013e+03
3.075920e+02,5.068731e+03
3.104847e+02,5.050829e+03
3.133774e+02,5.072002e+03
3.162701e+02,5.052498e+03
3.191628e+02,5.059818e+03
3.220555e+02,5.044614e+03
3.249482e+02,5.042299e+03
3.278409e+02,5.016377e+03
3.307336e+02,5.035603e+03
3.336263e+02,4.997258e+03
3.365190e+02,4.991166e+03
3.394117e+02,4.993532e+03
3.423044e+02,4.996406e+03
3.451971e+02,4.975958e+03
3.480898e+02,4.960968e+03
3.509825e+02,4.929169e+03
3.538752e+02,4.929319e+03
3.567680e+02,4.928667e+03
3.596607e+02,4.948419e+03
3.625534e+02,4.936060e+03
3.654461e+02,4.904800e+03
3.683388e+02,4.878038e+03
3.712315e+02,4.912372e+03
3.741242e+02,4.896486e+03
3.770169e+02,4.889022e+03
3.799096e+02,4.903147e+03
3.828023e+02,4.854475e+03
3.856950e+02,4.832289e+03
3.885877e+02,4.822033e+03
3.914804e+02,4.835086e+03
3.943731e+02,4.806625e+03
3.972658e+02,4.775417e+03
4.001585e+02,4.779388e+03
4.030512e+02,4.772428e+03
4.059439e+02,4.764538e+03
4.088366e+02,4.739992e+03
4.117293e+02,4.748861e+03
4.146220e+02,4.722334e+03
4.175147e+02,4.708576e+03
4.204074e+02,4.717092e+03
4.233001e+02,4.697833e+03
4.261928e+02,4.707072e+03
4.290855e+02,4.693794e+03
4.319782e+02,4.690129e+03
4.348709e+02,4.659817e+03
4.377636e+02,4.665681e+03
4.406563e+02,4.652428e+03
4.435490e+02,4.618194e+03
4.464417e+02,4.611517e+03
4.493344e+02,4.626539e+03
4.522271e+02,4.609407e+03
4.551198e+02,4.596764e+03
4.580125e+02,4.603934e+03
4.609052e+02,4.582192e+03
4.637979e+02,4.553547e+03
4.666906e+02,4.554764e+03
4.695833e+02,4.533596e+03
4.724760e+02,4.519817e+03
4.753687e+02,4.514697e+03
4.782614e+02,4.512488e+03
4.811541e+02,4.505308e+03
4.840468e+02,4.485368e+03
4.869395e+02,4.467263e+03
4.898322e+02,4.464142e+03
4.927249e+02,4.457435e+03
4.956176e+02,4.454306e+03
4.985103e+02,4.451641e+03
5.014030e+02,4.426695e+03
5.042957e+02,4.419370e+03
5.071884e+02,4.404666e+03
5.100811e+02,4.393800e+03
5.129738e+02,4.409344e+03
5.158665e+02,4.385491e+03
5.187592e+02,4.394692e+03
5.216519e+02,4.378541e+03
5.245446e+02,4.372921e+03
5.274373e+02,4.341752e+03
5.303300e+02,4.336142e+03
5.332227e+02,4.330932e+03
5.361154e+02,4.288518e+03
5.390081e+02,4.307411e+03
5.419008e+02,4.298646e+03
5.447935e+02,4.284188e+03
5.476862e+02,4.289231e+03
5.505789e+02,4.258691e+03
5.534716e+02,4.240580e+03
5.563643e+02,4.232584e+03
5.592570e+02,4.250525e+03
5.621497e+02,4.220368e+03
5.650424e+02,4.218686e+03
5.679351e+02,4.219895e+03
5.708278e+02,4.204811e+03
5.737205e+02,4.204542e+03
5.766132e+02,4.189229e+03
5.795059e+02,4.194801e+03
5.823986e+02,4.163105e+03
5.852913e+02,4.155139e+03
5.881840e+02,4.135093e+03
5.910767e+02,4.130179e+03
5.939694e+02,4.136607e+03
5.968621e+02,4.135360e+03
5.997548e+02,4.134817e+03
6.026475e+02,4.123787e+03
6.055402e+02,4.113928e+03
6.084329e+02,4.104044e+03
6.113256e+02,4.093212e+03
6.142183e+02,4.081154e+03
6.171110e+02,4.061667e+03
6.200037e+02,4.058051e+03
6.228964e+02,4.034738e+03
6.257891e+02,4.042491e+03
6.286818e+02,4.052371e+03
6.315745e+02,4.037170e+03
6.344672e+02,4.034817e+03
6.373599e+02,4.012690e+03
6.402526e+02,3.994610e+03
6.431453e+02,3.974534e+03
6.460380e+02,3.993668e+03
6.489307e+02,3.974934e+03
6.518234e+02,3.978404e+03
6.547161e+02,3.964552e+03
6.576088e+02,3.946654e+03
6.605015e+02,3.927934e+03
6.633942e+02,3.911232e+03
6.662869e+02,3.934696e+03
6.691796e+02,3.925395e+03
6.720723e+02,3.909179e+03
6.749650e+02,3.889011e+03
6.778577e+02,3.875361e+03
6.807504e+02,3.881790e+03
6.836431e+02,3.882743e+03
6.865358e+02,3.875130e+03
6.894285e+02,3.857966e+03
6.923212e+02,3.839391e+03
6.952139e+02,3.849214e+03
6.981066e+02,3.842893e+03
7.009993e+02,3.836807e+03
7.038920e+02,3.816961e+03
7.067847e+02,3.823663e+03
7.096774e+02,3.808719e+03
7.125701e+02,3.786456e+03
7.154628e+02,3.802994e+03
7.183555e+02,3.791279e+03
7.212482e+02,3.780485e+03
7.241409e+02,3.762155e+03
7.270336e+02,3.751039e+03
7.299263e+02,3.753875e+03
7.328190e+02,3.752551e+03
7.357117e+02,3.736262e+03
7.386044e+02,3.744964e+03
7.414971e+02,3.726036e+03
7.443898e+02,3.722487e+03
7.472825e+02,3.720185e+03
7.501752e+02,3.712991e+03
7.530679e+02,3.695737e+03
7.559606e+02,3.684048e+03
7.588533e+02,3.688832e+03
7.617460e+02,3.699503e+03
7.646387e+02,3.667609e+03
7.675314e+02,3.655657e+03
7.704241e+02,3.646258e+03
7.733168e+02,3.624479e+03
7.762095e+02,3.630174e+03
7.791022e+02,3.652825e+03
7.819949e+02,3.610114e+03
7.848876e+02,3.610428e+03
7.877803e+02,3.595563e+03
7.906730e+02,3.595500e+03
7.935657e+02,3.614315e+03
7.964584e+02,3.592971e+03
7.993511e+02,3.572617e+03
8.022438e+02,3.582678e+03
8.051365e+02,3.577747e+03
8.080292e+02,3.551706e+03
8.109219e+02,3.547351e+03
8.138146e+02,3.556666e+03
8.167073e+02,3.538395e+03
8.196000e+02,3.518598e+03
8.224927e+02,3.521091e+03
8.253854e+02,3.532984e+03
8.282781e+02,3.505453e+03
8.311708e+02,3.499400e+03
8.340635e+02,3.499805e+03
8.369562e+02,3.488899e+03
8.398489e+02,3.468271e+03
8.427416e+02,3.495868e+03
8.456343e+02,3.465675e+03
8.485270e+02,3.465521e+03
8.514197e+02,3.461268e+03
8.543124e+02,3.461901e+03
8.572051e+02,3.465042e+03
8.600978e+02,3.450607e+03
8.629905e+02,3.419110e+03
8.658832e+02,3.415172e+03
8.687759e+02,3.396655e+03
8.716686e+02,3.410684e+03
8.745613e+02,3.400322e+03
8.774540e+02,3.402771e+03
8.803467e+02,3.407106e+03
8.832394e+02,3.397320e+03
8.861321e+02,3.389916e+03
8.890248e+02,3.352417e+03
8.919175e+02,3.356024e+03
8.948102e+02,3.356048e+03
8.977029e+02,3.355541e+03
9.005956e+02,3.352663e+03
9.034883e+02,3.348730e+03
9.063810e+02,3.321463e+03
9.092737e+02,3.317124e+03
9.121664e+02,3.320193e+03
9.150591e+02,3.329011e+03
9.179518e+02,3.315016e+03
9.208445e+02,3.302969e+03
9.237372e+02,3.294802e+03
9.266299e+02,3.293885e+03
9.295226e+02,3.266072e+03
9.324153e+02,3.267579e+03
9.353080e+02,3.261615e+03
9.382007e+02,3.253592e+03
9.410934e+02,3.248315e+03
9.439861e+02,3.222274e+03
9.468788e+02,3.244301e+03
9.497715e+02,3.241888e+03
9.526642e+02,3.227972e+03
9.555569e+02,3.213124e+03
9.584496e+02,3.208387e+03
9.613423e+02,3.217387e+03
9.642350e+02,3.205469e+03
9.671277e+02,3.195220e+03
9.700204e+02,3.192623e+03
9.729131e+02,3.189523e+03
9.758058e+02,3.173477e+03
9.786985e+02,3.181059e+03
9.815912e+02,3.169218e+03
9.844839e+02,3.144649e+03
9.873766e+02,3.154084e+03
9.902693e+02,3.161611e+03
9.931620e+02,3.161983e+03
9.960547e+02,3.147448e+03
9.989474e+02,3.146344e+03
1.001840e+03,3.123029e+03
1.004733e+03,3.112737e+03
1.007626e+03,3.114277e+03
1.010518e+03,3.114065e+03
1.013411e+03,3.109593e+03
1.016304e+03,3.089092e+03
1.019196e+03,3.086531e+03
1.022089e+03,3.085758e+03
1.024982e+03,3.081578e+03
1.027875e+03,3.091140e+03
1.030767e+03,3.068689e+03
1.033660e+03,3.060086e+03
1.036552e+03,3.069142e+03
1.039445e+03,3.053894e+03
1.042338e+03,3.047948e+03
1.045231e+03,3.050546e+03
1.048123e+03,3.050275e+03
1.051016e+03,3.031487e+03
1.053909e+03,3.061746e+03
1.056802e+03,3.037813e+03
1.059694e+03,3.023078e+03
1.062587e+03,3.008308e+03
1.065479e+03,3.013123e+03
1.068372e+03,3.007246e+03
1.071265e+03,3.018385e+03
1.074158e+03,3.005165e+03
1.077050e+03,3.006504e+03
1.079943e+03,3.002679e+03
1.082836e+03,3.011609e+03
1.085729e+03,3.007409e+03
1.088621e+03,3.000919e+03
1.091514e+03,3.021683e+03
1.094406e+03,2.999820e+03
1.097299e+03,2.997467e+03
1.100192e+03,2.985956e+03
1.103085e+03,2.983692e+03
1.105977e+03,2.970709e+03
1.108870e+03,2.962983e+03
1.111763e+03,2.953075e+03
1.114656e+03,2.959867e+03
1.117548e+03,2.964983e+03
1.120441e+03,2.965052e+03
1.123334e+03,2.957674e+03
1.126226e+03,2.930120e+03
1.129119e+03,2.921766e+03
1.132012e+03,2.928313e+03
1.134904e+03,2.920234e+03
1.137797e+03,2.909752e+03
1.140690e+03,2.913591e+03
1.143583e+03,2.908762e+03
1.146475e+03,2.906207e+03
1.149368e+03,2.900784e+03
1.152261e+03,2.906247e+03
1.155153e+03,2.882460e+03
1.158046e+03,2.894029e+03
1.160939e+03,2.880954e+03
1.163831e+03,2.880352e+03
1.166724e+03,2.886726e+03
1.169617e+03,2.859021e+03
1.172510e+03,2.867974e+03
1.175402e+03,2.851725e+03
1.178295e+03,2.833651e+03
1.181188e+03,2.827422e+03
1.184080e+03,2.820683e+03
1.186973e+03,2.807600e+03
1.189866e+03,2.821634e+03
1.192758e+03,2.819048e+03
1.195651e+03,2.812795e+03
1.198544e+03,2.809930e+03
1.201437e+03,2.800645e+03
1.204329e+03,2.780310e+03
1.207222e+03,2.783568e+03
1.210115e+03,2.799102e+03
1.213007e+03,2.794285e+03
1.215900e+03,2.781266e+03
1.218793e+03,2.782732e+03
1.221685e+03,2.773015e+03
1.224578e+03,2.766201e+03
1.227471e+03,2.763867e+03
1.230364e+03,2.748544e+03
1.233256e+03,2.734423e+03
1.236149e+03,2.723386e+03
1.239042e+03,2.739237e+03
1.241934e+03,2.733387e+03
1.244827e+03,2.724535e+03
1.247720e+03,2.720096e+03
1.250612e+03,2.700878e+03
1.253505e+03,2.707294e+03
1.256398e+03,2.717825e+03
1.259291e+03,2.714209e+03
1.262183e+03,2.703224e+03
1.265076e+03,2.683563e+03
1.267969e+03,2.694941e+03
1.270861e+03,2.709768e+03
1.273754e+03,2.694743e+03
1.276647e+03,2.695774e+03
1.279539e+03,2.692573e+03
1.282432e+03,2.692158e+03
1.285325e+03,2.689985e+03
1.288218e+03,2.689792e+03
1.291110e+03,2.687333e+03
1.294003e+03,2.666105e+03
1.296896e+03,2.656081e+03
1.299788e+03,2.656292e+03
1.302681e+03,2.669337e+03
1.305574e+03,2.665193e+03
1.308466e+03,2.659427e+03
1.311359e+03,2.660901e+03
1.314252e+03,2.661720e+03
1.317145e+03,2.669789e+03
1.320037e+03,2.672893e+03
1.322930e+03,2.668720e+03
1.325823e+03,2.651118e+03
1.328715e+03,2.651135e+03
1.331608e+03,2.651509e+03
1.334501e+03,2.644712e+03
1.337393e+03,2.640230e+03
1.340286e+03,2.644608e+03
1.343179e+03,2.620227e+03
1.346072e+03,2.605843e+03
1.348964e+03,2.599075e+03
1.351857e+03,2.589672e+03
1.354750e+03,2.576602e+03
1.357642e+03,2.588423e+03
1.360535e+03,2.572405e+03
1.363428e+03,2.584962e+03
1.366320e+03,2.567839e+03
1.369213e+03,2.571915e+03
1.372106e+03,2.555865e+03
1.374999e+03,2.554402e+03
1.377891e+03,2.549098e+03
1.380784e+03,2.555088e+03
1.383677e+03,2.527934e+03
1.386569e+03,2.525989e+03
1.389462e+03,2.514504e+03
1.392355e+03,2.504094e+03
1.395247e+03,2.507012e+03
1.398140e+03,2.496846e+03
1.401033e+03,2.501747e+03
1.403926e+03,2.495534e+03
1.406818e+03,2.484469e+03
1.409711e+03,2.491321e+03
1.412604e+03,2.472411e+03
1.415496e+03,2.466786e+03
1.418389e+03,2.480347e+03
1.421282e+03,2.461184e+03
1.424174e+03,2.467474e+03
1.427067e+03,2.440164e+03
1.429960e+03,2.454812e+03
1.432853e+03,2.455606e+03
1.435745e+03,2.438691e+03
1.438638e+03,2.433509e+03
1.441531e+03,2.439225e+03
1.444423e+03,2.426673e+03
1.447316e+03,2.415554e+03
1.450209e+03,2.418001e+03
1.453101e+03,2.416986e+03
1.455994e+03,2.412523e+03
1.458887e+03,2.416200e+03
1.461780e+03,2.398215e+03
1.464672e+03,2.412738e+03
1.467565e+03,2.392091e+03
1.470458e+03,2.405866e+03
1.473350e+03,2.388578e+03
1.476243e+03,2.392129e+03
1.479136e+03,2.368238e+03
1.482028e+03,2.381401e+03
1.484921e+03,2.363216e+03
1.487814e+03,2.366672e+03
1.490707e+03,2.353984e+03
1.493599e+03,2.343929e+03
1.496492e+03,2.345749e+03
1.499385e+03,2.341357e+03
1.502277e+03,2.338400e+03
1.505170e+03,2.346917e+03
1.508063e+03,2.322567e+03
1.510955e+03,2.326195e+03
1.513848e+03,2.303932e+03
1.516741e+03,2.308967e+03
1.519634e+03,2.309344e+03
1.522526e+03,2.305850e+03
1.525419e+03,2.306458e+03
1.528312e+03,2.294582e+03
1.531204e+03,2.289403e+03
1.534097e+03,2.293446e+03
1.536990e+03,2.292742e+03
1.539882e+03,2.293304e+03
1.542775e+03,2.283836e+03
1.545668e+03,2.275663e+03
1.548561e+03,2.270989e+03
1.551453e+03,2.275004e+03
1.554346e+03,2.276226e+03
1.557239e+03,2.284711e+03
1.560131e+03,2.271923e+03
1.563024e+03,2.252155e+03
1.565917e+03,2.265177e+03
1.568809e+03,2.276096e+03
1.571702e+03,2.260003e+03
1.574595e+03,2.254234e+03
1.577488e+03,2.258034e+03
1.580380e+03,2.264803e+03
1.583273e+03,2.258661e+03
1.586166e+03,2.257723e+03
1.589058e+03,2.242670e+03
1.591951e+03,2.234177e+03
1.594844e+03,2.228805e+03
1.597736e+03,2.223916e+03
1.600629e+03,2.229963e+03
1.603522e+03,2.222695e+03
1.606415e+03,2.217716e+03
1.609307e+03,2.216352e+03
1.612200e+03,2.210559e+03
1.615093e+03,2.209425e+03
1.617985e+03,2.202250e+03
1.620878e+03,2.186628e+03
1.623771e+03,2.174892e+03
1.626663e+03,2.171819e+03
1.629556e+03,2.161090e+03
1.632449e+03,2.149854e+03
1.635342e+03,2.152630e+03
1.638234e+03,2.133737e+03
1.641127e+03,2.141753e+03
1.644020e+03,2.118344e+03
1.646912e+03,2.127950e+03
1.649805e+03,2.113730e+03
1.652698e+03,2.121136e+03
1.655590e+03,2.110548e+03
1.658483e+03,2.113866e+03
1.661376e+03,2.101885e+03
1.664269e+03,2.095098e+03
1.667161e+03,2.089251e+03
1.670054e+03,2.070838e+03
1.672947e+03,2.085938e+03
1.675839e+03,2.067121e+03
1.678732e+03,2.062218e+03
1.681625e+03,2.067091e+03
1.684517e+03,2.058916e+03
1.687410e+03,2.059020e+03
1.690303e+03,2.043160e+03
1.693196e+03,2.047304e+03
1.696088e+03,2.048631e+03
1.698981e+03,2.035994e+03
1.701874e+03,2.043664e+03
1.704766e+03,2.025245e+03
1.707659e+03,2.042084e+03
1.710552e+03,2.023850e+03
1.713444e+03,2.018490e+03
1.716337e+03,2.011262e+03
1.719230e+03,1.998876e+03
1.722123e+03,2.010486e+03
1.725015e+03,2.004489e+03
1.727908e+03,2.014181e+03
1.730801e+03,2.004674e+03
1.733693e+03,1.976200e+03
1.736586e+03,1.977451e+03
1.739479e+03,1.977831e+03
1.742371e+03,1.967215e+03
1.745264e+03,1.969109e+03
1.748157e+03,1.976322e+03
1.751050e+03,1.949743e+03
1.753942e+03,1.953043e+03
1.756835e+03,1.956436e+03
1.759728e+03,1.942058e+03
1.762620e+03,1.938945e+03
1.765513e+03,1.938645e+03
1.768406e+03,1.951015e+03
1.771298e+03,1.922313e+03
1.774191e+03,1.935699e+03
1.777084e+03,1.919030e+03
1.779977e+03,1.902639e+03
1.782869e+03,1.931508e+03
1.785762e+03,1.915411e+03
1.788655e+03,1.896279e+03
1.791547e+03,1.887229e+03
1.794440e+03,1.893383e+03
1.797333e+03,1.894646e+03
1.800225e+03,1.893650e+03
1.803118e+03,1.891655e+03
1.806011e+03,1.887532e+03
1.808904e+03,1.881932e+03
1.811796e+03,1.864658e+03
1.814689e+03,1.858849e+03
1.817582e+03,1.863554e+03
1.820474e+03,1.871267e+03
1.823367e+03,1.853175e+03
1.826260e+03,1.844513e+03
1.829152e+03,1.854169e+03
1.832045e+03,1.846385e+03
1.834938e+03,1.858424e+03
1.837831e+03,1.843154e+03
1.840723e+03,1.819787e+03
1.843616e+03,1.840169e+03
1.846509e+03,1.825301e+03
1.849401e+03,1.803875e+03
1.852294e+03,1.816036e+03
1.855187e+03,1.793057e+03
1.858079e+03,1.799208e+03
1.860972e+03,1.796125e+03
1.863865e+03,1.788632e+03
1.866758e+03,1.782374e+03
1.869650e+03,1.783124e+03
1.872543e+03,1.778745e+03
1.875436e+03,1.768489e+03
1.878328e+03,1.768437e+03
1.881221e+03,1.779527e+03
1.884114e+03,1.755064e+03
1.887006e+03,1.754405e+03
1.889899e+03,1.734010e+03
1.892792e+03,1.738061e+03
1.895685e+03,1.746153e+03
1.898577e+03,1.749806e+03
1.901470e+03,1.748144e+03
1.904363e+03,1.722950e+03
1.907255e+03,1.724898e+03
1.910148e+03,1.732501e+03
1.913041e+03,1.725316e+03
1.915933e+03,1.716648e+03
1.918826e+03,1.718035e+03
1.921719e+03,1.704663e+03
1.924612e+03,1.700060e+03
1.927504e+03,1.701156e+03
1.930397e+03,1.704638e+03
1.933290e+03,1.683031e+03
1.936182e+03,1.695164e+03
1.939075e+03,1.682187e+03
1.941968e+03,1.684620e+03
1.944860e+03,1.658580e+03
1.947753e+03,1.667978e+03
1.950646e+03,1.667160e+03
1.953539e+03,1.664085e+03
1.956431e+03,1.663200e+03
1.959324e+03,1.650524e+03
1.962217e+03,1.640938e+03
1.965109e+03,1.642036e+03
1.968002e+03,1.628472e+03
1.970895e+03,1.628597e+03
1.973787e+03,1.648408e+03
1.976680e+03,1.619131e+03
1.979573e+03,1.616752e+03
1.982466e+03,1.614121e+03
1.985358e+03,1.609320e+03
1.988251e+03,1.620935e+03
1.991144e+03,1.609972e+03
1.994036e+03,1.607300e+03
1.996929e+03,1.587535e+03
1.999822e+03,1.610582e+03
2.002714e+03,1.589045e+03
2.005607e+03,1.590039e+03
2.008500e+03,1.576238e+03
2.011393e+03,1.586701e+03
2.014285e+03,1.571695e+03
2.017178e+03,1.580974e+03
2.020071e+03,1.561853e+03
2.022963e+03,1.564641e+03
2.025856e+03,1.557319e+03
2.028749e+03,1.559220e+03
2.031641e+03,1.530387e+03
2.034534e+03,1.558740e+03
2.037427e+03,1.536085e+03
2.040320e+03,1.531342e+03
2.043212e+03,1.503874e+03
2.046105e+03,1.532254e+03
2.048998e+03,1.520625e+03
2.051890e+03,1.527336e+03
2.054783e+03,1.529116e+03
2.057676e+03,1.514864e+03
2.060568e+03,1.502377e+03
2.063461e+03,1.498481e+03
2.066354e+03,1.494081e+03
2.069247e+03,1.488039e+03
2.072139e+03,1.481561e+03
2.075032e+03,1.468653e+03
2.077925e+03,1.479183e+03
2.080817e+03,1.487181e+03
2.083710e+03,1.471156e+03
2.086603e+03,1.466404e+03
2.089496e+03,1.455288e+03
2.092388e+03,1.450843e+03
2.095281e+03,1.453506e+03
2.098174e+03,1.459776e+03
2.101066e+03,1.433123e+03
2.103959e+03,1.441557e+03
2.106852e+03,1.427132e+03
2.109744e+03,1.425927e+03
2.112637e+03,1.434597e+03
2.115530e+03,1.425402e+03
2.118422e+03,1.399027e+03
2.121315e+03,1.440279e+03
2.124208e+03,1.410746e+03
2.127101e+03,1.403581e+03
2.129993e+03,1.403899e+03
2.132886e+03,1.406549e+03
2.135779e+03,1.408681e+03
2.138671e+03,1.394241e+03
2.141564e+03,1.398242e+03
2.144457e+03,1.383802e+03
2.147350e+03,1.374285e+03
2.150242e+03,1.392779e+03
2.153135e+03,1.377052e+03
2.156028e+03,1.369127e+03
2.158920e+03,1.381287e+03
2.161813e+03,1.362896e+03
2.164706e+03,1.379811e+03
2.167598e+03,1.373009e+03
2.170491e+03,1.366224e+03
2.173384e+03,1.366501e+03
2.176277e+03,1.360795e+03
2.179169e+03,1.338121e+03
2.182062e+03,1.345018e+03
2.184955e+03,1.349845e+03
2.187847e+03,1.346660e+03
2.190740e+03,1.339491e+03
2.193633e+03,1.329623e+03
2.196525e+03,1.324263e+03
2.199418e+03,1.332367e+03
2.202311e+03,1.317865e+03
2.205204e+03,1.310929e+03
2.208096e+03,1.312255e+03
2.210989e+03,1.291498e+03
2.213882e+03,1.297387e+03
2.216774e+03,1.308570e+03
2.219667e+03,1.293890e+03
2.222560e+03,1.295028e+03
2.225452e+03,1.268423e+03
2.228345e+03,1.275307e+03
2.231238e+03,1.293158e+03
2.234131e+03,1.288590e+03
2.237023e+03,1.275277e+03
2.239916e+03,1.280511e+03
2.242809e+03,1.254269e+03
2.245701e+03,1.266012e+03
2.248594e+03,1.250778e+03
2.251487e+03,1.255202e+03
2.254379e+03,1.250322e+03
2.257272e+03,1.252440e+03
2.260165e+03,1.234743e+03
2.263058e+03,1.220527e+03
2.265950e+03,1.236533e+03
2.268843e+03,1.226114e+03
2.271736e+03,1.209741e+03
2.274628e+03,1.235534e+03
2.277521e+03,1.220617e+03
2.280414e+03,1.219570e+03
2.283306e+03,1.210445e+03
2.286199e+03,1.202940e+03
2.289092e+03,1.205350e+03
2.291985e+03,1.199478e+03
2.294877e+03,1.189219e+03
2.297770e+03,1.206198e+03
2.300663e+03,1.191432e+03
2.303555e+03,1.189328e+03
2.306448e+03,1.180420e+03
2.309341e+03,1.183400e+03
2.312233e+03,1.180706e+03
2.315126e+03,1.185617e+03
2.318019e+03,1.170296e+03
2.320912e+03,1.175510e+03
2.323804e+03,1.181956e+03
2.326697e+03,1.169715e+03
2.329590e+03,1.153356e+03
2.332482e+03,1.154622e+03
2.335375e+03,1.150360e+03
2.338268e+03,1.159040e+03
2.341160e+03,1.151630e+03
2.344053e+03,1.147788e+03
2.346946e+03,1.157325e+03
2.349839e+03,1.136473e+03
2.352731e+03,1.154203e+03
2.355624e+03,1.138931e+03
2.358517e+03,1.137369e+03
2.361409e+03,1.143446e+03
2.364302e+03,1.136909e+03
2.367195e+03,1.120699e+03
2.370087e+03,1.130996e+03
2.372980e+03,1.135239e+03
2.375873e+03,1.117715e+03
2.378766e+03,1.118574e+03
2.381658e+03,1.118497e+03
2.384551e+03,1.087960e+03
2.387444e+03,1.091089e+03
2.390336e+03,1.102167e+03
2.393229e+03,1.106607e+03
2.396122e+03,1.099869e+03
2.399014e+03,1.096450e+03
2.401907e+03,1.091117e+03
2.404800e+03,1.072593e+03
2.407693e+03,1.089905e+03
2.410585e+03,1.081431e+03
2.413478e+03,1.084598e+03
2.416371e+03,1.077209e+03
2.419263e+03,1.074039e+03
2.422156e+03,1.077447e+03
2.425049e+03,1.078242e+03
2.427941e+03,1.065861e+03
2.430834e+03,1.068388e+03
2.433727e+03,1.063850e+03
2.436620e+03,1.054787e+03
2.439512e+03,1.064150e+03
2.442405e+03,1.063862e+03
2.445298e+03,1.051315e+03
2.448190e+03,1.053113e+03
2.451083e+03,1.049372e+03
2.453976e+03,1.039169e+03
2.456868e+03,1.030083e+03
2.459761e+03,1.034018e+03
2.462654e+03,1.038495e+03
2.465547e+03,1.039641e+03
2.468439e+03,1.028369e+03
2.471332e+03,1.041429e+03
2.474225e+03,1.018343e+03
2.477117e+03,1.022345e+03
2.480010e+03,1.016668e+03
2.482903e+03,1.020363e+03
2.485795e+03,1.019547e+03
2.488688e+03,1.019556e+03
2.491581e+03,1.021450e+03
2.494474e+03,1.010923e+03
2.497366e+03,1.014976e+03
2.500259e+03,9.967319e+02
2.503152e+03,1.003355e+03
2.506044e+03,9.938358e+02
2.508937e+03,1.005656e+03
2.511830e+03,1.000905e+03
2.514722e+03,9.892924e+02
2.517615e+03,1.012756e+03
2.520508e+03,9.925951e+02
2.523401e+03,9.867957e+02
2.526293e+03,9.846762e+02
2.529186e+03,9.981523e+02
2.532079e+03,9.793026e+02
2.534971e+03,9.814011e+02
2.537864e+03,9.706758e+02
2.540757e+03,9.867838e+02
2.543649e+03,9.894512e+02
2.546542e+03,1.008943e+03
2.549435e+03,9.793412e+02
2.552328e+03,9.914407e+02
2.555220e+03,9.778979e+02
2.558113e+03,9.657448e+02
2.561006e+03,9.784055e+02
2.563898e+03,9.702048e+02
2.566791e+03,9.607641e+02
2.569684e+03,9.678328e+02
2.572576e+03,9.695563e+02
2.575469e+03,9.668936e+02
2.578362e+03,9.727535e+02
2.581255e+03,9.597623e+02
2.584147e+03,9.576940e+02
2.587040e+03,9.480377e+02
2.589933e+03,9.620248e+02
2.592825e+03,9.439851e+02
2.595718e+03,9.475317e+02
2.598611e+03,9.406915e+02
2.601503e+03,9.453027e+02
2.604396e+03,9.307703e+02
2.607289e+03,9.362383e+02
2.610182e+03,9.355383e+02
2.613074e+03,9.331180e+02
2.615967e+03,9.405187e+02
2.618860e+03,9.324691e+02
2.621752e+03,9.267974e+02
2.624645e+03,9.128015e+02
2.627538e+03,9.321842e+02
2.630430e+03,9.101351e+02
2.633323e+03,9.059766e+02
2.636216e+03,9.273427e+02
2.639109e+03,9.162808e+02
2.642001e+03,9.304120e+02
2.644894e+03,9.149560e+02
2.647787e+03,9.022679e+02
2.650679e+03,9.134336e+02
2.653572e+03,9.166482e+02
2.656465e+03,9.242672e+02
2.659357e+03,9.252908e+02
2.662250e+03,8.880291e+02
2.665143e+03,9.147579e+02
2.668036e+03,9.190562e+02
2.670928e+03,9.013486e+02
2.673821e+03,9.050287e+02
2.676714e+03,9.243904e+02
2.679606e+03,9.021740e+02
2.682499e+03,8.959653e+02
2.685392e+03,8.801529e+02
2.688284e+03,8.974211e+02
2.691177e+03,9.039625e+02
2.694070e+03,9.080373e+02
2.696963e+03,8.925632e+02
2.699855e+03,8.904366e+02
2.702748e+03,8.898201e+02
2.705641e+03,8.871765e+02
2.708533e+03,8.946121e+02
2.711426e+03,8.963708e+02
2.714319e+03,8.876432e+02
2.717211e+03,8.929739e+02
2.720104e+03,8.757560e+02
2.722997e+03,8.823594e+02
2.725890e+03,8.642802e+02
2.728782e+03,8.859611e+02
2.731675e+03,8.717414e+02
2.734568e+03,8.842280e+02
2.737460e+03,8.845303e+02
2.740353e+03,8.750716e+02
2.743246e+03,8.592983e+02
2.746138e+03,8.872006e+02
2.749031e+03,8.557416e+02
2.751924e+03,8.745559e+02
2.754817e+03,8.427394e+02
2.757709e+03,8.784811e+02
2.760602e+03,8.635436e+02
2.763495e+03,8.625635e+02
2.766387e+03,8.403848e+02
2.769280e+03,8.519662e+02
2.772173e+03,8.440801e+02
2.775065e+03,8.634336e+02
2.777958e+03,8.501400e+02
2.780851e+03,8.405536e+02
2.783744e+03,8.637784e+02
2.786636e+03,8.512376e+02
2.789529e+03,8.289220e+02
2.792422e+03,8.612410e+02
2.795314e+03,8.390621e+02
2.798207e+03,8.527758e+02
2.801100e+03,8.497780e+02
2.803992e+03,8.508337e+02
2.806885e+03,8.411291e+02
2.809778e+03,8.479344e+02
2.812671e+03,8.297130e+02
2.815563e+03,8.266052e+02
2.818456e+03,8.474610e+02
2.821349e+03,8.371937e+02
2.824241e+03,8.359214e+02
2.827134e+03,8.422151e+02
2.830027e+03,8.586629e+02
2.832919e+03,8.367466e+02
2.835812e+03,8.592372e+02
2.838705e+03,8.470619e+02
2.841598e+03,8.231088e+02
2.844490e+03,8.449128e+02
2.847383e+03,8.328673e+02
2.850276e+03,8.226629e+02
2.853168e+03,8.431461e+02
2.856061e+03,8.422476e+02
2.858954e+03,8.423490e+02
2.861846e+03,8.531178e+02
2.864739e+03,8.419164e+02
2.867632e+03,8.510287e+02
2.870525e+03,8.512271e+02
2.873417e+03,8.524177e+02
2.876310e+03,8.457599e+02
2.879203e+03,8.432775e+02
2.882095e+03,8.324019e+02
2.884988e+03,8.472576e+02
2.887881e+03,8.299494e+02
2.890773e+03,8.519786e+02
2.893666e+03,8.451412e+02
2.896559e+03,8.499646e+02
2.899452e+03,8.493711e+02
2.902344e+03,8.455130e+02
2.905237e+03,8.398976e+02
2.908130e+03,8.367446e+02
2.911022e+03,8.291598e+02
2.913915e+03,8.387845e+02
2.916808e+03,8.146246e+02
2.919700e+03,8.340227e+02
2.922593e+03,8.208820e+02
2.925486e+03,8.213275e+02
2.928379e+03,8.306640e+02
2.931271e+03,8.270576e+02
2.934164e+03,8.187708e+02
2.937057e+03,8.049393e+02
2.939949e+03,7.979890e+02
2.942842e+03,7.966221e+02
2.945735e+03,8.049778e+02
2.948627e+03,7.991547e+02
2.951520e+03,8.365782e+02
2.954413e+03,8.354050e+02
2.957306e+03,8.210480e+02
2.960198e+03,8.099567e+02
2.963091e+03,7.998880e+02
2.965984e+03,8.074695e+02
2.968876e+03,7.749832e+02
2.971769e+03,8.029369e+02
2.974662e+03,7.820331e+02
2.977554e+03,7.774625e+02
2.980447e+03,7.806591e+02
2.983340e+03,8.063817e+02
2.986233e+03,7.776086e+02
2.989125e+03,8.250894e+02
2.992018e+03,7.777435e+02
2.994911e+03,7.782415e+02
2.997803e+03,7.579982e+02
3.000696e+03,7.644693e+02
3.003589e+03,7.648179e+02
3.006481e+03,7.775816e+02
3.009374e+03,7.637324e+02
3.012267e+03,7.729808e+02
3.015160e+03,7.531990e+02
3.018052e+03,7.707419e+02
3.020945e+03,7.744393e+02
3.023838e+03,7.447659e+02
3.026730e+03,7.525815e+02
3.029623e+03,7.682303e+02
3.032516e+03,7.636348e+02
3.035408e+03,7.508239e+02
3.038301e+03,7.726399e+02
3.041194e+03,7.515872e+02
3.044087e+03,7.621465e+02
3.046979e+03,7.573380e+02
3.049872e+03,7.408253e+02
3.052765e+03,7.506981e+02
3.055657e+03,7.591641e+02
3.058550e+03,7.528804e+02
3.061443e+03,7.460018e+02
3.064335e+03,7.424164e+02
3.067228e+03,7.508036e+02
3.070121e+03,7.597305e+02
3.073014e+03,7.530231e+02
3.075906e+03,7.716050e+02
3.078799e+03,7.510153e+02
3.081692e+03,7.556953e+02
3.084584e+03,7.709704e+02
3.087477e+03,7.422094e+02
3.090370e+03,7.413153e+02
3.093262e+03,7.540505e+02
3.096155e+03,7.747164e+02
3.099048e+03,7.621274e+02
3.101941e+03,7.751316e+02
3.104833e+03,7.413724e+02
3.107726e+03,8.046301e+02
3.110619e+03,7.326085e+02
3.113511e+03,7.538097e+02
3.116404e+03,7.136081e+02
3.119297e+03,7.591702e+02
3.122189e+03,7.625267e+02
3.125082e+03,7.647910e+02
3.127975e+03,7.671525e+02
3.130868e+03,7.573392e+02
3.133760e+03,7.976395e+02
3.136653e+03,7.472012e+02
3.139546e+03,7.489872e+02
3.142438e+03,7.487401e+02
3.145331e+03,7.177991e+02
3.148224e+03,7.627028e+02
3.151116e+03,7.522079e+02
3.154009e+03,7.788768e+02
3.156902e+03,7.689266e+02
3.159795e+03,7.589447e+02
3.162687e+03,7.419196e+02
3.165580e+03,7.690636e+02
3.168473e+03,8.069814e+02
3.171365e+03,7.456260e+02
3.174258e+03,7.662247e+02
3.177151e+03,7.514078e+02
3.180043e+03,7.565153e+02
3.182936e+03,7.625807e+02
3.185829e+03,7.617585e+02
3.188722e+03,7.720673e+02
3.191614e+03,7.572162e+02
3.194507e+03,7.984891e+02
3.197400e+03,7.689202e+02
3.200292e+03,7.981710e+02
3.203185e+03,0.000000e+00
3.206078e+03,0.000000e+00
3.208970e+03,0.000000e+00
3.211863e+03,0.000000e+00
3.214756e+03,0.000000e+00
3.217649e+03,0.000000e+00
3.220541e+03,0.000000e+00
3.223434e+03,0.000000e+00
3.226327e+03,0.000000e+00
3.229219e+03,0.000000e+00
3.232112e+03,0.000000e+00
3.235005e+03,0.000000e+00
3.237897e+03,0.000000e+00
3.240790e+03,0.000000e+00
3.243683e+03,0.000000e+00
3.246576e+03,0.000000e+00
3.249468e+03,0.000000e+00
3.252361e+03,0.000000e+00
3.255254e+03,0.000000e+00
3.258146e+03,0.000000e+00
3.261039e+03,0.000000e+00
3.263932e+03,0.000000e+00
3.266824e+03,0.000000e+00
3.269717e+03,0.000000e+00
3.272610e+03,0.000000e+00
3.275503e+03,0.000000e+00
3.278395e+03,0.000000e+00
3.281288e+03,0.000000e+00
3.284181e+03,0.000000e+00
3.287073e+03,0.000000e+00
3.289966e+03,0.000000e+00
3.292859e+03,0.000000e+00
3.295751e+03,0.000000e+00
3.298644e+03,0.000000e+00
3.301537e+03,0.000000e+00
3.304430e+03,0.000000e+00
3.307322e+03,0.000000e+00
3.310215e+03,0.000000e+00
3.313108e+03,0.000000e+00
3.316000e+03,0.000000e+00
3.318893e+03,0.000000e+00
3.321786e+03,0.000000e+00
3.324678e+03,0.000000e+00
3.327571e+03,0.000000e+00
3.330464e+03,0.000000e+00
3.333357e+03,0.000000e+00
3.336249e+03,0.000000e+00
3.339142e+03,0.000000e+00
3.342035e+03,0.000000e+00
3.344927e+03,0.000000e+00
3.347820e+03,0.000000e+00
3.350713e+03,0.000000e+00
3.353605e+03,0.000000e+00
3.356498e+03,0.000000e+00
3.359391e+03,0.000000e+00
3.362284e+03,0.000000e+00
3.365176e+03,0.000000e+00
3.368069e+03,0.000000e+00
3.370962e+03,0.000000e+00
3.373854e+03,0.000000e+00
3.376747e+03,0.000000e+00
3.379640e+03,0.000000e+00
3.382532e+03,0.000000e+00
3.385425e+03,0.000000e+00
3.388318e+03,0.000000e+00
3.391211e+03,0.000000e+00
3.394103e+03,0.000000e+00
3.396996e+03,0.000000e+00
3.399889e+03,0.000000e+00
3.402781e+03,0.000000e+00
3.405674e+03,0.000000e+00
3.408567e+03,0.000000e+00
3.411459e+03,0.000000e+00
3.414352e+03,0.000000e+00
3.417245e+03,0.000000e+00
3.420138e+03,0.000000e+00
3.423030e+03,0.000000e+00
3.425923e+03,0.000000e+00
3.428816e+03,0.000000e+00
3.431708e+03,0.000000e+00
3.434601e+03,0.000000e+00
3.437494e+03,0.000000e+00
3.440386e+03,0.000000e+00
3.443279e+03,0.000000e+00
3.446172e+03,0.000000e+00
3.449065e+03,0.000000e+00
3.451957e+03,0.000000e+00
3.454850e+03,0.000000e+00
3.457743e+03,0.000000e+00
3.460635e+03,0.000000e+00
3.463528e+03,0.000000e+00
3.466421e+03,0.000000e+00
3.469313e+03,0.000000e+00
3.472206e+03,0.000000e+00
3.475099e+03,0.000000e+00
3.477992e+03,0.000000e+00
3.480884e+03,0.000000e+00
3.483777e+03,0.000000e+00
3.486670e+03,0.000000e+00
3.489563e+03,0.000000e+00
3.492455e+03,0.000000e+00
3.495348e+03,0.000000e+00
3.498240e+03,0.000000e+00
3.500169e+03,0.000000e+00