File: RAMAN_data/12022024_r1/black fibre13.CSV
9.931763e+01,0.000000e+00
1.022103e+02,0.000000e+00
1.051030e+02,0.000000e+00
1.079957e+02,0.000000e+00
1.108884e+02,0.000000e+00
1.137811e+02,0.000000e+00
1.166738e+02,0.000000e+00
1.195665e+02,0.000000e+00
1.224592e+02,0.000000e+00
1.253519e+02,0.000000e+00
1.282446e+02,0.000000e+00
1.311373e+02,0.000000e+00
1.340300e+02,0.000000e+00
1.369227e+02,0.000000e+00
1.398154e+02,0.000000e+00
1.427081e+02,0.000000e+00
1.456008e+02,0.000000e+00
1.484935e+02,0.000000e+00
1.513862e+02,0.000000e+00
1.542789e+02,0.000000e+00
1.571716e+02,0.000000e+00
1.600643e+02,0.000000e+00
1.629570e+02,0.000000e+00
1.658497e+02,0.000000e+00
1.687424e+02,0.000000e+00
1.716351e+02,0.000000e+00
1.745278e+02,0.000000e+00
1.774205e+02,0.000000e+00
1.803132e+02,0.000000e+00
1.832059e+02,0.000000e+00
1.860986e+02,0.000000e+00
1.889913e+02,0.000000e+00
1.918840e+02,0.000000e+00
1.947767e+02,0.000000e+00
1.976694e+02,0.000000e+00
2.005621e+02,3.929058e+02
2.034548e+02,3.931759e+02
2.063475e+02,3.923248e+02
2.092402e+02,3.892098e+02
2.121329e+02,3.879074e+02
2.150256e+02,3.830475e+02
2.179183e+02,3.898839e+02
2.208110e+02,3.854175e+02
2.237037e+02,3.844682e+02
2.265964e+02,3.817276e+02
2.294892e+02,3.790139e+02
2.323819e+02,3.787860e+02
2.352746e+02,3.766606e+02
2.381673e+02,3.782162e+02
2.410600e+02,3.795959e+02
2.439527e+02,3.787363e+02
2.468454e+02,3.763934e+02
2.497381e+02,3.777715e+02
2.526308e+02,3.732426e+02
2.555235e+02,3.706944e+02
2.584161e+02,3.715768e+02
2.613088e+02,3.709015e+02
2.642015e+02,3.707769e+02
2.670942e+02,3.702425e+02
2.699869e+02,3.710823e+02
2.728796e+02,3.659445e+02
2.757723e+02,3.641248e+02
2.786650e+02,3.637243e+02
2.815577e+02,3.631854e+02
2.844504e+02,3.652554e+02
2.873431e+02,3.659374e+02
2.902358e+02,3.646338e+02
2.931285e+02,3.582930e+02
2.960212e+02,3.595489e+02
2.989139e+02,3.592538e+02
3.018066e+02,3.576422e+02
3.046993e+02,3.606038e+02
3.075920e+02,3.567516e+02
3.104847e+02,3.492370e+02
3.133774e+02,3.560253e+02
3.162701e+02,3.538369e+02
3.191628e+02,3.510435e+02
3.220555e+02,3.519501e+02
3.249482e+02,3.540695e+02
3.278409e+02,3.548956e+02
3.307336e+02,3.566250e+02
3.336263e+02,3.465053e+02
3.365190e+02,3.508950e+02
3.394117e+02,3.479213e+02
3.423044e+02,3.497343e+02
3.451971e+02,3.464570e+02
3.480898e+02,3.458081e+02
3.509825e+02,3.400023e+02
3.538752e+02,3.434921e+02
3.567680e+02,3.428346e+02
3.596607e+02,3.417982e+02
3.625534e+02,3.394059e+02
3.654461e+02,3.371674e+02
3.683388e+02,3.413484e+02
3.712315e+02,3.412121e+02
3.741242e+02,3.491310e+02
3.770169e+02,3.501518e+02
3.799096e+02,3.465013e+02
3.828023e+02,3.382096e+02
3.856950e+02,3.350896e+02
3.885877e+02,3.353313e+02
3.914804e+02,3.314617e+02
3.943731e+02,3.257124e+02
3.972658e+02,3.252753e+02
4.001585e+02,3.283332e+02
4.030512e+02,3.237699e+02
4.059439e+02,3.254370e+02
4.088366e+02,3.236836e+02
4.117293e+02,3.155697e+02
4.146220e+02,3.217520e+02
4.175147e+02,3.220811e+02
4.204074e+02,3.211012e+02
4.233001e+02,3.194164e+02
4.261928e+02,3.212577e+02
4.290855e+02,3.197844e+02
4.319782e+02,3.199395e+02
4.348709e+02,3.207645e+02
4.377636e+02,3.208178e+02
4.406563e+02,3.224982e+02
4.435490e+02,3.155872e+02
4.464417e+02,3.116107e+02
4.493344e+02,3.118099e+02
4.522271e+02,3.135727e+02
4.551198e+02,3.199044e+02
4.580125e+02,3.165145e+02
4.609052e+02,3.097674e+02
4.637979e+02,3.085244e+02
4.666906e+02,3.106453e+02
4.695833e+02,3.062965e+02
4.724760e+02,3.042774e+02
4.753687e+02,3.040596e+02
4.782614e+02,3.023164e+02
4.811541e+02,3.013838e+02
4.840468e+02,3.025871e+02
4.869395e+02,3.056906e+02
4.898322e+02,3.051720e+02
4.927249e+02,3.009624e+02
4.956176e+02,3.052294e+02
4.985103e+02,3.007403e+02
5.014030e+02,3.019836e+02
5.042957e+02,3.003383e+02
5.071884e+02,2.947196e+02
5.100811e+02,2.947658e+02
5.129738e+02,2.989897e+02
5.158665e+02,3.040215e+02
5.187592e+02,2.935671e+02
5.216519e+02,2.958714e+02
5.245446e+02,2.917055e+02
5.274373e+02,2.996503e+02
5.303300e+02,2.943107e+02
5.332227e+02,2.930091e+02
5.361154e+02,2.900489e+02
5.390081e+02,2.934045e+02
5.419008e+02,2.887846e+02
5.447935e+02,2.932069e+02
5.476862e+02,2.868521e+02
5.505789e+02,2.880003e+02
5.534716e+02,2.854672e+02
5.563643e+02,2.871760e+02
5.592570e+02,2.875157e+02
5.621497e+02,2.854311e+02
5.650424e+02,2.840222e+02
5.679351e+02,2.832136e+02
5.708278e+02,2.798155e+02
5.737205e+02,2.830540e+02
5.766132e+02,2.831774e+02
5.795059e+02,2.823641e+02
5.823986e+02,2.816728e+02
5.852913e+02,2.742945e+02
5.881840e+02,2.830842e+02
5.910767e+02,2.788932e+02
5.939694e+02,2.794731e+02
5.968621e+02,2.864191e+02
5.997548e+02,2.841561e+02
6.026475e+02,2.804331e+02
6.055402e+02,2.778073e+02
6.084329e+02,2.800839e+02
6.113256e+02,2.804039e+02
6.142183e+02,2.827245e+02
6.171110e+02,2.820532e+02
6.200037e+02,2.800100e+02
6.228964e+02,2.733618e+02
6.257891e+02,2.799435e+02
6.286818e+02,2.771413e+02
6.315745e+02,2.780917e+02
6.344672e+02,2.758244e+02
6.373599e+02,2.729289e+02
6.402526e+02,2.758827e+02
6.431453e+02,2.676976e+02
6.460380e+02,2.719751e+02
6.489307e+02,2.697644e+02
6.518234e+02,2.720807e+02
6.547161e+02,2.729721e+02
6.576088e+02,2.727454e+02
6.605015e+02,2.735244e+02
6.633942e+02,2.677131e+02
6.662869e+02,2.704267e+02
6.691796e+02,2.734974e+02
6.720723e+02,2.701625e+02
6.749650e+02,2.678765e+02
6.778577e+02,2.703996e+02
6.807504e+02,2.676328e+02
6.836431e+02,2.671269e+02
6.865358e+02,2.711898e+02
6.894285e+02,2.633009e+02
6.923212e+02,2.670395e+02
6.952139e+02,2.676687e+02
6.981066e+02,2.683780e+02
7.009993e+02,2.580287e+02
7.038920e+02,2.667781e+02
7.067847e+02,2.647279e+02
7.096774e+02,2.634093e+02
7.125701e+02,2.613685e+02
7.154628e+02,2.619838e+02
7.183555e+02,2.667718e+02
7.212482e+02,2.659327e+02
7.241409e+02,2.589562e+02
7.270336e+02,2.618853e+02
7.299263e+02,2.528728e+02
7.328190e+02,2.644176e+02
7.357117e+02,2.602785e+02
7.386044e+02,2.595865e+02
7.414971e+02,2.645699e+02
7.443898e+02,2.613456e+02
7.472825e+02,2.583595e+02
7.501752e+02,2.612216e+02
7.530679e+02,2.583781e+02
7.559606e+02,2.519944e+02
7.588533e+02,2.556947e+02
7.617460e+02,2.613275e+02
7.646387e+02,2.593675e+02
7.675314e+02,2.546799e+02
7.704241e+02,2.548563e+02
7.733168e+02,2.523320e+02
7.762095e+02,2.534373e+02
7.791022e+02,2.528855e+02
7.819949e+02,2.533018e+02
7.848876e+02,2.531085e+02
7.877803e+02,2.539263e+02
7.906730e+02,2.535888e+02
7.935657e+02,2.512359e+02
7.964584e+02,2.502075e+02
7.993511e+02,2.563397e+02
8.022438e+02,2.520580e+02
8.051365e+02,2.481967e+02
8.080292e+02,2.487659e+02
8.109219e+02,2.508411e+02
8.138146e+02,2.502126e+02
8.167073e+02,2.464719e+02
8.196000e+02,2.480922e+02
8.224927e+02,2.501477e+02
8.253854e+02,2.520726e+02
8.282781e+02,2.458018e+02
8.311708e+02,2.484620e+02
8.340635e+02,2.428524e+02
8.369562e+02,2.475795e+02
8.398489e+02,2.450174e+02
8.427416e+02,2.446547e+02
8.456343e+02,2.434119e+02
8.485270e+02,2.419046e+02
8.514197e+02,2.438486e+02
8.543124e+02,2.419440e+02
8.572051e+02,2.424774e+02
8.600978e+02,2.461154e+02
8.629905e+02,2.437276e+02
8.658832e+02,2.489936e+02
8.687759e+02,2.444194e+02
8.716686e+02,2.454043e+02
8.745613e+02,2.501949e+02
8.774540e+02,2.474595e+02
8.803467e+02,2.494709e+02
8.832394e+02,2.510134e+02
8.861321e+02,2.496140e+02
8.890248e+02,2.436357e+02
8.919175e+02,2.484140e+02
8.948102e+02,2.426522e+02
8.977029e+02,2.433021e+02
9.005956e+02,2.389497e+02
9.034883e+02,2.357402e+02
9.063810e+02,2.390384e+02
9.092737e+02,2.375200e+02
9.121664e+02,2.335985e+02
9.150591e+02,2.371732e+02
9.179518e+02,2.354263e+02
9.208445e+02,2.390356e+02
9.237372e+02,2.344582e+02
9.266299e+02,2.327978e+02
9.295226e+02,2.321223e+02
9.324153e+02,2.360147e+02
9.353080e+02,2.312855e+02
9.382007e+02,2.282186e+02
9.410934e+02,2.294755e+02
9.439861e+02,2.337730e+02
9.468788e+02,2.333216e+02
9.497715e+02,2.364638e+02
9.526642e+02,2.311846e+02
9.555569e+02,2.305435e+02
9.584496e+02,2.293693e+02
9.613423e+02,2.310176e+02
9.642350e+02,2.312057e+02
9.671277e+02,2.316793e+02
9.700204e+02,2.305344e+02
9.729131e+02,2.310779e+02
9.758058e+02,2.274850e+02
9.786985e+02,2.299578e+02
9.815912e+02,2.332423e+02
9.844839e+02,2.275814e+02
9.873766e+02,2.307276e+02
9.902693e+02,2.316157e+02
9.931620e+02,2.279338e+02
9.960547e+02,2.258487e+02
9.989474e+02,2.268772e+02
1.001840e+03,2.255610e+02
1.004733e+03,2.237646e+02
1.007626e+03,2.235183e+02
1.010518e+03,2.197230e+02
1.013411e+03,2.268174e+02
1.016304e+03,2.221077e+02
1.019196e+03,2.211165e+02
1.022089e+03,2.199686e+02
1.024982e+03,2.247190e+02
1.027875e+03,2.223211e+02
1.030767e+03,2.248187e+02
1.033660e+03,2.223324e+02
1.036552e+03,2.193075e+02
1.039445e+03,2.210559e+02
1.042338e+03,2.213910e+02
1.045231e+03,2.218240e+02
1.048123e+03,2.222617e+02
1.051016e+03,2.196277e+02
1.053909e+03,2.255049e+02
1.056802e+03,2.184128e+02
1.059694e+03,2.216549e+02
1.062587e+03,2.187390e+02
1.065479e+03,2.204310e+02
1.068372e+03,2.252905e+02
1.071265e+03,2.194694e+02
1.074158e+03,2.199926e+02
1.077050e+03,2.229521e+02
1.079943e+03,2.231364e+02
1.082836e+03,2.262230e+02
1.085729e+03,2.277830e+02
1.088621e+03,2.363902e+02
1.091514e+03,2.395025e+02
1.094406e+03,2.424844e+02
1.097299e+03,2.363862e+02
1.100192e+03,2.283894e+02
1.103085e+03,2.256588e+02
1.105977e+03,2.252315e+02
1.108870e+03,2.230901e+02
1.111763e+03,2.238640e+02
1.114656e+03,2.297646e+02
1.117548e+03,2.311637e+02
1.120441e+03,2.297585e+02
1.123334e+03,2.268275e+02
1.126226e+03,2.238036e+02
1.129119e+03,2.194386e+02
1.132012e+03,2.190315e+02
1.134904e+03,2.153851e+02
1.137797e+03,2.168961e+02
1.140690e+03,2.142412e+02
1.143583e+03,2.156080e+02
1.146475e+03,2.142742e+02
1.149368e+03,2.184138e+02
1.152261e+03,2.147415e+02
1.155153e+03,2.170173e+02
1.158046e+03,2.076604e+02
1.160939e+03,2.119162e+02
1.163831e+03,2.081883e+02
1.166724e+03,2.103730e+02
1.169617e+03,2.072509e+02
1.172510e+03,2.061159e+02
1.175402e+03,2.032602e+02
1.178295e+03,2.037447e+02
1.181188e+03,2.042504e+02
1.184080e+03,2.014074e+02
1.186973e+03,2.024310e+02
1.189866e+03,2.043673e+02
1.192758e+03,2.011707e+02
1.195651e+03,2.039508e+02
1.198544e+03,2.002277e+02
1.201437e+03,2.007397e+02
1.204329e+03,2.020240e+02
1.207222e+03,2.020457e+02
1.210115e+03,2.021257e+02
1.213007e+03,1.992868e+02
1.215900e+03,2.044395e+02
1.218793e+03,1.996426e+02
1.221685e+03,1.987582e+02
1.224578e+03,2.009735e+02
1.227471e+03,1.996145e+02
1.230364e+03,1.998504e+02
1.233256e+03,1.982165e+02
1.236149e+03,2.020898e+02
1.239042e+03,1.970023e+02
1.241934e+03,1.966678e+02
1.244827e+03,2.000863e+02
1.247720e+03,1.997668e+02
1.250612e+03,1.978403e+02
1.253505e+03,1.962139e+02
1.256398e+03,1.953255e+02
1.259291e+03,1.967830e+02
1.262183e+03,1.982294e+02
1.265076e+03,1.973778e+02
1.267969e+03,1.976828e+02
1.270861e+03,1.974454e+02
1.273754e+03,1.995315e+02
1.276647e+03,1.996108e+02
1.279539e+03,2.014206e+02
1.282432e+03,2.008133e+02
1.285325e+03,1.984324e+02
1.288218e+03,1.976850e+02
1.291110e+03,1.999192e+02
1.294003e+03,2.007933e+02
1.296896e+03,1.969946e+02
1.299788e+03,1.965889e+02
1.302681e+03,1.951018e+02
1.305574e+03,1.979376e+02
1.308466e+03,1.984352e+02
1.311359e+03,1.980532e+02
1.314252e+03,1.973229e+02
1.317145e+03,2.000358e+02
1.320037e+03,2.015356e+02
1.322930e+03,2.002342e+02
1.325823e+03,2.001250e+02
1.328715e+03,2.012663e+02
1.331608e+03,2.026406e+02
1.334501e+03,2.044631e+02
1.337393e+03,2.020675e+02
1.340286e+03,2.009083e+02
1.343179e+03,2.002797e+02
1.346072e+03,2.030653e+02
1.348964e+03,1.984838e+02
1.351857e+03,1.910764e+02
1.354750e+03,1.992710e+02
1.357642e+03,1.943697e+02
1.360535e+03,1.955897e+02
1.363428e+03,1.942806e+02
1.366320e+03,1.952599e+02
1.369213e+03,1.966034e+02
1.372106e+03,1.971111e+02
1.374999e+03,1.964932e+02
1.377891e+03,1.988424e+02
1.380784e+03,1.998524e+02
1.383677e+03,1.961242e+02
1.386569e+03,1.928335e+02
1.389462e+03,1.884426e+02
1.392355e+03,1.930942e+02
1.395247e+03,1.855443e+02
1.398140e+03,1.833899e+02
1.401033e+03,1.875982e+02
1.403926e+03,1.852133e+02
1.406818e+03,1.861002e+02
1.409711e+03,1.862365e+02
1.412604e+03,1.837471e+02
1.415496e+03,1.835482e+02
1.418389e+03,1.837175e+02
1.421282e+03,1.851145e+02
1.424174e+03,1.804845e+02
1.427067e+03,1.824324e+02
1.429960e+03,1.830504e+02
1.432853e+03,1.832061e+02
1.435745e+03,1.810899e+02
1.438638e+03,1.783735e+02
1.441531e+03,1.814552e+02
1.444423e+03,1.820266e+02
1.447316e+03,1.795955e+02
1.450209e+03,1.781538e+02
1.453101e+03,1.816000e+02
1.455994e+03,1.794012e+02
1.458887e+03,1.807391e+02
1.461780e+03,1.768501e+02
1.464672e+03,1.791560e+02
1.467565e+03,1.801624e+02
1.470458e+03,1.797709e+02
1.473350e+03,1.743931e+02
1.476243e+03,1.763013e+02
1.479136e+03,1.752085e+02
1.482028e+03,1.759308e+02
1.484921e+03,1.726121e+02
1.487814e+03,1.758355e+02
1.490707e+03,1.706568e+02
1.493599e+03,1.707286e+02
1.496492e+03,1.754884e+02
1.499385e+03,1.694613e+02
1.502277e+03,1.724370e+02
1.505170e+03,1.743851e+02
1.508063e+03,1.685684e+02
1.510955e+03,1.688306e+02
1.513848e+03,1.692281e+02
1.516741e+03,1.745251e+02
1.519634e+03,1.732961e+02
1.522526e+03,1.748222e+02
1.525419e+03,1.779064e+02
1.528312e+03,1.713292e+02
1.531204e+03,1.716234e+02
1.534097e+03,1.735222e+02
1.536990e+03,1.694965e+02
1.539882e+03,1.682381e+02
1.542775e+03,1.660894e+02
1.545668e+03,1.679887e+02
1.548561e+03,1.704386e+02
1.551453e+03,1.712625e+02
1.554346e+03,1.686349e+02
1.557239e+03,1.675792e+02
1.560131e+03,1.679428e+02
1.563024e+03,1.681498e+02
1.565917e+03,1.651698e+02
1.568809e+03,1.702568e+02
1.571702e+03,1.695707e+02
1.574595e+03,1.634515e+02
1.577488e+03,1.649208e+02
1.580380e+03,1.644795e+02
1.583273e+03,1.680474e+02
1.586166e+03,1.682837e+02
1.589058e+03,1.653787e+02
1.591951e+03,1.662468e+02
1.594844e+03,1.663416e+02
1.597736e+03,1.649792e+02
1.600629e+03,1.686216e+02
1.603522e+03,1.603686e+02
1.606415e+03,1.646380e+02
1.609307e+03,1.625333e+02
1.612200e+03,1.599627e+02
1.615093e+03,1.627361e+02
1.617985e+03,1.664290e+02
1.620878e+03,1.652616e+02
1.623771e+03,1.614859e+02
1.626663e+03,1.593413e+02
1.629556e+03,1.587982e+02
1.632449e+03,1.604361e+02
1.635342e+03,1.601554e+02
1.638234e+03,1.641509e+02
1.641127e+03,1.550222e+02
1.644020e+03,1.597884e+02
1.646912e+03,1.576540e+02
1.649805e+03,1.571453e+02
1.652698e+03,1.602197e+02
1.655590e+03,1.550865e+02
1.658483e+03,1.544072e+02
1.661376e+03,1.505129e+02
1.664269e+03,1.539150e+02
1.667161e+03,1.575459e+02
1.670054e+03,1.502471e+02
1.672947e+03,1.537190e+02
1.675839e+03,1.509123e+02
1.678732e+03,1.490798e+02
1.681625e+03,1.536582e+02
1.684517e+03,1.526638e+02
1.687410e+03,1.523085e+02
1.690303e+03,1.499919e+02
1.693196e+03,1.510243e+02
1.696088e+03,1.506456e+02
1.698981e+03,1.501033e+02
1.701874e+03,1.515725e+02
1.704766e+03,1.490393e+02
1.707659e+03,1.502198e+02
1.710552e+03,1.472964e+02
1.713444e+03,1.547989e+02
1.716337e+03,1.490528e+02
1.719230e+03,1.461072e+02
1.722123e+03,1.448387e+02
1.725015e+03,1.452141e+02
1.727908e+03,1.449162e+02
1.730801e+03,1.445796e+02
1.733693e+03,1.472451e+02
1.736586e+03,1.484304e+02
1.739479e+03,1.459120e+02
1.742371e+03,1.485612e+02
1.745264e+03,1.496582e+02
1.748157e+03,1.464403e+02
1.751050e+03,1.415043e+02
1.753942e+03,1.445488e+02
1.756835e+03,1.473271e+02
1.759728e+03,1.433960e+02
1.762620e+03,1.461863e+02
1.765513e+03,1.472002e+02
1.768406e+03,1.474351e+02
1.771298e+03,1.453660e+02
1.774191e+03,1.425248e+02
1.777084e+03,1.440290e+02
1.779977e+03,1.424162e+02
1.782869e+03,1.478179e+02
1.785762e+03,1.445767e+02
1.788655e+03,1.373961e+02
1.791547e+03,1.414425e+02
1.794440e+03,1.385451e+02
1.797333e+03,1.382069e+02
1.800225e+03,1.440909e+02
1.803118e+03,1.383889e+02
1.806011e+03,1.399892e+02
1.808904e+03,1.418918e+02
1.811796e+03,1.394249e+02
1.814689e+03,1.396862e+02
1.817582e+03,1.400027e+02
1.820474e+03,1.362464e+02
1.823367e+03,1.386614e+02
1.826260e+03,1.373717e+02
1.829152e+03,1.391948e+02
1.832045e+03,1.429503e+02
1.834938e+03,1.429346e+02
1.837831e+03,1.359577e+02
1.840723e+03,1.324378e+02
1.843616e+03,1.412270e+02
1.846509e+03,1.337613e+02
1.849401e+03,1.324954e+02
1.852294e+03,1.349030e+02
1.855187e+03,1.345526e+02
1.858079e+03,1.357075e+02
1.860972e+03,1.401780e+02
1.863865e+03,1.308777e+02
1.866758e+03,1.359454e+02
1.869650e+03,1.376441e+02
1.872543e+03,1.333413e+02
1.875436e+03,1.359093e+02
1.878328e+03,1.317154e+02
1.881221e+03,1.335961e+02
1.884114e+03,1.333417e+02
1.887006e+03,1.307683e+02
1.889899e+03,1.313831e+02
1.892792e+03,1.297193e+02
1.895685e+03,1.306939e+02
1.898577e+03,1.332623e+02
1.901470e+03,1.347794e+02
1.904363e+03,1.315148e+02
1.907255e+03,1.305934e+02
1.910148e+03,1.318556e+02
1.913041e+03,1.287601e+02
1.915933e+03,1.316691e+02
1.918826e+03,1.329810e+02
1.921719e+03,1.258984e+02
1.924612e+03,1.269490e+02
1.927504e+03,1.293907e+02
1.930397e+03,1.279601e+02
1.933290e+03,1.284081e+02
1.936182e+03,1.337440e+02
1.939075e+03,1.281531e+02
1.941968e+03,1.278295e+02
1.944860e+03,1.341716e+02
1.947753e+03,1.319494e+02
1.950646e+03,1.296398e+02
1.953539e+03,1.283423e+02
1.956431e+03,1.269950e+02
1.959324e+03,1.248730e+02
1.962217e+03,1.279067e+02
1.965109e+03,1.181950e+02
1.968002e+03,1.222044e+02
1.970895e+03,1.250850e+02
1.973787e+03,1.250602e+02
1.976680e+03,1.263131e+02
1.979573e+03,1.230053e+02
1.982466e+03,1.224506e+02
1.985358e+03,1.250631e+02
1.988251e+03,1.233095e+02
1.991144e+03,1.226889e+02
1.994036e+03,1.262901e+02
1.996929e+03,1.246650e+02
1.999822e+03,1.239607e+02
2.002714e+03,1.259091e+02
2.005607e+03,1.219472e+02
2.008500e+03,1.195510e+02
2.011393e+03,1.193324e+02
2.014285e+03,1.238306e+02
2.017178e+03,1.231034e+02
2.020071e+03,1.200517e+02
2.022963e+03,1.192565e+02
2.025856e+03,1.219033e+02
2.028749e+03,1.226817e+02
2.031641e+03,1.221114e+02
2.034534e+03,1.182649e+02
2.037427e+03,1.211930e+02
2.040320e+03,1.189464e+02
2.043212e+03,1.189906e+02
2.046105e+03,1.244231e+02
2.048998e+03,1.191099e+02
2.051890e+03,1.175314e+02
2.054783e+03,1.156434e+02
2.057676e+03,1.205024e+02
2.060568e+03,1.141065e+02
2.063461e+03,1.167649e+02
2.066354e+03,1.178568e+02
2.069247e+03,1.162883e+02
2.072139e+03,1.168346e+02
2.075032e+03,1.133756e+02
2.077925e+03,1.146273e+02
2.080817e+03,1.137168e+02
2.083710e+03,1.117303e+02
2.086603e+03,1.142252e+02
2.089496e+03,1.132323e+02
2.092388e+03,1.064317e+02
2.095281e+03,1.134775e+02
2.098174e+03,1.191009e+02
2.101066e+03,1.089562e+02
2.103959e+03,1.075596e+02
2.106852e+03,1.116619e+02
2.109744e+03,1.106216e+02
2.112637e+03,1.122482e+02
2.115530e+03,1.100876e+02
2.118422e+03,1.159406e+02
2.121315e+03,1.111994e+02
2.124208e+03,1.103955e+02
2.127101e+03,1.071962e+02
2.129993e+03,1.119535e+02
2.132886e+03,1.094922e+02
2.135779e+03,1.093046e+02
2.138671e+03,1.054905e+02
2.141564e+03,1.073327e+02
2.144457e+03,1.114711e+02
2.147350e+03,1.087145e+02
2.150242e+03,1.084184e+02
2.153135e+03,1.142632e+02
2.156028e+03,1.138852e+02
2.158920e+03,1.085385e+02
2.161813e+03,1.034124e+02
2.164706e+03,1.074455e+02
2.167598e+03,1.054935e+02
2.170491e+03,1.089158e+02
2.173384e+03,1.006995e+02
2.176277e+03,1.063651e+02
2.179169e+03,1.037912e+02
2.182062e+03,1.027499e+02
2.184955e+03,1.081741e+02
2.187847e+03,1.123225e+02
2.190740e+03,1.038956e+02
2.193633e+03,1.021877e+02
2.196525e+03,1.084968e+02
2.199418e+03,1.075001e+02
2.202311e+03,1.067889e+02
2.205204e+03,1.033498e+02
2.208096e+03,1.074233e+02
2.210989e+03,1.007654e+02
2.213882e+03,1.059782e+02
2.216774e+03,1.024627e+02
2.219667e+03,1.062859e+02
2.222560e+03,1.052821e+02
2.225452e+03,1.043817e+02
2.228345e+03,1.033244e+02
2.231238e+03,1.048154e+02
2.234131e+03,1.016869e+02
2.237023e+03,1.032077e+02
2.239916e+03,1.014993e+02
2.242809e+03,9.912424e+01
2.245701e+03,1.035061e+02
2.248594e+03,9.499213e+01
2.251487e+03,1.014989e+02
2.254379e+03,9.888821e+01
2.257272e+03,1.011328e+02
2.260165e+03,9.921029e+01
2.263058e+03,1.016119e+02
2.265950e+03,1.045516e+02
2.268843e+03,9.880093e+01
2.271736e+03,9.682439e+01
2.274628e+03,9.811891e+01
2.277521e+03,1.031728e+02
2.280414e+03,1.008853e+02
2.283306e+03,1.016493e+02
2.286199e+03,9.724100e+01
2.289092e+03,1.014592e+02
2.291985e+03,9.865543e+01
2.294877e+03,9.433232e+01
2.297770e+03,9.680367e+01
2.300663e+03,9.714000e+01
2.303555e+03,9.555082e+01
2.306448e+03,9.281457e+01
2.309341e+03,9.458137e+01
2.312233e+03,9.729825e+01
2.315126e+03,9.603914e+01
2.318019e+03,9.723354e+01
2.320912e+03,9.728384e+01
2.323804e+03,9.341441e+01
2.326697e+03,9.744778e+01
2.329590e+03,9.633121e+01
2.332482e+03,1.002671e+02
2.335375e+03,9.571361e+01
2.338268e+03,9.622362e+01
2.341160e+03,9.218078e+01
2.344053e+03,9.561610e+01
2.346946e+03,9.279094e+01
2.349839e+03,9.475574e+01
2.352731e+03,9.664173e+01
2.355624e+03,9.554076e+01
2.358517e+03,9.394614e+01
2.361409e+03,9.263276e+01
2.364302e+03,9.532596e+01
2.367195e+03,9.148631e+01
2.370087e+03,9.341194e+01
2.372980e+03,9.530743e+01
2.375873e+03,9.333962e+01
2.378766e+03,9.354279e+01
2.381658e+03,9.390491e+01
2.384551e+03,8.704626e+01
2.387444e+03,9.056203e+01
2.390336e+03,9.141825e+01
2.393229e+03,8.923843e+01
2.396122e+03,8.890884e+01
2.399014e+03,8.924130e+01
2.401907e+03,9.087801e+01
2.404800e+03,8.704063e+01
2.407693e+03,8.758057e+01
2.410585e+03,9.316319e+01
2.413478e+03,8.877407e+01
2.416371e+03,8.998364e+01
2.419263e+03,8.678658e+01
2.422156e+03,9.086893e+01
2.425049e+03,8.369024e+01
2.427941e+03,9.209750e+01
2.430834e+03,8.693754e+01
2.433727e+03,8.743198e+01
2.436620e+03,9.226003e+01
2.439512e+03,8.951751e+01
2.442405e+03,8.475539e+01
2.445298e+03,8.911893e+01
2.448190e+03,8.547909e+01
2.451083e+03,8.841811e+01
2.453976e+03,8.385165e+01
2.456868e+03,9.413157e+01
2.459761e+03,8.766103e+01
2.462654e+03,8.446203e+01
2.465547e+03,8.712395e+01
2.468439e+03,8.496254e+01
2.471332e+03,8.426213e+01
2.474225e+03,8.028454e+01
2.477117e+03,8.455814e+01
2.480010e+03,9.165212e+01
2.482903e+03,8.430033e+01
2.485795e+03,8.847840e+01
2.488688e+03,8.653481e+01
2.491581e+03,8.591832e+01
2.494474e+03,8.305176e+01
2.497366e+03,8.672513e+01
2.500259e+03,8.476747e+01
2.503152e+03,8.851421e+01
2.506044e+03,8.058469e+01
2.508937e+03,8.646847e+01
2.511830e+03,8.396591e+01
2.514722e+03,8.665099e+01
2.517615e+03,8.663435e+01
2.520508e+03,8.250842e+01
2.523401e+03,8.660214e+01
2.526293e+03,8.469665e+01
2.529186e+03,8.250636e+01
2.532079e+03,8.424215e+01
2.534971e+03,8.268668e+01
2.537864e+03,8.122970e+01
2.540757e+03,8.275918e+01
2.543649e+03,8.249287e+01
2.546542e+03,9.562491e+01
2.549435e+03,8.835770e+01
2.552328e+03,9.178920e+01
2.555220e+03,9.765129e+01
2.558113e+03,9.243752e+01
2.561006e+03,9.072803e+01
2.563898e+03,9.003328e+01
2.566791e+03,8.545607e+01
2.569684e+03,8.817464e+01
2.572576e+03,9.133044e+01
2.575469e+03,9.358369e+01
2.578362e+03,8.967469e+01
2.581255e+03,8.090832e+01
2.584147e+03,7.991196e+01
2.587040e+03,8.436573e+01
2.589933e+03,8.645338e+01
2.592825e+03,8.623132e+01
2.595718e+03,8.113167e+01
2.598611e+03,7.806190e+01
2.601503e+03,7.722876e+01
2.604396e+03,9.068015e+01
2.607289e+03,8.085679e+01
2.610182e+03,8.339449e+01
2.613074e+03,8.130248e+01
2.615967e+03,8.348614e+01
2.618860e+03,8.219318e+01
2.621752e+03,8.043606e+01
2.624645e+03,7.768997e+01
2.627538e+03,8.328143e+01
2.630430e+03,8.042966e+01
2.633323e+03,7.787667e+01
2.636216e+03,7.918190e+01
2.639109e+03,8.410464e+01
2.642001e+03,7.831869e+01
2.644894e+03,8.233390e+01
2.647787e+03,7.684181e+01
2.650679e+03,7.719516e+01
2.653572e+03,7.990935e+01
2.656465e+03,8.738365e+01
2.659357e+03,8.371017e+01
2.662250e+03,8.042355e+01
2.665143e+03,8.057754e+01
2.668036e+03,8.110690e+01
2.670928e+03,8.057237e+01
2.673821e+03,8.009052e+01
2.676714e+03,7.276851e+01
2.679606e+03,8.083488e+01
2.682499e+03,7.964783e+01
2.685392e+03,7.465839e+01
2.688284e+03,8.099483e+01
2.691177e+03,8.042952e+01
2.694070e+03,7.545070e+01
2.696963e+03,7.828133e+01
2.699855e+03,8.412830e+01
2.702748e+03,7.273580e+01
2.705641e+03,8.248006e+01
2.708533e+03,8.195459e+01
2.711426e+03,7.232024e+01
2.714319e+03,8.159110e+01
2.717211e+03,8.366225e+01
2.720104e+03,8.585655e+01
2.722997e+03,8.436591e+01
2.725890e+03,7.863176e+01
2.728782e+03,8.414632e+01
2.731675e+03,8.172874e+01
2.734568e+03,8.093597e+01
2.737460e+03,7.349721e+01
2.740353e+03,8.811551e+01
2.743246e+03,7.761401e+01
2.746138e+03,7.567570e+01
2.749031e+03,7.431857e+01
2.751924e+03,6.573267e+01
2.754817e+03,7.508633e+01
2.757709e+03,7.717879e+01
2.760602e+03,8.032771e+01
2.763495e+03,7.452450e+01
2.766387e+03,7.834132e+01
2.769280e+03,7.663254e+01
2.772173e+03,7.858511e+01
2.775065e+03,7.825606e+01
2.777958e+03,7.420965e+01
2.780851e+03,7.822054e+01
2.783744e+03,8.473087e+01
2.786636e+03,7.251372e+01
2.789529e+03,7.837836e+01
2.792422e+03,8.901072e+01
2.795314e+03,7.144870e+01
2.798207e+03,8.222841e+01
2.801100e+03,8.557861e+01
2.803992e+03,7.159460e+01
2.806885e+03,6.986646e+01
2.809778e+03,8.777800e+01
2.812671e+03,8.724419e+01
2.815563e+03,7.255527e+01
2.818456e+03,7.523544e+01
2.821349e+03,7.961562e+01
2.824241e+03,7.749590e+01
2.827134e+03,8.812128e+01
2.830027e+03,7.130820e+01
2.832919e+03,8.270424e+01
2.835812e+03,8.535667e+01
2.838705e+03,8.243081e+01
2.841598e+03,8.562275e+01
2.844490e+03,9.476255e+01
2.847383e+03,8.181107e+01
2.850276e+03,9.258788e+01
2.853168e+03,8.766415e+01
2.856061e+03,9.224345e+01
2.858954e+03,8.745356e+01
2.861846e+03,9.534225e+01
2.864739e+03,8.929893e+01
2.867632e+03,9.149899e+01
2.870525e+03,9.967225e+01
2.873417e+03,1.017970e+02
2.876310e+03,9.845997e+01
2.879203e+03,1.036563e+02
2.882095e+03,9.631029e+01
2.884988e+03,1.074938e+02
2.887881e+03,9.936234e+01
2.890773e+03,1.003128e+02
2.893666e+03,1.026132e+02
2.896559e+03,1.073923e+02
2.899452e+03,1.135595e+02
2.902344e+03,9.890141e+01
2.905237e+03,9.757459e+01
2.908130e+03,8.584493e+01
2.911022e+03,1.034541e+02
2.913915e+03,9.634361e+01
2.916808e+03,9.104097e+01
2.919700e+03,9.114041e+01
2.922593e+03,9.473691e+01
2.925486e+03,1.073565e+02
2.928379e+03,8.657464e+01
2.931271e+03,9.659291e+01
2.934164e+03,8.954177e+01
2.937057e+03,9.274876e+01
2.939949e+03,9.417878e+01
2.942842e+03,8.984187e+01
2.945735e+03,1.019051e+02
2.948627e+03,1.002984e+02
2.951520e+03,9.892908e+01
2.954413e+03,9.861936e+01
2.957306e+03,1.315487e+02
2.960198e+03,1.089282e+02
2.963091e+03,8.007161e+01
2.965984e+03,8.894826e+01
2.968876e+03,9.147725e+01
2.971769e+03,8.829597e+01
2.974662e+03,7.212499e+01
2.977554e+03,9.054607e+01
2.980447e+03,8.477476e+01
2.983340e+03,8.267101e+01
2.986233e+03,7.107140e+01
2.989125e+03,7.029586e+01
2.992018e+03,8.947413e+01
2.994911e+03,6.914381e+01
2.997803e+03,7.051810e+01
3.000696e+03,8.462145e+01
3.003589e+03,7.740421e+01
3.006481e+03,8.900234e+01
3.009374e+03,7.356046e+01
3.012267e+03,8.827527e+01
3.015160e+03,7.928692e+01
3.018052e+03,5.912914e+01
3.020945e+03,7.913151e+01
3.023838e+03,5.459234e+01
3.026730e+03,7.756358e+01
3.029623e+03,7.812239e+01
3.032516e+03,8.066187e+01
3.035408e+03,6.159806e+01
3.038301e+03,7.944080e+01
3.041194e+03,6.871858e+01
3.044087e+03,7.893032e+01
3.046979e+03,6.957231e+01
3.049872e+03,6.536540e+01
3.052765e+03,5.799413e+01
3.055657e+03,7.150716e+01
3.058550e+03,7.692268e+01
3.061443e+03,7.779172e+01
3.064335e+03,6.435281e+01
3.067228e+03,7.356908e+01
3.070121e+03,8.327325e+01
3.073014e+03,6.343336e+01
3.075906e+03,8.442776e+01
3.078799e+03,8.264350e+01
3.081692e+03,8.704374e+01
3.084584e+03,8.300799e+01
3.087477e+03,8.025005e+01
3.090370e+03,9.128276e+01
3.093262e+03,5.562955e+01
3.096155e+03,8.280178e+01
3.099048e+03,7.422734e+01
3.101941e+03,7.774996e+01
3.104833e+03,6.809553e+01
3.107726e+03,8.080106e+01
3.110619e+03,9.377718e+01
3.113511e+03,5.881720e+01
3.116404e+03,7.782670e+01
3.119297e+03,8.345872e+01
3.122189e+03,9.752732e+01
3.125082e+03,9.059718e+01
3.127975e+03,9.002499e+01
3.130868e+03,9.618937e+01
3.133760e+03,9.456657e+01
3.136653e+03,5.951056e+01
3.139546e+03,8.500848e+01
3.142438e+03,7.988639e+01
3.145331e+03,7.492568e+01
3.148224e+03,8.891074e+01
3.151116e+03,8.259229e+01
3.154009e+03,1.112629e+02
3.156902e+03,7.978944e+01
3.159795e+03,6.503204e+01
3.162687e+03,8.937988e+01
3.165580e+03,8.705268e+01
3.168473e+03,1.153924e+02
3.171365e+03,9.444704e+01
3.174258e+03,8.691810e+01
3.177151e+03,8.082486e+01
3.180043e+03,9.213912e+01
3.182936e+03,9.545750e+01
3.185829e+03,9.190236e+01
3.188722e+03,9.276705e+01
3.191614e+03,1.005656e+02
3.194507e+03,8.749483e+01
3.197400e+03,7.895877e+01
3.200292e+03,1.210093e+02
3.203185e+03,0.000000e+00
3.206078e+03,0.000000e+00
3.208970e+03,0.000000e+00
3.211863e+03,0.000000e+00
3.214756e+03,0.000000e+00
3.217649e+03,0.000000e+00
3.220541e+03,0.000000e+00
3.223434e+03,0.000000e+00
3.226327e+03,0.000000e+00
3.229219e+03,0.000000e+00
3.232112e+03,0.000000e+00
3.235005e+03,0.000000e+00
3.237897e+03,0.000000e+00
3.240790e+03,0.000000e+00
3.243683e+03,0.000000e+00
3.246576e+03,0.000000e+00
3.249468e+03,0.000000e+00
3.252361e+03,0.000000e+00
3.255254e+03,0.000000e+00
3.258146e+03,0.000000e+00
3.261039e+03,0.000000e+00
3.263932e+03,0.000000e+00
3.266824e+03,0.000000e+00
3.269717e+03,0.000000e+00
3.272610e+03,0.000000e+00
3.275503e+03,0.000000e+00
3.278395e+03,0.000000e+00
3.281288e+03,0.000000e+00
3.284181e+03,0.000000e+00
3.287073e+03,0.000000e+00
3.289966e+03,0.000000e+00
3.292859e+03,0.000000e+00
3.295751e+03,0.000000e+00
3.298644e+03,0.000000e+00
3.301537e+03,0.000000e+00
3.304430e+03,0.000000e+00
3.307322e+03,0.000000e+00
3.310215e+03,0.000000e+00
3.313108e+03,0.000000e+00
3.316000e+03,0.000000e+00
3.318893e+03,0.000000e+00
3.321786e+03,0.000000e+00
3.324678e+03,0.000000e+00
3.327571e+03,0.000000e+00
3.330464e+03,0.000000e+00
3.333357e+03,0.000000e+00
3.336249e+03,0.000000e+00
3.339142e+03,0.000000e+00
3.342035e+03,0.000000e+00
3.344927e+03,0.000000e+00
3.347820e+03,0.000000e+00
3.350713e+03,0.000000e+00
3.353605e+03,0.000000e+00
3.356498e+03,0.000000e+00
3.359391e+03,0.000000e+00
3.362284e+03,0.000000e+00
3.365176e+03,0.000000e+00
3.368069e+03,0.000000e+00
3.370962e+03,0.000000e+00
3.373854e+03,0.000000e+00
3.376747e+03,0.000000e+00
3.379640e+03,0.000000e+00
3.382532e+03,0.000000e+00
3.385425e+03,0.000000e+00
3.388318e+03,0.000000e+00
3.391211e+03,0.000000e+00
3.394103e+03,0.000000e+00
3.396996e+03,0.000000e+00
3.399889e+03,0.000000e+00
3.402781e+03,0.000000e+00
3.405674e+03,0.000000e+00
3.408567e+03,0.000000e+00
3.411459e+03,0.000000e+00
3.414352e+03,0.000000e+00
3.417245e+03,0.000000e+00
3.420138e+03,0.000000e+00
3.423030e+03,0.000000e+00
3.425923e+03,0.000000e+00
3.428816e+03,0.000000e+00
3.431708e+03,0.000000e+00
3.434601e+03,0.000000e+00
3.437494e+03,0.000000e+00
3.440386e+03,0.000000e+00
3.443279e+03,0.000000e+00
3.446172e+03,0.000000e+00
3.449065e+03,0.000000e+00
3.451957e+03,0.000000e+00
3.454850e+03,0.000000e+00
3.457743e+03,0.000000e+00
3.460635e+03,0.000000e+00
3.463528e+03,0.000000e+00
3.466421e+03,0.000000e+00
3.469313e+03,0.000000e+00
3.472206e+03,0.000000e+00
3.475099e+03,0.000000e+00
3.477992e+03,0.000000e+00
3.480884e+03,0.000000e+00
3.483777e+03,0.000000e+00
3.486670e+03,0.000000e+00
3.489563e+03,0.000000e+00
3.492455e+03,0.000000e+00
3.495348e+03,0.000000e+00
3.498240e+03,0.000000e+00
3.500169e+03,0.000000e+00