File: RAMAN_data/12022024_r1/black fibre2.CSV
9.931763e+01,0.000000e+00
1.022103e+02,0.000000e+00
1.051030e+02,0.000000e+00
1.079957e+02,0.000000e+00
1.108884e+02,0.000000e+00
1.137811e+02,0.000000e+00
1.166738e+02,0.000000e+00
1.195665e+02,0.000000e+00
1.224592e+02,0.000000e+00
1.253519e+02,0.000000e+00
1.282446e+02,0.000000e+00
1.311373e+02,0.000000e+00
1.340300e+02,0.000000e+00
1.369227e+02,0.000000e+00
1.398154e+02,0.000000e+00
1.427081e+02,0.000000e+00
1.456008e+02,0.000000e+00
1.484935e+02,0.000000e+00
1.513862e+02,0.000000e+00
1.542789e+02,0.000000e+00
1.571716e+02,0.000000e+00
1.600643e+02,0.000000e+00
1.629570e+02,0.000000e+00
1.658497e+02,0.000000e+00
1.687424e+02,0.000000e+00
1.716351e+02,0.000000e+00
1.745278e+02,0.000000e+00
1.774205e+02,0.000000e+00
1.803132e+02,0.000000e+00
1.832059e+02,0.000000e+00
1.860986e+02,0.000000e+00
1.889913e+02,0.000000e+00
1.918840e+02,0.000000e+00
1.947767e+02,0.000000e+00
1.976694e+02,0.000000e+00
2.005621e+02,4.147527e+03
2.034548e+02,4.179136e+03
2.063475e+02,4.170133e+03
2.092402e+02,4.141186e+03
2.121329e+02,4.137498e+03
2.150256e+02,4.146490e+03
2.179183e+02,4.148770e+03
2.208110e+02,4.133189e+03
2.237037e+02,4.138181e+03
2.265964e+02,4.105420e+03
2.294892e+02,4.098443e+03
2.323819e+02,4.103917e+03
2.352746e+02,4.105347e+03
2.381673e+02,4.099243e+03
2.410600e+02,4.088473e+03
2.439527e+02,4.082253e+03
2.468454e+02,4.114973e+03
2.497381e+02,4.103937e+03
2.526308e+02,4.081797e+03
2.555235e+02,4.077339e+03
2.584161e+02,4.045520e+03
2.613088e+02,4.057211e+03
2.642015e+02,4.070011e+03
2.670942e+02,4.046735e+03
2.699869e+02,4.041898e+03
2.728796e+02,4.016209e+03
2.757723e+02,4.031355e+03
2.786650e+02,4.047844e+03
2.815577e+02,4.048233e+03
2.844504e+02,4.029106e+03
2.873431e+02,4.015021e+03
2.902358e+02,4.035602e+03
2.931285e+02,4.002603e+03
2.960212e+02,4.005454e+03
2.989139e+02,3.989300e+03
3.018066e+02,4.004017e+03
3.046993e+02,4.017379e+03
3.075920e+02,3.968425e+03
3.104847e+02,3.975686e+03
3.133774e+02,3.977721e+03
3.162701e+02,3.983577e+03
3.191628e+02,3.974540e+03
3.220555e+02,3.970661e+03
3.249482e+02,3.969653e+03
3.278409e+02,3.968777e+03
3.307336e+02,3.959262e+03
3.336263e+02,3.942571e+03
3.365190e+02,3.944312e+03
3.394117e+02,3.947523e+03
3.423044e+02,3.951084e+03
3.451971e+02,3.949526e+03
3.480898e+02,3.933768e+03
3.509825e+02,3.918495e+03
3.538752e+02,3.927120e+03
3.567680e+02,3.923872e+03
3.596607e+02,3.921464e+03
3.625534e+02,3.916048e+03
3.654461e+02,3.888700e+03
3.683388e+02,3.898156e+03
3.712315e+02,3.902981e+03
3.741242e+02,3.917422e+03
3.770169e+02,3.901478e+03
3.799096e+02,3.892648e+03
3.828023e+02,3.884581e+03
3.856950e+02,3.856856e+03
3.885877e+02,3.849563e+03
3.914804e+02,3.841027e+03
3.943731e+02,3.834406e+03
3.972658e+02,3.822064e+03
4.001585e+02,3.802673e+03
4.030512e+02,3.840365e+03
4.059439e+02,3.824142e+03
4.088366e+02,3.814095e+03
4.117293e+02,3.808809e+03
4.146220e+02,3.806775e+03
4.175147e+02,3.777402e+03
4.204074e+02,3.789878e+03
4.233001e+02,3.785214e+03
4.261928e+02,3.782207e+03
4.290855e+02,3.775291e+03
4.319782e+02,3.777997e+03
4.348709e+02,3.777640e+03
4.377636e+02,3.764244e+03
4.406563e+02,3.745302e+03
4.435490e+02,3.742372e+03
4.464417e+02,3.741780e+03
4.493344e+02,3.740023e+03
4.522271e+02,3.745172e+03
4.551198e+02,3.756544e+03
4.580125e+02,3.733728e+03
4.609052e+02,3.718592e+03
4.637979e+02,3.708114e+03
4.666906e+02,3.694343e+03
4.695833e+02,3.712293e+03
4.724760e+02,3.693823e+03
4.753687e+02,3.662564e+03
4.782614e+02,3.672140e+03
4.811541e+02,3.673370e+03
4.840468e+02,3.676854e+03
4.869395e+02,3.667149e+03
4.898322e+02,3.652374e+03
4.927249e+02,3.631012e+03
4.956176e+02,3.639516e+03
4.985103e+02,3.665000e+03
5.014030e+02,3.636610e+03
5.042957e+02,3.610567e+03
5.071884e+02,3.605573e+03
5.100811e+02,3.614614e+03
5.129738e+02,3.614191e+03
5.158665e+02,3.629409e+03
5.187592e+02,3.633785e+03
5.216519e+02,3.603175e+03
5.245446e+02,3.592478e+03
5.274373e+02,3.578793e+03
5.303300e+02,3.570652e+03
5.332227e+02,3.555841e+03
5.361154e+02,3.552872e+03
5.390081e+02,3.563089e+03
5.419008e+02,3.557294e+03
5.447935e+02,3.550723e+03
5.476862e+02,3.540917e+03
5.505789e+02,3.529016e+03
5.534716e+02,3.521934e+03
5.563643e+02,3.515727e+03
5.592570e+02,3.503788e+03
5.621497e+02,3.536378e+03
5.650424e+02,3.526720e+03
5.679351e+02,3.488822e+03
5.708278e+02,3.487583e+03
5.737205e+02,3.488026e+03
5.766132e+02,3.502035e+03
5.795059e+02,3.478567e+03
5.823986e+02,3.449145e+03
5.852913e+02,3.453110e+03
5.881840e+02,3.448363e+03
5.910767e+02,3.461568e+03
5.939694e+02,3.447733e+03
5.968621e+02,3.440419e+03
5.997548e+02,3.440222e+03
6.026475e+02,3.416816e+03
6.055402e+02,3.449448e+03
6.084329e+02,3.430858e+03
6.113256e+02,3.403612e+03
6.142183e+02,3.402317e+03
6.171110e+02,3.396969e+03
6.200037e+02,3.394351e+03
6.228964e+02,3.387875e+03
6.257891e+02,3.385189e+03
6.286818e+02,3.364441e+03
6.315745e+02,3.380018e+03
6.344672e+02,3.360727e+03
6.373599e+02,3.351605e+03
6.402526e+02,3.351279e+03
6.431453e+02,3.328394e+03
6.460380e+02,3.326832e+03
6.489307e+02,3.332500e+03
6.518234e+02,3.319355e+03
6.547161e+02,3.321444e+03
6.576088e+02,3.312240e+03
6.605015e+02,3.294519e+03
6.633942e+02,3.297930e+03
6.662869e+02,3.285620e+03
6.691796e+02,3.292856e+03
6.720723e+02,3.275161e+03
6.749650e+02,3.277771e+03
6.778577e+02,3.259183e+03
6.807504e+02,3.262822e+03
6.836431e+02,3.258004e+03
6.865358e+02,3.239114e+03
6.894285e+02,3.227816e+03
6.923212e+02,3.232434e+03
6.952139e+02,3.229261e+03
6.981066e+02,3.225465e+03
7.009993e+02,3.236251e+03
7.038920e+02,3.226607e+03
7.067847e+02,3.208969e+03
7.096774e+02,3.206048e+03
7.125701e+02,3.197531e+03
7.154628e+02,3.184903e+03
7.183555e+02,3.195088e+03
7.212482e+02,3.181797e+03
7.241409e+02,3.173125e+03
7.270336e+02,3.142106e+03
7.299263e+02,3.150578e+03
7.328190e+02,3.142345e+03
7.357117e+02,3.153374e+03
7.386044e+02,3.129269e+03
7.414971e+02,3.130951e+03
7.443898e+02,3.127124e+03
7.472825e+02,3.102284e+03
7.501752e+02,3.125007e+03
7.530679e+02,3.110098e+03
7.559606e+02,3.099019e+03
7.588533e+02,3.092169e+03
7.617460e+02,3.094181e+03
7.646387e+02,3.073227e+03
7.675314e+02,3.082744e+03
7.704241e+02,3.057994e+03
7.733168e+02,3.056073e+03
7.762095e+02,3.058828e+03
7.791022e+02,3.072915e+03
7.819949e+02,3.042438e+03
7.848876e+02,3.044926e+03
7.877803e+02,3.036702e+03
7.906730e+02,3.033224e+03
7.935657e+02,3.025161e+03
7.964584e+02,3.025807e+03
7.993511e+02,3.003095e+03
8.022438e+02,2.976563e+03
8.051365e+02,2.979955e+03
8.080292e+02,2.972260e+03
8.109219e+02,2.975302e+03
8.138146e+02,2.969249e+03
8.167073e+02,2.963661e+03
8.196000e+02,2.964240e+03
8.224927e+02,2.946158e+03
8.253854e+02,2.955658e+03
8.282781e+02,2.957495e+03
8.311708e+02,2.934422e+03
8.340635e+02,2.930777e+03
8.369562e+02,2.936550e+03
8.398489e+02,2.923915e+03
8.427416e+02,2.921821e+03
8.456343e+02,2.905578e+03
8.485270e+02,2.897453e+03
8.514197e+02,2.882617e+03
8.543124e+02,2.895537e+03
8.572051e+02,2.870962e+03
8.600978e+02,2.875925e+03
8.629905e+02,2.884382e+03
8.658832e+02,2.864184e+03
8.687759e+02,2.856947e+03
8.716686e+02,2.866860e+03
8.745613e+02,2.856282e+03
8.774540e+02,2.853473e+03
8.803467e+02,2.826461e+03
8.832394e+02,2.827429e+03
8.861321e+02,2.848098e+03
8.890248e+02,2.834250e+03
8.919175e+02,2.808960e+03
8.948102e+02,2.800788e+03
8.977029e+02,2.797499e+03
9.005956e+02,2.813318e+03
9.034883e+02,2.789108e+03
9.063810e+02,2.794817e+03
9.092737e+02,2.782527e+03
9.121664e+02,2.776038e+03
9.150591e+02,2.768053e+03
9.179518e+02,2.784696e+03
9.208445e+02,2.747964e+03
9.237372e+02,2.743686e+03
9.266299e+02,2.742400e+03
9.295226e+02,2.730508e+03
9.324153e+02,2.730537e+03
9.353080e+02,2.722251e+03
9.382007e+02,2.720146e+03
9.410934e+02,2.717819e+03
9.439861e+02,2.697148e+03
9.468788e+02,2.710991e+03
9.497715e+02,2.704101e+03
9.526642e+02,2.683035e+03
9.555569e+02,2.684216e+03
9.584496e+02,2.680804e+03
9.613423e+02,2.671550e+03
9.642350e+02,2.677833e+03
9.671277e+02,2.668663e+03
9.700204e+02,2.637445e+03
9.729131e+02,2.637833e+03
9.758058e+02,2.625301e+03
9.786985e+02,2.629039e+03
9.815912e+02,2.626813e+03
9.844839e+02,2.607478e+03
9.873766e+02,2.621454e+03
9.902693e+02,2.616885e+03
9.931620e+02,2.619174e+03
9.960547e+02,2.628215e+03
9.989474e+02,2.607899e+03
1.001840e+03,2.589169e+03
1.004733e+03,2.587705e+03
1.007626e+03,2.582286e+03
1.010518e+03,2.578852e+03
1.013411e+03,2.554573e+03
1.016304e+03,2.561277e+03
1.019196e+03,2.568018e+03
1.022089e+03,2.551799e+03
1.024982e+03,2.536149e+03
1.027875e+03,2.545579e+03
1.030767e+03,2.548829e+03
1.033660e+03,2.546656e+03
1.036552e+03,2.524618e+03
1.039445e+03,2.515918e+03
1.042338e+03,2.518719e+03
1.045231e+03,2.517268e+03
1.048123e+03,2.501057e+03
1.051016e+03,2.499178e+03
1.053909e+03,2.515083e+03
1.056802e+03,2.509153e+03
1.059694e+03,2.501444e+03
1.062587e+03,2.494469e+03
1.065479e+03,2.479026e+03
1.068372e+03,2.483556e+03
1.071265e+03,2.469001e+03
1.074158e+03,2.478575e+03
1.077050e+03,2.461950e+03
1.079943e+03,2.464564e+03
1.082836e+03,2.462934e+03
1.085729e+03,2.472681e+03
1.088621e+03,2.479878e+03
1.091514e+03,2.487550e+03
1.094406e+03,2.480328e+03
1.097299e+03,2.473672e+03
1.100192e+03,2.454295e+03
1.103085e+03,2.447895e+03
1.105977e+03,2.421666e+03
1.108870e+03,2.424946e+03
1.111763e+03,2.414733e+03
1.114656e+03,2.424220e+03
1.117548e+03,2.423049e+03
1.120441e+03,2.423542e+03
1.123334e+03,2.415094e+03
1.126226e+03,2.389664e+03
1.129119e+03,2.373837e+03
1.132012e+03,2.373881e+03
1.134904e+03,2.366433e+03
1.137797e+03,2.362902e+03
1.140690e+03,2.354072e+03
1.143583e+03,2.358583e+03
1.146475e+03,2.340945e+03
1.149368e+03,2.361029e+03
1.152261e+03,2.347346e+03
1.155153e+03,2.332540e+03
1.158046e+03,2.314302e+03
1.160939e+03,2.322287e+03
1.163831e+03,2.321066e+03
1.166724e+03,2.313099e+03
1.169617e+03,2.309577e+03
1.172510e+03,2.296756e+03
1.175402e+03,2.286396e+03
1.178295e+03,2.290948e+03
1.181188e+03,2.277924e+03
1.184080e+03,2.283635e+03
1.186973e+03,2.284984e+03
1.189866e+03,2.247460e+03
1.192758e+03,2.261778e+03
1.195651e+03,2.281846e+03
1.198544e+03,2.261555e+03
1.201437e+03,2.239148e+03
1.204329e+03,2.245022e+03
1.207222e+03,2.229428e+03
1.210115e+03,2.236673e+03
1.213007e+03,2.232743e+03
1.215900e+03,2.222143e+03
1.218793e+03,2.216728e+03
1.221685e+03,2.222713e+03
1.224578e+03,2.234110e+03
1.227471e+03,2.216963e+03
1.230364e+03,2.199997e+03
1.233256e+03,2.204858e+03
1.236149e+03,2.197156e+03
1.239042e+03,2.211556e+03
1.241934e+03,2.204948e+03
1.244827e+03,2.196909e+03
1.247720e+03,2.197867e+03
1.250612e+03,2.192078e+03
1.253505e+03,2.181728e+03
1.256398e+03,2.190182e+03
1.259291e+03,2.179709e+03
1.262183e+03,2.159138e+03
1.265076e+03,2.171041e+03
1.267969e+03,2.167018e+03
1.270861e+03,2.164325e+03
1.273754e+03,2.167598e+03
1.276647e+03,2.170417e+03
1.279539e+03,2.155356e+03
1.282432e+03,2.153494e+03
1.285325e+03,2.149949e+03
1.288218e+03,2.131204e+03
1.291110e+03,2.141869e+03
1.294003e+03,2.144507e+03
1.296896e+03,2.129548e+03
1.299788e+03,2.124229e+03
1.302681e+03,2.122757e+03
1.305574e+03,2.109674e+03
1.308466e+03,2.112653e+03
1.311359e+03,2.102593e+03
1.314252e+03,2.100399e+03
1.317145e+03,2.121691e+03
1.320037e+03,2.107733e+03
1.322930e+03,2.103556e+03
1.325823e+03,2.103086e+03
1.328715e+03,2.098748e+03
1.331608e+03,2.095618e+03
1.334501e+03,2.096860e+03
1.337393e+03,2.093306e+03
1.340286e+03,2.079045e+03
1.343179e+03,2.079395e+03
1.346072e+03,2.071603e+03
1.348964e+03,2.070310e+03
1.351857e+03,2.053673e+03
1.354750e+03,2.060679e+03
1.357642e+03,2.052437e+03
1.360535e+03,2.058493e+03
1.363428e+03,2.051226e+03
1.366320e+03,2.061616e+03
1.369213e+03,2.054123e+03
1.372106e+03,2.043024e+03
1.374999e+03,2.041311e+03
1.377891e+03,2.043431e+03
1.380784e+03,2.041667e+03
1.383677e+03,2.033426e+03
1.386569e+03,2.021649e+03
1.389462e+03,2.013177e+03
1.392355e+03,2.001069e+03
1.395247e+03,1.997689e+03
1.398140e+03,2.012385e+03
1.401033e+03,1.983804e+03
1.403926e+03,1.995425e+03
1.406818e+03,1.991580e+03
1.409711e+03,1.981074e+03
1.412604e+03,1.985250e+03
1.415496e+03,1.979548e+03
1.418389e+03,1.965350e+03
1.421282e+03,1.951471e+03
1.424174e+03,1.956229e+03
1.427067e+03,1.945824e+03
1.429960e+03,1.936185e+03
1.432853e+03,1.950393e+03
1.435745e+03,1.933089e+03
1.438638e+03,1.931192e+03
1.441531e+03,1.947639e+03
1.444423e+03,1.940116e+03
1.447316e+03,1.923990e+03
1.450209e+03,1.925432e+03
1.453101e+03,1.924946e+03
1.455994e+03,1.907184e+03
1.458887e+03,1.912288e+03
1.461780e+03,1.908590e+03
1.464672e+03,1.901755e+03
1.467565e+03,1.894051e+03
1.470458e+03,1.884741e+03
1.473350e+03,1.904567e+03
1.476243e+03,1.901028e+03
1.479136e+03,1.889711e+03
1.482028e+03,1.882027e+03
1.484921e+03,1.880875e+03
1.487814e+03,1.871216e+03
1.490707e+03,1.893769e+03
1.493599e+03,1.875264e+03
1.496492e+03,1.871126e+03
1.499385e+03,1.850748e+03
1.502277e+03,1.861241e+03
1.505170e+03,1.861129e+03
1.508063e+03,1.864007e+03
1.510955e+03,1.840549e+03
1.513848e+03,1.845444e+03
1.516741e+03,1.846854e+03
1.519634e+03,1.840480e+03
1.522526e+03,1.842339e+03
1.525419e+03,1.848529e+03
1.528312e+03,1.827088e+03
1.531204e+03,1.823246e+03
1.534097e+03,1.815752e+03
1.536990e+03,1.826202e+03
1.539882e+03,1.827713e+03
1.542775e+03,1.795258e+03
1.545668e+03,1.806339e+03
1.548561e+03,1.806840e+03
1.551453e+03,1.799646e+03
1.554346e+03,1.808472e+03
1.557239e+03,1.798622e+03
1.560131e+03,1.796166e+03
1.563024e+03,1.793536e+03
1.565917e+03,1.796038e+03
1.568809e+03,1.795981e+03
1.571702e+03,1.781045e+03
1.574595e+03,1.792643e+03
1.577488e+03,1.784619e+03
1.580380e+03,1.782661e+03
1.583273e+03,1.769906e+03
1.586166e+03,1.776182e+03
1.589058e+03,1.780258e+03
1.591951e+03,1.783480e+03
1.594844e+03,1.757870e+03
1.597736e+03,1.760613e+03
1.600629e+03,1.774002e+03
1.603522e+03,1.757166e+03
1.606415e+03,1.756663e+03
1.609307e+03,1.750083e+03
1.612200e+03,1.751523e+03
1.615093e+03,1.741682e+03
1.617985e+03,1.754653e+03
1.620878e+03,1.731182e+03
1.623771e+03,1.719854e+03
1.626663e+03,1.729344e+03
1.629556e+03,1.715695e+03
1.632449e+03,1.710482e+03
1.635342e+03,1.702125e+03
1.638234e+03,1.698289e+03
1.641127e+03,1.691321e+03
1.644020e+03,1.687369e+03
1.646912e+03,1.685962e+03
1.649805e+03,1.680939e+03
1.652698e+03,1.691723e+03
1.655590e+03,1.684813e+03
1.658483e+03,1.685027e+03
1.661376e+03,1.664962e+03
1.664269e+03,1.658472e+03
1.667161e+03,1.656566e+03
1.670054e+03,1.656163e+03
1.672947e+03,1.647600e+03
1.675839e+03,1.649846e+03
1.678732e+03,1.658447e+03
1.681625e+03,1.625028e+03
1.684517e+03,1.639000e+03
1.687410e+03,1.634703e+03
1.690303e+03,1.638620e+03
1.693196e+03,1.619191e+03
1.696088e+03,1.630460e+03
1.698981e+03,1.614275e+03
1.701874e+03,1.617805e+03
1.704766e+03,1.613886e+03
1.707659e+03,1.615113e+03
1.710552e+03,1.597735e+03
1.713444e+03,1.590861e+03
1.716337e+03,1.597863e+03
1.719230e+03,1.584674e+03
1.722123e+03,1.587909e+03
1.725015e+03,1.590390e+03
1.727908e+03,1.597784e+03
1.730801e+03,1.584390e+03
1.733693e+03,1.584238e+03
1.736586e+03,1.580424e+03
1.739479e+03,1.574513e+03
1.742371e+03,1.563804e+03
1.745264e+03,1.587095e+03
1.748157e+03,1.551557e+03
1.751050e+03,1.569837e+03
1.753942e+03,1.567390e+03
1.756835e+03,1.561080e+03
1.759728e+03,1.528489e+03
1.762620e+03,1.559820e+03
1.765513e+03,1.541434e+03
1.768406e+03,1.537239e+03
1.771298e+03,1.537137e+03
1.774191e+03,1.529433e+03
1.777084e+03,1.527157e+03
1.779977e+03,1.527393e+03
1.782869e+03,1.516524e+03
1.785762e+03,1.512851e+03
1.788655e+03,1.509235e+03
1.791547e+03,1.517345e+03
1.794440e+03,1.522119e+03
1.797333e+03,1.499639e+03
1.800225e+03,1.496393e+03
1.803118e+03,1.498851e+03
1.806011e+03,1.491259e+03
1.808904e+03,1.484925e+03
1.811796e+03,1.494346e+03
1.814689e+03,1.483720e+03
1.817582e+03,1.484409e+03
1.820474e+03,1.485137e+03
1.823367e+03,1.477030e+03
1.826260e+03,1.466855e+03
1.829152e+03,1.459018e+03
1.832045e+03,1.476919e+03
1.834938e+03,1.476219e+03
1.837831e+03,1.451267e+03
1.840723e+03,1.452384e+03
1.843616e+03,1.470534e+03
1.846509e+03,1.458473e+03
1.849401e+03,1.448296e+03
1.852294e+03,1.435069e+03
1.855187e+03,1.443314e+03
1.858079e+03,1.439787e+03
1.860972e+03,1.434268e+03
1.863865e+03,1.415422e+03
1.866758e+03,1.432241e+03
1.869650e+03,1.406177e+03
1.872543e+03,1.412916e+03
1.875436e+03,1.421076e+03
1.878328e+03,1.415822e+03
1.881221e+03,1.405942e+03
1.884114e+03,1.398483e+03
1.887006e+03,1.404059e+03
1.889899e+03,1.394392e+03
1.892792e+03,1.396521e+03
1.895685e+03,1.392889e+03
1.898577e+03,1.390394e+03
1.901470e+03,1.387629e+03
1.904363e+03,1.374911e+03
1.907255e+03,1.390520e+03
1.910148e+03,1.374177e+03
1.913041e+03,1.371834e+03
1.915933e+03,1.386612e+03
1.918826e+03,1.372585e+03
1.921719e+03,1.368489e+03
1.924612e+03,1.361706e+03
1.927504e+03,1.364582e+03
1.930397e+03,1.347730e+03
1.933290e+03,1.350696e+03
1.936182e+03,1.347939e+03
1.939075e+03,1.341515e+03
1.941968e+03,1.336484e+03
1.944860e+03,1.333661e+03
1.947753e+03,1.329731e+03
1.950646e+03,1.331563e+03
1.953539e+03,1.329496e+03
1.956431e+03,1.332668e+03
1.959324e+03,1.319288e+03
1.962217e+03,1.315400e+03
1.965109e+03,1.311861e+03
1.968002e+03,1.316154e+03
1.970895e+03,1.303457e+03
1.973787e+03,1.303380e+03
1.976680e+03,1.298975e+03
1.979573e+03,1.293406e+03
1.982466e+03,1.306168e+03
1.985358e+03,1.291777e+03
1.988251e+03,1.296419e+03
1.991144e+03,1.279199e+03
1.994036e+03,1.282522e+03
1.996929e+03,1.280565e+03
1.999822e+03,1.289975e+03
2.002714e+03,1.282404e+03
2.005607e+03,1.279466e+03
2.008500e+03,1.267727e+03
2.011393e+03,1.260209e+03
2.014285e+03,1.255287e+03
2.017178e+03,1.269854e+03
2.020071e+03,1.263997e+03
2.022963e+03,1.235537e+03
2.025856e+03,1.247416e+03
2.028749e+03,1.247759e+03
2.031641e+03,1.239495e+03
2.034534e+03,1.246620e+03
2.037427e+03,1.234769e+03
2.040320e+03,1.231763e+03
2.043212e+03,1.228252e+03
2.046105e+03,1.221382e+03
2.048998e+03,1.216633e+03
2.051890e+03,1.230489e+03
2.054783e+03,1.220509e+03
2.057676e+03,1.215769e+03
2.060568e+03,1.214387e+03
2.063461e+03,1.208676e+03
2.066354e+03,1.189238e+03
2.069247e+03,1.189468e+03
2.072139e+03,1.192689e+03
2.075032e+03,1.201421e+03
2.077925e+03,1.198265e+03
2.080817e+03,1.185530e+03
2.083710e+03,1.178333e+03
2.086603e+03,1.174519e+03
2.089496e+03,1.178383e+03
2.092388e+03,1.168895e+03
2.095281e+03,1.175398e+03
2.098174e+03,1.175732e+03
2.101066e+03,1.160778e+03
2.103959e+03,1.148763e+03
2.106852e+03,1.157723e+03
2.109744e+03,1.173667e+03
2.112637e+03,1.157632e+03
2.115530e+03,1.148593e+03
2.118422e+03,1.134955e+03
2.121315e+03,1.168472e+03
2.124208e+03,1.142744e+03
2.127101e+03,1.137051e+03
2.129993e+03,1.125311e+03
2.132886e+03,1.131403e+03
2.135779e+03,1.140253e+03
2.138671e+03,1.131863e+03
2.141564e+03,1.117530e+03
2.144457e+03,1.153139e+03
2.147350e+03,1.121416e+03
2.150242e+03,1.114669e+03
2.153135e+03,1.106477e+03
2.156028e+03,1.106506e+03
2.158920e+03,1.115574e+03
2.161813e+03,1.096875e+03
2.164706e+03,1.096064e+03
2.167598e+03,1.088660e+03
2.170491e+03,1.097540e+03
2.173384e+03,1.085979e+03
2.176277e+03,1.074393e+03
2.179169e+03,1.075976e+03
2.182062e+03,1.072562e+03
2.184955e+03,1.088956e+03
2.187847e+03,1.067432e+03
2.190740e+03,1.080005e+03
2.193633e+03,1.050712e+03
2.196525e+03,1.050109e+03
2.199418e+03,1.057731e+03
2.202311e+03,1.067588e+03
2.205204e+03,1.063190e+03
2.208096e+03,1.057635e+03
2.210989e+03,1.030559e+03
2.213882e+03,1.041122e+03
2.216774e+03,1.045391e+03
2.219667e+03,1.044139e+03
2.222560e+03,1.030998e+03
2.225452e+03,1.042842e+03
2.228345e+03,1.042223e+03
2.231238e+03,1.046169e+03
2.234131e+03,1.036955e+03
2.237023e+03,1.028612e+03
2.239916e+03,1.023830e+03
2.242809e+03,1.025218e+03
2.245701e+03,1.037623e+03
2.248594e+03,1.023508e+03
2.251487e+03,1.009345e+03
2.254379e+03,1.013466e+03
2.257272e+03,1.014199e+03
2.260165e+03,9.911181e+02
2.263058e+03,1.010694e+03
2.265950e+03,9.952511e+02
2.268843e+03,9.973428e+02
2.271736e+03,9.982267e+02
2.274628e+03,9.927844e+02
2.277521e+03,1.000458e+03
2.280414e+03,9.847441e+02
2.283306e+03,9.874397e+02
2.286199e+03,9.762990e+02
2.289092e+03,9.763785e+02
2.291985e+03,9.813528e+02
2.294877e+03,9.725678e+02
2.297770e+03,9.807708e+02
2.300663e+03,9.689055e+02
2.303555e+03,9.555627e+02
2.306448e+03,9.676388e+02
2.309341e+03,9.549666e+02
2.312233e+03,9.486404e+02
2.315126e+03,9.557366e+02
2.318019e+03,9.485743e+02
2.320912e+03,9.492841e+02
2.323804e+03,9.493597e+02
2.326697e+03,9.432741e+02
2.329590e+03,9.585293e+02
2.332482e+03,9.420129e+02
2.335375e+03,9.517988e+02
2.338268e+03,9.398496e+02
2.341160e+03,9.200983e+02
2.344053e+03,9.470258e+02
2.346946e+03,9.298342e+02
2.349839e+03,9.274285e+02
2.352731e+03,9.372678e+02
2.355624e+03,9.266677e+02
2.358517e+03,9.268495e+02
2.361409e+03,9.306632e+02
2.364302e+03,9.191204e+02
2.367195e+03,9.119848e+02
2.370087e+03,9.152137e+02
2.372980e+03,9.161338e+02
2.375873e+03,9.157012e+02
2.378766e+03,9.237372e+02
2.381658e+03,8.996956e+02
2.384551e+03,9.009628e+02
2.387444e+03,9.054738e+02
2.390336e+03,8.921007e+02
2.393229e+03,8.862184e+02
2.396122e+03,8.925466e+02
2.399014e+03,8.878934e+02
2.401907e+03,8.879645e+02
2.404800e+03,8.926043e+02
2.407693e+03,8.656147e+02
2.410585e+03,8.847482e+02
2.413478e+03,8.798010e+02
2.416371e+03,8.633810e+02
2.419263e+03,8.666641e+02
2.422156e+03,8.769921e+02
2.425049e+03,8.598307e+02
2.427941e+03,8.686802e+02
2.430834e+03,8.534836e+02
2.433727e+03,8.723635e+02
2.436620e+03,8.623525e+02
2.439512e+03,8.509252e+02
2.442405e+03,8.472436e+02
2.445298e+03,8.566234e+02
2.448190e+03,8.571610e+02
2.451083e+03,8.558763e+02
2.453976e+03,8.536703e+02
2.456868e+03,8.537862e+02
2.459761e+03,8.461324e+02
2.462654e+03,8.502137e+02
2.465547e+03,8.356193e+02
2.468439e+03,8.345560e+02
2.471332e+03,8.428381e+02
2.474225e+03,8.440608e+02
2.477117e+03,8.301458e+02
2.480010e+03,8.493640e+02
2.482903e+03,8.377787e+02
2.485795e+03,8.267924e+02
2.488688e+03,8.369459e+02
2.491581e+03,8.284709e+02
2.494474e+03,8.170295e+02
2.497366e+03,8.259279e+02
2.500259e+03,8.266108e+02
2.503152e+03,8.170208e+02
2.506044e+03,8.199509e+02
2.508937e+03,8.145590e+02
2.511830e+03,8.012478e+02
2.514722e+03,8.157171e+02
2.517615e+03,8.089963e+02
2.520508e+03,8.109993e+02
2.523401e+03,7.954025e+02
2.526293e+03,7.902582e+02
2.529186e+03,8.035121e+02
2.532079e+03,8.041795e+02
2.534971e+03,7.930373e+02
2.537864e+03,7.780944e+02
2.540757e+03,7.866194e+02
2.543649e+03,7.942687e+02
2.546542e+03,7.927365e+02
2.549435e+03,7.839584e+02
2.552328e+03,7.952394e+02
2.555220e+03,8.036868e+02
2.558113e+03,7.744486e+02
2.561006e+03,7.903154e+02
2.563898e+03,7.942958e+02
2.566791e+03,7.823710e+02
2.569684e+03,7.969213e+02
2.572576e+03,7.841483e+02
2.575469e+03,7.873185e+02
2.578362e+03,7.911441e+02
2.581255e+03,7.792887e+02
2.584147e+03,7.862874e+02
2.587040e+03,7.753906e+02
2.589933e+03,7.703246e+02
2.592825e+03,7.758421e+02
2.595718e+03,7.793554e+02
2.598611e+03,7.610060e+02
2.601503e+03,7.790536e+02
2.604396e+03,7.619930e+02
2.607289e+03,7.592000e+02
2.610182e+03,7.624810e+02
2.613074e+03,7.606595e+02
2.615967e+03,7.688970e+02
2.618860e+03,7.647207e+02
2.621752e+03,7.555156e+02
2.624645e+03,7.532856e+02
2.627538e+03,7.512797e+02
2.630430e+03,7.549577e+02
2.633323e+03,7.552031e+02
2.636216e+03,7.568568e+02
2.639109e+03,7.367058e+02
2.642001e+03,7.375163e+02
2.644894e+03,7.363195e+02
2.647787e+03,7.293380e+02
2.650679e+03,7.375981e+02
2.653572e+03,7.438526e+02
2.656465e+03,7.225158e+02
2.659357e+03,7.356613e+02
2.662250e+03,7.297072e+02
2.665143e+03,7.372538e+02
2.668036e+03,7.279474e+02
2.670928e+03,7.339760e+02
2.673821e+03,7.302253e+02
2.676714e+03,7.202970e+02
2.679606e+03,7.295742e+02
2.682499e+03,7.222390e+02
2.685392e+03,7.277924e+02
2.688284e+03,7.179379e+02
2.691177e+03,7.151125e+02
2.694070e+03,7.305042e+02
2.696963e+03,7.252203e+02
2.699855e+03,7.282293e+02
2.702748e+03,7.093871e+02
2.705641e+03,7.267847e+02
2.708533e+03,7.227333e+02
2.711426e+03,7.369822e+02
2.714319e+03,7.171100e+02
2.717211e+03,7.335652e+02
2.720104e+03,7.328226e+02
2.722997e+03,7.075547e+02
2.725890e+03,7.184410e+02
2.728782e+03,7.231023e+02
2.731675e+03,6.944228e+02
2.734568e+03,7.131627e+02
2.737460e+03,7.166412e+02
2.740353e+03,6.869611e+02
2.743246e+03,6.921745e+02
2.746138e+03,7.113835e+02
2.749031e+03,6.930208e+02
2.751924e+03,7.005042e+02
2.754817e+03,6.833124e+02
2.757709e+03,7.113422e+02
2.760602e+03,6.981793e+02
2.763495e+03,6.734852e+02
2.766387e+03,7.055576e+02
2.769280e+03,7.039425e+02
2.772173e+03,6.860615e+02
2.775065e+03,6.861769e+02
2.777958e+03,6.928318e+02
2.780851e+03,6.757128e+02
2.783744e+03,6.861199e+02
2.786636e+03,6.984924e+02
2.789529e+03,6.944235e+02
2.792422e+03,6.847355e+02
2.795314e+03,6.884694e+02
2.798207e+03,6.942366e+02
2.801100e+03,6.817209e+02
2.803992e+03,6.722168e+02
2.806885e+03,6.851298e+02
2.809778e+03,6.976852e+02
2.812671e+03,6.789825e+02
2.815563e+03,6.626735e+02
2.818456e+03,6.842443e+02
2.821349e+03,6.686103e+02
2.824241e+03,6.575753e+02
2.827134e+03,6.903742e+02
2.830027e+03,6.729750e+02
2.832919e+03,6.890588e+02
2.835812e+03,6.937324e+02
2.838705e+03,6.786971e+02
2.841598e+03,6.718328e+02
2.844490e+03,6.759026e+02
2.847383e+03,6.737448e+02
2.850276e+03,6.817538e+02
2.853168e+03,6.853677e+02
2.856061e+03,6.884391e+02
2.858954e+03,6.658226e+02
2.861846e+03,6.891608e+02
2.864739e+03,6.743503e+02
2.867632e+03,6.734521e+02
2.870525e+03,6.649953e+02
2.873417e+03,6.878586e+02
2.876310e+03,6.927624e+02
2.879203e+03,6.882877e+02
2.882095e+03,6.847636e+02
2.884988e+03,6.927770e+02
2.887881e+03,6.848847e+02
2.890773e+03,7.012496e+02
2.893666e+03,6.915325e+02
2.896559e+03,7.013834e+02
2.899452e+03,6.958544e+02
2.902344e+03,6.887798e+02
2.905237e+03,6.774425e+02
2.908130e+03,6.728875e+02
2.911022e+03,6.853527e+02
2.913915e+03,6.619056e+02
2.916808e+03,6.772064e+02
2.919700e+03,6.688712e+02
2.922593e+03,6.593925e+02
2.925486e+03,6.654962e+02
2.928379e+03,6.681437e+02
2.931271e+03,6.693542e+02
2.934164e+03,6.650283e+02
2.937057e+03,6.573668e+02
2.939949e+03,6.499772e+02
2.942842e+03,6.599532e+02
2.945735e+03,6.532571e+02
2.948627e+03,6.544528e+02
2.951520e+03,6.382177e+02
2.954413e+03,6.591057e+02
2.957306e+03,7.032692e+02
2.960198e+03,6.507759e+02
2.963091e+03,6.429841e+02
2.965984e+03,6.282127e+02
2.968876e+03,6.555205e+02
2.971769e+03,6.345214e+02
2.974662e+03,6.306823e+02
2.977554e+03,6.401703e+02
2.980447e+03,6.199576e+02
2.983340e+03,6.254688e+02
2.986233e+03,5.904871e+02
2.989125e+03,5.943068e+02
2.992018e+03,6.392331e+02
2.994911e+03,5.981212e+02
2.997803e+03,5.984064e+02
3.000696e+03,6.118014e+02
3.003589e+03,6.019478e+02
3.006481e+03,5.989882e+02
3.009374e+03,6.082549e+02
3.012267e+03,5.857574e+02
3.015160e+03,6.076804e+02
3.018052e+03,6.096383e+02
3.020945e+03,6.002516e+02
3.023838e+03,5.683141e+02
3.026730e+03,6.027178e+02
3.029623e+03,6.011141e+02
3.032516e+03,5.844832e+02
3.035408e+03,5.736804e+02
3.038301e+03,5.947469e+02
3.041194e+03,5.740052e+02
3.044087e+03,5.917129e+02
3.046979e+03,6.030689e+02
3.049872e+03,5.839675e+02
3.052765e+03,5.870584e+02
3.055657e+03,6.029621e+02
3.058550e+03,5.975002e+02
3.061443e+03,5.893333e+02
3.064335e+03,5.879248e+02
3.067228e+03,5.912885e+02
3.070121e+03,5.984468e+02
3.073014e+03,5.499083e+02
3.075906e+03,5.990317e+02
3.078799e+03,6.078476e+02
3.081692e+03,5.758167e+02
3.084584e+03,5.796169e+02
3.087477e+03,5.907001e+02
3.090370e+03,5.619914e+02
3.093262e+03,5.628271e+02
3.096155e+03,5.960829e+02
3.099048e+03,5.931989e+02
3.101941e+03,5.502744e+02
3.104833e+03,5.926010e+02
3.107726e+03,6.078714e+02
3.110619e+03,5.659090e+02
3.113511e+03,5.816797e+02
3.116404e+03,5.787328e+02
3.119297e+03,5.870084e+02
3.122189e+03,5.954202e+02
3.125082e+03,5.989773e+02
3.127975e+03,6.148866e+02
3.130868e+03,6.367603e+02
3.133760e+03,6.350558e+02
3.136653e+03,5.811375e+02
3.139546e+03,5.735361e+02
3.142438e+03,6.032927e+02
3.145331e+03,5.481934e+02
3.148224e+03,6.071774e+02
3.151116e+03,6.152944e+02
3.154009e+03,5.956310e+02
3.156902e+03,5.979630e+02
3.159795e+03,5.717943e+02
3.162687e+03,5.748043e+02
3.165580e+03,6.058430e+02
3.168473e+03,5.745921e+02
3.171365e+03,6.274505e+02
3.174258e+03,6.178714e+02
3.177151e+03,5.800370e+02
3.180043e+03,5.973861e+02
3.182936e+03,6.133586e+02
3.185829e+03,5.994308e+02
3.188722e+03,5.736952e+02
3.191614e+03,5.536179e+02
3.194507e+03,6.021432e+02
3.197400e+03,5.845099e+02
3.200292e+03,6.296061e+02
3.203185e+03,0.000000e+00
3.206078e+03,0.000000e+00
3.208970e+03,0.000000e+00
3.211863e+03,0.000000e+00
3.214756e+03,0.000000e+00
3.217649e+03,0.000000e+00
3.220541e+03,0.000000e+00
3.223434e+03,0.000000e+00
3.226327e+03,0.000000e+00
3.229219e+03,0.000000e+00
3.232112e+03,0.000000e+00
3.235005e+03,0.000000e+00
3.237897e+03,0.000000e+00
3.240790e+03,0.000000e+00
3.243683e+03,0.000000e+00
3.246576e+03,0.000000e+00
3.249468e+03,0.000000e+00
3.252361e+03,0.000000e+00
3.255254e+03,0.000000e+00
3.258146e+03,0.000000e+00
3.261039e+03,0.000000e+00
3.263932e+03,0.000000e+00
3.266824e+03,0.000000e+00
3.269717e+03,0.000000e+00
3.272610e+03,0.000000e+00
3.275503e+03,0.000000e+00
3.278395e+03,0.000000e+00
3.281288e+03,0.000000e+00
3.284181e+03,0.000000e+00
3.287073e+03,0.000000e+00
3.289966e+03,0.000000e+00
3.292859e+03,0.000000e+00
3.295751e+03,0.000000e+00
3.298644e+03,0.000000e+00
3.301537e+03,0.000000e+00
3.304430e+03,0.000000e+00
3.307322e+03,0.000000e+00
3.310215e+03,0.000000e+00
3.313108e+03,0.000000e+00
3.316000e+03,0.000000e+00
3.318893e+03,0.000000e+00
3.321786e+03,0.000000e+00
3.324678e+03,0.000000e+00
3.327571e+03,0.000000e+00
3.330464e+03,0.000000e+00
3.333357e+03,0.000000e+00
3.336249e+03,0.000000e+00
3.339142e+03,0.000000e+00
3.342035e+03,0.000000e+00
3.344927e+03,0.000000e+00
3.347820e+03,0.000000e+00
3.350713e+03,0.000000e+00
3.353605e+03,0.000000e+00
3.356498e+03,0.000000e+00
3.359391e+03,0.000000e+00
3.362284e+03,0.000000e+00
3.365176e+03,0.000000e+00
3.368069e+03,0.000000e+00
3.370962e+03,0.000000e+00
3.373854e+03,0.000000e+00
3.376747e+03,0.000000e+00
3.379640e+03,0.000000e+00
3.382532e+03,0.000000e+00
3.385425e+03,0.000000e+00
3.388318e+03,0.000000e+00
3.391211e+03,0.000000e+00
3.394103e+03,0.000000e+00
3.396996e+03,0.000000e+00
3.399889e+03,0.000000e+00
3.402781e+03,0.000000e+00
3.405674e+03,0.000000e+00
3.408567e+03,0.000000e+00
3.411459e+03,0.000000e+00
3.414352e+03,0.000000e+00
3.417245e+03,0.000000e+00
3.420138e+03,0.000000e+00
3.423030e+03,0.000000e+00
3.425923e+03,0.000000e+00
3.428816e+03,0.000000e+00
3.431708e+03,0.000000e+00
3.434601e+03,0.000000e+00
3.437494e+03,0.000000e+00
3.440386e+03,0.000000e+00
3.443279e+03,0.000000e+00
3.446172e+03,0.000000e+00
3.449065e+03,0.000000e+00
3.451957e+03,0.000000e+00
3.454850e+03,0.000000e+00
3.457743e+03,0.000000e+00
3.460635e+03,0.000000e+00
3.463528e+03,0.000000e+00
3.466421e+03,0.000000e+00
3.469313e+03,0.000000e+00
3.472206e+03,0.000000e+00
3.475099e+03,0.000000e+00
3.477992e+03,0.000000e+00
3.480884e+03,0.000000e+00
3.483777e+03,0.000000e+00
3.486670e+03,0.000000e+00
3.489563e+03,0.000000e+00
3.492455e+03,0.000000e+00
3.495348e+03,0.000000e+00
3.498240e+03,0.000000e+00
3.500169e+03,0.000000e+00