File: RAMAN_data/12022024_r1/black fibre1.CSV
9.931763e+01,0.000000e+00
1.022103e+02,0.000000e+00
1.051030e+02,0.000000e+00
1.079957e+02,0.000000e+00
1.108884e+02,0.000000e+00
1.137811e+02,0.000000e+00
1.166738e+02,0.000000e+00
1.195665e+02,0.000000e+00
1.224592e+02,0.000000e+00
1.253519e+02,0.000000e+00
1.282446e+02,0.000000e+00
1.311373e+02,0.000000e+00
1.340300e+02,0.000000e+00
1.369227e+02,0.000000e+00
1.398154e+02,0.000000e+00
1.427081e+02,0.000000e+00
1.456008e+02,0.000000e+00
1.484935e+02,0.000000e+00
1.513862e+02,0.000000e+00
1.542789e+02,0.000000e+00
1.571716e+02,0.000000e+00
1.600643e+02,0.000000e+00
1.629570e+02,0.000000e+00
1.658497e+02,0.000000e+00
1.687424e+02,0.000000e+00
1.716351e+02,0.000000e+00
1.745278e+02,0.000000e+00
1.774205e+02,0.000000e+00
1.803132e+02,0.000000e+00
1.832059e+02,0.000000e+00
1.860986e+02,0.000000e+00
1.889913e+02,0.000000e+00
1.918840e+02,0.000000e+00
1.947767e+02,0.000000e+00
1.976694e+02,0.000000e+00
2.005621e+02,3.331999e+02
2.034548e+02,3.341776e+02
2.063475e+02,3.413676e+02
2.092402e+02,3.327852e+02
2.121329e+02,3.283693e+02
2.150256e+02,3.362087e+02
2.179183e+02,3.363291e+02
2.208110e+02,3.402485e+02
2.237037e+02,3.353360e+02
2.265964e+02,3.327999e+02
2.294892e+02,3.305475e+02
2.323819e+02,3.294643e+02
2.352746e+02,3.320933e+02
2.381673e+02,3.412715e+02
2.410600e+02,3.361236e+02
2.439527e+02,3.352607e+02
2.468454e+02,3.327501e+02
2.497381e+02,3.318354e+02
2.526308e+02,3.298141e+02
2.555235e+02,3.320621e+02
2.584161e+02,3.290775e+02
2.613088e+02,3.297959e+02
2.642015e+02,3.292226e+02
2.670942e+02,3.304162e+02
2.699869e+02,3.346593e+02
2.728796e+02,3.301619e+02
2.757723e+02,3.281987e+02
2.786650e+02,3.291383e+02
2.815577e+02,3.301646e+02
2.844504e+02,3.295473e+02
2.873431e+02,3.308518e+02
2.902358e+02,3.303663e+02
2.931285e+02,3.248382e+02
2.960212e+02,3.276783e+02
2.989139e+02,3.287580e+02
3.018066e+02,3.251825e+02
3.046993e+02,3.289312e+02
3.075920e+02,3.370302e+02
3.104847e+02,3.280423e+02
3.133774e+02,3.252920e+02
3.162701e+02,3.301961e+02
3.191628e+02,3.342049e+02
3.220555e+02,3.319199e+02
3.249482e+02,3.392086e+02
3.278409e+02,3.382536e+02
3.307336e+02,3.361208e+02
3.336263e+02,3.299602e+02
3.365190e+02,3.262003e+02
3.394117e+02,3.393940e+02
3.423044e+02,3.377043e+02
3.451971e+02,3.326359e+02
3.480898e+02,3.307792e+02
3.509825e+02,3.313741e+02
3.538752e+02,3.321294e+02
3.567680e+02,3.294939e+02
3.596607e+02,3.304203e+02
3.625534e+02,3.299219e+02
3.654461e+02,3.320124e+02
3.683388e+02,3.341936e+02
3.712315e+02,3.403390e+02
3.741242e+02,3.504207e+02
3.770169e+02,3.587337e+02
3.799096e+02,3.545877e+02
3.828023e+02,3.388418e+02
3.856950e+02,3.313858e+02
3.885877e+02,3.234928e+02
3.914804e+02,3.129713e+02
3.943731e+02,3.180756e+02
3.972658e+02,3.136255e+02
4.001585e+02,3.176007e+02
4.030512e+02,3.162285e+02
4.059439e+02,3.119836e+02
4.088366e+02,3.192060e+02
4.117293e+02,3.169068e+02
4.146220e+02,3.107114e+02
4.175147e+02,3.138777e+02
4.204074e+02,3.189378e+02
4.233001e+02,3.159096e+02
4.261928e+02,3.197222e+02
4.290855e+02,3.280998e+02
4.319782e+02,3.351998e+02
4.348709e+02,3.327416e+02
4.377636e+02,3.279070e+02
4.406563e+02,3.218654e+02
4.435490e+02,3.154677e+02
4.464417e+02,3.213226e+02
4.493344e+02,3.189604e+02
4.522271e+02,3.234136e+02
4.551198e+02,3.269182e+02
4.580125e+02,3.236743e+02
4.609052e+02,3.135307e+02
4.637979e+02,3.094880e+02
4.666906e+02,3.096322e+02
4.695833e+02,3.041762e+02
4.724760e+02,3.096808e+02
4.753687e+02,3.073522e+02
4.782614e+02,3.059040e+02
4.811541e+02,3.090287e+02
4.840468e+02,3.044986e+02
4.869395e+02,3.023122e+02
4.898322e+02,3.092424e+02
4.927249e+02,3.077887e+02
4.956176e+02,3.054502e+02
4.985103e+02,3.018163e+02
5.014030e+02,3.032806e+02
5.042957e+02,2.996422e+02
5.071884e+02,2.981393e+02
5.100811e+02,3.015974e+02
5.129738e+02,3.093219e+02
5.158665e+02,3.065832e+02
5.187592e+02,3.073169e+02
5.216519e+02,3.024604e+02
5.245446e+02,3.002147e+02
5.274373e+02,2.953434e+02
5.303300e+02,2.940275e+02
5.332227e+02,2.930248e+02
5.361154e+02,2.872693e+02
5.390081e+02,2.918082e+02
5.419008e+02,2.897204e+02
5.447935e+02,2.916557e+02
5.476862e+02,2.949023e+02
5.505789e+02,2.898094e+02
5.534716e+02,2.911862e+02
5.563643e+02,2.920453e+02
5.592570e+02,2.871663e+02
5.621497e+02,2.904937e+02
5.650424e+02,2.938762e+02
5.679351e+02,2.912668e+02
5.708278e+02,2.847196e+02
5.737205e+02,2.878838e+02
5.766132e+02,2.869798e+02
5.795059e+02,2.885211e+02
5.823986e+02,2.870357e+02
5.852913e+02,2.794849e+02
5.881840e+02,2.832884e+02
5.910767e+02,2.887816e+02
5.939694e+02,2.846339e+02
5.968621e+02,2.824689e+02
5.997548e+02,2.845585e+02
6.026475e+02,2.856233e+02
6.055402e+02,2.859489e+02
6.084329e+02,2.860646e+02
6.113256e+02,2.827290e+02
6.142183e+02,2.844854e+02
6.171110e+02,2.781542e+02
6.200037e+02,2.784721e+02
6.228964e+02,2.793085e+02
6.257891e+02,2.783439e+02
6.286818e+02,2.781155e+02
6.315745e+02,2.787911e+02
6.344672e+02,2.782541e+02
6.373599e+02,2.782740e+02
6.402526e+02,2.785516e+02
6.431453e+02,2.755726e+02
6.460380e+02,2.749569e+02
6.489307e+02,2.746878e+02
6.518234e+02,2.791304e+02
6.547161e+02,2.769896e+02
6.576088e+02,2.770508e+02
6.605015e+02,2.738630e+02
6.633942e+02,2.709856e+02
6.662869e+02,2.708222e+02
6.691796e+02,2.754254e+02
6.720723e+02,2.719017e+02
6.749650e+02,2.672652e+02
6.778577e+02,2.709446e+02
6.807504e+02,2.752621e+02
6.836431e+02,2.684260e+02
6.865358e+02,2.679351e+02
6.894285e+02,2.729331e+02
6.923212e+02,2.773174e+02
6.952139e+02,2.651137e+02
6.981066e+02,2.729541e+02
7.009993e+02,2.670212e+02
7.038920e+02,2.647050e+02
7.067847e+02,2.683763e+02
7.096774e+02,2.699417e+02
7.125701e+02,2.670199e+02
7.154628e+02,2.657559e+02
7.183555e+02,2.662784e+02
7.212482e+02,2.651581e+02
7.241409e+02,2.670992e+02
7.270336e+02,2.660615e+02
7.299263e+02,2.573753e+02
7.328190e+02,2.620541e+02
7.357117e+02,2.669417e+02
7.386044e+02,2.651384e+02
7.414971e+02,2.613952e+02
7.443898e+02,2.599968e+02
7.472825e+02,2.551828e+02
7.501752e+02,2.609157e+02
7.530679e+02,2.589161e+02
7.559606e+02,2.561197e+02
7.588533e+02,2.554568e+02
7.617460e+02,2.556289e+02
7.646387e+02,2.648208e+02
7.675314e+02,2.546114e+02
7.704241e+02,2.543306e+02
7.733168e+02,2.576832e+02
7.762095e+02,2.585945e+02
7.791022e+02,2.559097e+02
7.819949e+02,2.584386e+02
7.848876e+02,2.569651e+02
7.877803e+02,2.535276e+02
7.906730e+02,2.573726e+02
7.935657e+02,2.544942e+02
7.964584e+02,2.522629e+02
7.993511e+02,2.534946e+02
8.022438e+02,2.532874e+02
8.051365e+02,2.599929e+02
8.080292e+02,2.578287e+02
8.109219e+02,2.524450e+02
8.138146e+02,2.579654e+02
8.167073e+02,2.538615e+02
8.196000e+02,2.532663e+02
8.224927e+02,2.506808e+02
8.253854e+02,2.547569e+02
8.282781e+02,2.535041e+02
8.311708e+02,2.500510e+02
8.340635e+02,2.531633e+02
8.369562e+02,2.489177e+02
8.398489e+02,2.478172e+02
8.427416e+02,2.493224e+02
8.456343e+02,2.440000e+02
8.485270e+02,2.464542e+02
8.514197e+02,2.507334e+02
8.543124e+02,2.521040e+02
8.572051e+02,2.474203e+02
8.600978e+02,2.484600e+02
8.629905e+02,2.484427e+02
8.658832e+02,2.467671e+02
8.687759e+02,2.486915e+02
8.716686e+02,2.488379e+02
8.745613e+02,2.532442e+02
8.774540e+02,2.552351e+02
8.803467e+02,2.595250e+02
8.832394e+02,2.610432e+02
8.861321e+02,2.585602e+02
8.890248e+02,2.495173e+02
8.919175e+02,2.554676e+02
8.948102e+02,2.558487e+02
8.977029e+02,2.486494e+02
9.005956e+02,2.496979e+02
9.034883e+02,2.451274e+02
9.063810e+02,2.451888e+02
9.092737e+02,2.475013e+02
9.121664e+02,2.400200e+02
9.150591e+02,2.432015e+02
9.179518e+02,2.405291e+02
9.208445e+02,2.440971e+02
9.237372e+02,2.433426e+02
9.266299e+02,2.386301e+02
9.295226e+02,2.375927e+02
9.324153e+02,2.395663e+02
9.353080e+02,2.396097e+02
9.382007e+02,2.371693e+02
9.410934e+02,2.432563e+02
9.439861e+02,2.363103e+02
9.468788e+02,2.400297e+02
9.497715e+02,2.353637e+02
9.526642e+02,2.390968e+02
9.555569e+02,2.390335e+02
9.584496e+02,2.381445e+02
9.613423e+02,2.362035e+02
9.642350e+02,2.418936e+02
9.671277e+02,2.406543e+02
9.700204e+02,2.422475e+02
9.729131e+02,2.382346e+02
9.758058e+02,2.396295e+02
9.786985e+02,2.410390e+02
9.815912e+02,2.372824e+02
9.844839e+02,2.423293e+02
9.873766e+02,2.429419e+02
9.902693e+02,2.447631e+02
9.931620e+02,2.413764e+02
9.960547e+02,2.450298e+02
9.989474e+02,2.461653e+02
1.001840e+03,2.390631e+02
1.004733e+03,2.370865e+02
1.007626e+03,2.382449e+02
1.010518e+03,2.339116e+02
1.013411e+03,2.335516e+02
1.016304e+03,2.354604e+02
1.019196e+03,2.367884e+02
1.022089e+03,2.365678e+02
1.024982e+03,2.386856e+02
1.027875e+03,2.405842e+02
1.030767e+03,2.449453e+02
1.033660e+03,2.376219e+02
1.036552e+03,2.413878e+02
1.039445e+03,2.375184e+02
1.042338e+03,2.386992e+02
1.045231e+03,2.368803e+02
1.048123e+03,2.413519e+02
1.051016e+03,2.423680e+02
1.053909e+03,2.448046e+02
1.056802e+03,2.434720e+02
1.059694e+03,2.434581e+02
1.062587e+03,2.425632e+02
1.065479e+03,2.467962e+02
1.068372e+03,2.459055e+02
1.071265e+03,2.476124e+02
1.074158e+03,2.491202e+02
1.077050e+03,2.467222e+02
1.079943e+03,2.500247e+02
1.082836e+03,2.549174e+02
1.085729e+03,2.651488e+02
1.088621e+03,2.799848e+02
1.091514e+03,2.907316e+02
1.094406e+03,2.954269e+02
1.097299e+03,2.819336e+02
1.100192e+03,2.684892e+02
1.103085e+03,2.650630e+02
1.105977e+03,2.623240e+02
1.108870e+03,2.577543e+02
1.111763e+03,2.662272e+02
1.114656e+03,2.693758e+02
1.117548e+03,2.734991e+02
1.120441e+03,2.707253e+02
1.123334e+03,2.721891e+02
1.126226e+03,2.608904e+02
1.129119e+03,2.539737e+02
1.132012e+03,2.440444e+02
1.134904e+03,2.393937e+02
1.137797e+03,2.362012e+02
1.140690e+03,2.405420e+02
1.143583e+03,2.414871e+02
1.146475e+03,2.462411e+02
1.149368e+03,2.477966e+02
1.152261e+03,2.472222e+02
1.155153e+03,2.374079e+02
1.158046e+03,2.354857e+02
1.160939e+03,2.327432e+02
1.163831e+03,2.317509e+02
1.166724e+03,2.290905e+02
1.169617e+03,2.290037e+02
1.172510e+03,2.244567e+02
1.175402e+03,2.240209e+02
1.178295e+03,2.250478e+02
1.181188e+03,2.282103e+02
1.184080e+03,2.258949e+02
1.186973e+03,2.230385e+02
1.189866e+03,2.240738e+02
1.192758e+03,2.235163e+02
1.195651e+03,2.264781e+02
1.198544e+03,2.250661e+02
1.201437e+03,2.247339e+02
1.204329e+03,2.247803e+02
1.207222e+03,2.222841e+02
1.210115e+03,2.218343e+02
1.213007e+03,2.251472e+02
1.215900e+03,2.216287e+02
1.218793e+03,2.224907e+02
1.221685e+03,2.258194e+02
1.224578e+03,2.241103e+02
1.227471e+03,2.270017e+02
1.230364e+03,2.215277e+02
1.233256e+03,2.266673e+02
1.236149e+03,2.241130e+02
1.239042e+03,2.217091e+02
1.241934e+03,2.253661e+02
1.244827e+03,2.272908e+02
1.247720e+03,2.273970e+02
1.250612e+03,2.255631e+02
1.253505e+03,2.239639e+02
1.256398e+03,2.246502e+02
1.259291e+03,2.209130e+02
1.262183e+03,2.206776e+02
1.265076e+03,2.265716e+02
1.267969e+03,2.257586e+02
1.270861e+03,2.228578e+02
1.273754e+03,2.269169e+02
1.276647e+03,2.304995e+02
1.279539e+03,2.302923e+02
1.282432e+03,2.327346e+02
1.285325e+03,2.337132e+02
1.288218e+03,2.322010e+02
1.291110e+03,2.342052e+02
1.294003e+03,2.317695e+02
1.296896e+03,2.269654e+02
1.299788e+03,2.292373e+02
1.302681e+03,2.265448e+02
1.305574e+03,2.293134e+02
1.308466e+03,2.257554e+02
1.311359e+03,2.339021e+02
1.314252e+03,2.277552e+02
1.317145e+03,2.320708e+02
1.320037e+03,2.341316e+02
1.322930e+03,2.389835e+02
1.325823e+03,2.348312e+02
1.328715e+03,2.384050e+02
1.331608e+03,2.381866e+02
1.334501e+03,2.385003e+02
1.337393e+03,2.414490e+02
1.340286e+03,2.408351e+02
1.343179e+03,2.343268e+02
1.346072e+03,2.331994e+02
1.348964e+03,2.318525e+02
1.351857e+03,2.351321e+02
1.354750e+03,2.333423e+02
1.357642e+03,2.310170e+02
1.360535e+03,2.374563e+02
1.363428e+03,2.373097e+02
1.366320e+03,2.389814e+02
1.369213e+03,2.391966e+02
1.372106e+03,2.421114e+02
1.374999e+03,2.463550e+02
1.377891e+03,2.481360e+02
1.380784e+03,2.426051e+02
1.383677e+03,2.405041e+02
1.386569e+03,2.356784e+02
1.389462e+03,2.249257e+02
1.392355e+03,2.285880e+02
1.395247e+03,2.262453e+02
1.398140e+03,2.205205e+02
1.401033e+03,2.209418e+02
1.403926e+03,2.209960e+02
1.406818e+03,2.267456e+02
1.409711e+03,2.267345e+02
1.412604e+03,2.239136e+02
1.415496e+03,2.243976e+02
1.418389e+03,2.213219e+02
1.421282e+03,2.215150e+02
1.424174e+03,2.237937e+02
1.427067e+03,2.208098e+02
1.429960e+03,2.195882e+02
1.432853e+03,2.162433e+02
1.435745e+03,2.170671e+02
1.438638e+03,2.170761e+02
1.441531e+03,2.188431e+02
1.444423e+03,2.187096e+02
1.447316e+03,2.212502e+02
1.450209e+03,2.154086e+02
1.453101e+03,2.217248e+02
1.455994e+03,2.191667e+02
1.458887e+03,2.210793e+02
1.461780e+03,2.163519e+02
1.464672e+03,2.231625e+02
1.467565e+03,2.201524e+02
1.470458e+03,2.217935e+02
1.473350e+03,2.258971e+02
1.476243e+03,2.211164e+02
1.479136e+03,2.201396e+02
1.482028e+03,2.162906e+02
1.484921e+03,2.131455e+02
1.487814e+03,2.099900e+02
1.490707e+03,2.114109e+02
1.493599e+03,2.106791e+02
1.496492e+03,2.073662e+02
1.499385e+03,2.091646e+02
1.502277e+03,2.125199e+02
1.505170e+03,2.119667e+02
1.508063e+03,2.043129e+02
1.510955e+03,2.107252e+02
1.513848e+03,2.057980e+02
1.516741e+03,2.029500e+02
1.519634e+03,2.114690e+02
1.522526e+03,2.074206e+02
1.525419e+03,2.090928e+02
1.528312e+03,2.079792e+02
1.531204e+03,2.086497e+02
1.534097e+03,2.064233e+02
1.536990e+03,2.089770e+02
1.539882e+03,2.077965e+02
1.542775e+03,2.078237e+02
1.545668e+03,2.039449e+02
1.548561e+03,2.062953e+02
1.551453e+03,2.092249e+02
1.554346e+03,2.053887e+02
1.557239e+03,2.034727e+02
1.560131e+03,2.126462e+02
1.563024e+03,2.025262e+02
1.565917e+03,2.059347e+02
1.568809e+03,2.076622e+02
1.571702e+03,2.039573e+02
1.574595e+03,2.094229e+02
1.577488e+03,2.057402e+02
1.580380e+03,2.022002e+02
1.583273e+03,2.029289e+02
1.586166e+03,2.097260e+02
1.589058e+03,2.008931e+02
1.591951e+03,2.043046e+02
1.594844e+03,2.077153e+02
1.597736e+03,2.028563e+02
1.600629e+03,2.054212e+02
1.603522e+03,2.057913e+02
1.606415e+03,2.027742e+02
1.609307e+03,1.986443e+02
1.612200e+03,2.078027e+02
1.615093e+03,2.029389e+02
1.617985e+03,2.016303e+02
1.620878e+03,2.041266e+02
1.623771e+03,1.998678e+02
1.626663e+03,1.969104e+02
1.629556e+03,1.995674e+02
1.632449e+03,1.947088e+02
1.635342e+03,1.915123e+02
1.638234e+03,1.957840e+02
1.641127e+03,1.983413e+02
1.644020e+03,1.914922e+02
1.646912e+03,1.987401e+02
1.649805e+03,1.923597e+02
1.652698e+03,1.980716e+02
1.655590e+03,1.964171e+02
1.658483e+03,1.910800e+02
1.661376e+03,1.962840e+02
1.664269e+03,1.922073e+02
1.667161e+03,1.891974e+02
1.670054e+03,1.921571e+02
1.672947e+03,1.943672e+02
1.675839e+03,1.858125e+02
1.678732e+03,1.922308e+02
1.681625e+03,1.869127e+02
1.684517e+03,1.894929e+02
1.687410e+03,1.953784e+02
1.690303e+03,1.924207e+02
1.693196e+03,1.881943e+02
1.696088e+03,1.898269e+02
1.698981e+03,1.886498e+02
1.701874e+03,1.897253e+02
1.704766e+03,1.891004e+02
1.707659e+03,1.899491e+02
1.710552e+03,1.856018e+02
1.713444e+03,1.874975e+02
1.716337e+03,1.860053e+02
1.719230e+03,1.882139e+02
1.722123e+03,1.875939e+02
1.725015e+03,1.863526e+02
1.727908e+03,1.835049e+02
1.730801e+03,1.875412e+02
1.733693e+03,1.877047e+02
1.736586e+03,1.853798e+02
1.739479e+03,1.849567e+02
1.742371e+03,1.831879e+02
1.745264e+03,1.874892e+02
1.748157e+03,1.860703e+02
1.751050e+03,1.845021e+02
1.753942e+03,1.837616e+02
1.756835e+03,1.838712e+02
1.759728e+03,1.755701e+02
1.762620e+03,1.770211e+02
1.765513e+03,1.847677e+02
1.768406e+03,1.796982e+02
1.771298e+03,1.751518e+02
1.774191e+03,1.881581e+02
1.777084e+03,1.818012e+02
1.779977e+03,1.803426e+02
1.782869e+03,1.807886e+02
1.785762e+03,1.834688e+02
1.788655e+03,1.861821e+02
1.791547e+03,1.783652e+02
1.794440e+03,1.800230e+02
1.797333e+03,1.770607e+02
1.800225e+03,1.814786e+02
1.803118e+03,1.774798e+02
1.806011e+03,1.759439e+02
1.808904e+03,1.783408e+02
1.811796e+03,1.842178e+02
1.814689e+03,1.729549e+02
1.817582e+03,1.760181e+02
1.820474e+03,1.753929e+02
1.823367e+03,1.782824e+02
1.826260e+03,1.720061e+02
1.829152e+03,1.763096e+02
1.832045e+03,1.766787e+02
1.834938e+03,1.790469e+02
1.837831e+03,1.798775e+02
1.840723e+03,1.741348e+02
1.843616e+03,1.731850e+02
1.846509e+03,1.724804e+02
1.849401e+03,1.712969e+02
1.852294e+03,1.739258e+02
1.855187e+03,1.736140e+02
1.858079e+03,1.716542e+02
1.860972e+03,1.737852e+02
1.863865e+03,1.733124e+02
1.866758e+03,1.709003e+02
1.869650e+03,1.706438e+02
1.872543e+03,1.688678e+02
1.875436e+03,1.747915e+02
1.878328e+03,1.651855e+02
1.881221e+03,1.695032e+02
1.884114e+03,1.703212e+02
1.887006e+03,1.633856e+02
1.889899e+03,1.727453e+02
1.892792e+03,1.687225e+02
1.895685e+03,1.688791e+02
1.898577e+03,1.650252e+02
1.901470e+03,1.690650e+02
1.904363e+03,1.692689e+02
1.907255e+03,1.655214e+02
1.910148e+03,1.680045e+02
1.913041e+03,1.649457e+02
1.915933e+03,1.626755e+02
1.918826e+03,1.666938e+02
1.921719e+03,1.641025e+02
1.924612e+03,1.662898e+02
1.927504e+03,1.646134e+02
1.930397e+03,1.651424e+02
1.933290e+03,1.592093e+02
1.936182e+03,1.674923e+02
1.939075e+03,1.623799e+02
1.941968e+03,1.624274e+02
1.944860e+03,1.648662e+02
1.947753e+03,1.629306e+02
1.950646e+03,1.639019e+02
1.953539e+03,1.632066e+02
1.956431e+03,1.600239e+02
1.959324e+03,1.605407e+02
1.962217e+03,1.636664e+02
1.965109e+03,1.568211e+02
1.968002e+03,1.621782e+02
1.970895e+03,1.614161e+02
1.973787e+03,1.617651e+02
1.976680e+03,1.585461e+02
1.979573e+03,1.631975e+02
1.982466e+03,1.559407e+02
1.985358e+03,1.577541e+02
1.988251e+03,1.513347e+02
1.991144e+03,1.574240e+02
1.994036e+03,1.585571e+02
1.996929e+03,1.519177e+02
1.999822e+03,1.602117e+02
2.002714e+03,1.579216e+02
2.005607e+03,1.619788e+02
2.008500e+03,1.602984e+02
2.011393e+03,1.591336e+02
2.014285e+03,1.632258e+02
2.017178e+03,1.530361e+02
2.020071e+03,1.546422e+02
2.022963e+03,1.586253e+02
2.025856e+03,1.537762e+02
2.028749e+03,1.589472e+02
2.031641e+03,1.515652e+02
2.034534e+03,1.573368e+02
2.037427e+03,1.515851e+02
2.040320e+03,1.493863e+02
2.043212e+03,1.526402e+02
2.046105e+03,1.587444e+02
2.048998e+03,1.515589e+02
2.051890e+03,1.516546e+02
2.054783e+03,1.550311e+02
2.057676e+03,1.548554e+02
2.060568e+03,1.511962e+02
2.063461e+03,1.517261e+02
2.066354e+03,1.533096e+02
2.069247e+03,1.509157e+02
2.072139e+03,1.507155e+02
2.075032e+03,1.485858e+02
2.077925e+03,1.513926e+02
2.080817e+03,1.496663e+02
2.083710e+03,1.489526e+02
2.086603e+03,1.447644e+02
2.089496e+03,1.510822e+02
2.092388e+03,1.414631e+02
2.095281e+03,1.432392e+02
2.098174e+03,1.478282e+02
2.101066e+03,1.430298e+02
2.103959e+03,1.454342e+02
2.106852e+03,1.468257e+02
2.109744e+03,1.469996e+02
2.112637e+03,1.464791e+02
2.115530e+03,1.500904e+02
2.118422e+03,1.425985e+02
2.121315e+03,1.458806e+02
2.124208e+03,1.438071e+02
2.127101e+03,1.384111e+02
2.129993e+03,1.414401e+02
2.132886e+03,1.493857e+02
2.135779e+03,1.429041e+02
2.138671e+03,1.452952e+02
2.141564e+03,1.466776e+02
2.144457e+03,1.456866e+02
2.147350e+03,1.380511e+02
2.150242e+03,1.409133e+02
2.153135e+03,1.465780e+02
2.156028e+03,1.419893e+02
2.158920e+03,1.431307e+02
2.161813e+03,1.363759e+02
2.164706e+03,1.474707e+02
2.167598e+03,1.406936e+02
2.170491e+03,1.347243e+02
2.173384e+03,1.361869e+02
2.176277e+03,1.459941e+02
2.179169e+03,1.398380e+02
2.182062e+03,1.428629e+02
2.184955e+03,1.417724e+02
2.187847e+03,1.375751e+02
2.190740e+03,1.365647e+02
2.193633e+03,1.400031e+02
2.196525e+03,1.391223e+02
2.199418e+03,1.424112e+02
2.202311e+03,1.356873e+02
2.205204e+03,1.405551e+02
2.208096e+03,1.377739e+02
2.210989e+03,1.401571e+02
2.213882e+03,1.391726e+02
2.216774e+03,1.368561e+02
2.219667e+03,1.377219e+02
2.222560e+03,1.377375e+02
2.225452e+03,1.346313e+02
2.228345e+03,1.286506e+02
2.231238e+03,1.375755e+02
2.234131e+03,1.290481e+02
2.237023e+03,1.372126e+02
2.239916e+03,1.353903e+02
2.242809e+03,1.347694e+02
2.245701e+03,1.311321e+02
2.248594e+03,1.358128e+02
2.251487e+03,1.317144e+02
2.254379e+03,1.285496e+02
2.257272e+03,1.367359e+02
2.260165e+03,1.297412e+02
2.263058e+03,1.310609e+02
2.265950e+03,1.331159e+02
2.268843e+03,1.314997e+02
2.271736e+03,1.296574e+02
2.274628e+03,1.354733e+02
2.277521e+03,1.315429e+02
2.280414e+03,1.387751e+02
2.283306e+03,1.360056e+02
2.286199e+03,1.290270e+02
2.289092e+03,1.300852e+02
2.291985e+03,1.296663e+02
2.294877e+03,1.264700e+02
2.297770e+03,1.346498e+02
2.300663e+03,1.258142e+02
2.303555e+03,1.272188e+02
2.306448e+03,1.258000e+02
2.309341e+03,1.284350e+02
2.312233e+03,1.299118e+02
2.315126e+03,1.243909e+02
2.318019e+03,1.294700e+02
2.320912e+03,1.280355e+02
2.323804e+03,1.284030e+02
2.326697e+03,1.275831e+02
2.329590e+03,1.246836e+02
2.332482e+03,1.301199e+02
2.335375e+03,1.230616e+02
2.338268e+03,1.240173e+02
2.341160e+03,1.198374e+02
2.344053e+03,1.265256e+02
2.346946e+03,1.266258e+02
2.349839e+03,1.221563e+02
2.352731e+03,1.270915e+02
2.355624e+03,1.243963e+02
2.358517e+03,1.293469e+02
2.361409e+03,1.231375e+02
2.364302e+03,1.238728e+02
2.367195e+03,1.185774e+02
2.370087e+03,1.241423e+02
2.372980e+03,1.270905e+02
2.375873e+03,1.222288e+02
2.378766e+03,1.224020e+02
2.381658e+03,1.174568e+02
2.384551e+03,1.185367e+02
2.387444e+03,1.227407e+02
2.390336e+03,1.251120e+02
2.393229e+03,1.142290e+02
2.396122e+03,1.189541e+02
2.399014e+03,1.151607e+02
2.401907e+03,1.251609e+02
2.404800e+03,1.202028e+02
2.407693e+03,1.236266e+02
2.410585e+03,1.177569e+02
2.413478e+03,1.137517e+02
2.416371e+03,1.196679e+02
2.419263e+03,1.206702e+02
2.422156e+03,1.254165e+02
2.425049e+03,1.189048e+02
2.427941e+03,1.180175e+02
2.430834e+03,1.163900e+02
2.433727e+03,1.133165e+02
2.436620e+03,1.218100e+02
2.439512e+03,1.165982e+02
2.442405e+03,1.175882e+02
2.445298e+03,1.215207e+02
2.448190e+03,1.148806e+02
2.451083e+03,1.191476e+02
2.453976e+03,1.183988e+02
2.456868e+03,1.100215e+02
2.459761e+03,1.185251e+02
2.462654e+03,1.156288e+02
2.465547e+03,1.119176e+02
2.468439e+03,1.142599e+02
2.471332e+03,1.116648e+02
2.474225e+03,1.200907e+02
2.477117e+03,1.166842e+02
2.480010e+03,1.251108e+02
2.482903e+03,1.187848e+02
2.485795e+03,1.170788e+02
2.488688e+03,1.216818e+02
2.491581e+03,1.130791e+02
2.494474e+03,1.163198e+02
2.497366e+03,1.162903e+02
2.500259e+03,1.112039e+02
2.503152e+03,1.169108e+02
2.506044e+03,1.222246e+02
2.508937e+03,1.160008e+02
2.511830e+03,1.178457e+02
2.514722e+03,1.188225e+02
2.517615e+03,1.186393e+02
2.520508e+03,1.231297e+02
2.523401e+03,1.201535e+02
2.526293e+03,1.155057e+02
2.529186e+03,1.083075e+02
2.532079e+03,1.122972e+02
2.534971e+03,1.127633e+02
2.537864e+03,1.117707e+02
2.540757e+03,1.154542e+02
2.543649e+03,1.219482e+02
2.546542e+03,1.219788e+02
2.549435e+03,1.215362e+02
2.552328e+03,1.194802e+02
2.555220e+03,1.279586e+02
2.558113e+03,1.185549e+02
2.561006e+03,1.230551e+02
2.563898e+03,1.220851e+02
2.566791e+03,1.179876e+02
2.569684e+03,1.201226e+02
2.572576e+03,1.239677e+02
2.575469e+03,1.199643e+02
2.578362e+03,1.215537e+02
2.581255e+03,1.171818e+02
2.584147e+03,1.123740e+02
2.587040e+03,1.153377e+02
2.589933e+03,1.180036e+02
2.592825e+03,1.141987e+02
2.595718e+03,1.153531e+02
2.598611e+03,1.124931e+02
2.601503e+03,1.195769e+02
2.604396e+03,1.122373e+02
2.607289e+03,1.125229e+02
2.610182e+03,1.109016e+02
2.613074e+03,1.145038e+02
2.615967e+03,1.200594e+02
2.618860e+03,1.111369e+02
2.621752e+03,1.123991e+02
2.624645e+03,1.158866e+02
2.627538e+03,1.191646e+02
2.630430e+03,1.060058e+02
2.633323e+03,1.111059e+02
2.636216e+03,1.108332e+02
2.639109e+03,1.146011e+02
2.642001e+03,1.148905e+02
2.644894e+03,1.091541e+02
2.647787e+03,1.078174e+02
2.650679e+03,1.128089e+02
2.653572e+03,1.168946e+02
2.656465e+03,1.137797e+02
2.659357e+03,1.097928e+02
2.662250e+03,1.056886e+02
2.665143e+03,1.184176e+02
2.668036e+03,1.119020e+02
2.670928e+03,1.228088e+02
2.673821e+03,1.162555e+02
2.676714e+03,1.126585e+02
2.679606e+03,1.109791e+02
2.682499e+03,1.094883e+02
2.685392e+03,1.092927e+02
2.688284e+03,1.106687e+02
2.691177e+03,1.172639e+02
2.694070e+03,1.059311e+02
2.696963e+03,1.119753e+02
2.699855e+03,1.178346e+02
2.702748e+03,1.125649e+02
2.705641e+03,1.152245e+02
2.708533e+03,1.047850e+02
2.711426e+03,1.094911e+02
2.714319e+03,1.175500e+02
2.717211e+03,1.156438e+02
2.720104e+03,1.181193e+02
2.722997e+03,1.206854e+02
2.725890e+03,1.087859e+02
2.728782e+03,1.180370e+02
2.731675e+03,1.073523e+02
2.734568e+03,1.157136e+02
2.737460e+03,1.124352e+02
2.740353e+03,1.115865e+02
2.743246e+03,1.061550e+02
2.746138e+03,1.092684e+02
2.749031e+03,1.086771e+02
2.751924e+03,1.051776e+02
2.754817e+03,1.130710e+02
2.757709e+03,1.173643e+02
2.760602e+03,1.194577e+02
2.763495e+03,1.105175e+02
2.766387e+03,1.165819e+02
2.769280e+03,1.113161e+02
2.772173e+03,1.240280e+02
2.775065e+03,1.107959e+02
2.777958e+03,1.091164e+02
2.780851e+03,1.143952e+02
2.783744e+03,1.122971e+02
2.786636e+03,1.152918e+02
2.789529e+03,1.157065e+02
2.792422e+03,1.121131e+02
2.795314e+03,1.077822e+02
2.798207e+03,1.074390e+02
2.801100e+03,1.090603e+02
2.803992e+03,1.132127e+02
2.806885e+03,1.054357e+02
2.809778e+03,1.208049e+02
2.812671e+03,1.233210e+02
2.815563e+03,1.154254e+02
2.818456e+03,1.144048e+02
2.821349e+03,1.156036e+02
2.824241e+03,1.085189e+02
2.827134e+03,1.255869e+02
2.830027e+03,1.222670e+02
2.832919e+03,1.222212e+02
2.835812e+03,1.178062e+02
2.838705e+03,1.275763e+02
2.841598e+03,1.253676e+02
2.844490e+03,1.227654e+02
2.847383e+03,1.423776e+02
2.850276e+03,1.297847e+02
2.853168e+03,1.301861e+02
2.856061e+03,1.395533e+02
2.858954e+03,1.289232e+02
2.861846e+03,1.437695e+02
2.864739e+03,1.301956e+02
2.867632e+03,1.544118e+02
2.870525e+03,1.517347e+02
2.873417e+03,1.512404e+02
2.876310e+03,1.501236e+02
2.879203e+03,1.466066e+02
2.882095e+03,1.447540e+02
2.884988e+03,1.662678e+02
2.887881e+03,1.618806e+02
2.890773e+03,1.531014e+02
2.893666e+03,1.576993e+02
2.896559e+03,1.701349e+02
2.899452e+03,1.756227e+02
2.902344e+03,1.706244e+02
2.905237e+03,1.638101e+02
2.908130e+03,1.618802e+02
2.911022e+03,1.599902e+02
2.913915e+03,1.439232e+02
2.916808e+03,1.409433e+02
2.919700e+03,1.524776e+02
2.922593e+03,1.392524e+02
2.925486e+03,1.553775e+02
2.928379e+03,1.394006e+02
2.931271e+03,1.394713e+02
2.934164e+03,1.431320e+02
2.937057e+03,1.336968e+02
2.939949e+03,1.425323e+02
2.942842e+03,1.348113e+02
2.945735e+03,1.311625e+02
2.948627e+03,1.378938e+02
2.951520e+03,1.304130e+02
2.954413e+03,1.309857e+02
2.957306e+03,1.649245e+02
2.960198e+03,1.501253e+02
2.963091e+03,1.275683e+02
2.965984e+03,1.338587e+02
2.968876e+03,1.357243e+02
2.971769e+03,1.258899e+02
2.974662e+03,1.127018e+02
2.977554e+03,1.232347e+02
2.980447e+03,1.075933e+02
2.983340e+03,1.120197e+02
2.986233e+03,1.116919e+02
2.989125e+03,1.145316e+02
2.992018e+03,1.092005e+02
2.994911e+03,1.043954e+02
2.997803e+03,1.040191e+02
3.000696e+03,1.016037e+02
3.003589e+03,1.047803e+02
3.006481e+03,1.179610e+02
3.009374e+03,1.153819e+02
3.012267e+03,1.031148e+02
3.015160e+03,9.693200e+01
3.018052e+03,9.996592e+01
3.020945e+03,1.132732e+02
3.023838e+03,9.849430e+01
3.026730e+03,1.032646e+02
3.029623e+03,1.002851e+02
3.032516e+03,9.819317e+01
3.035408e+03,8.741183e+01
3.038301e+03,9.915797e+01
3.041194e+03,1.052568e+02
3.044087e+03,7.861748e+01
3.046979e+03,1.134161e+02
3.049872e+03,9.754493e+01
3.052765e+03,1.205163e+02
3.055657e+03,1.115821e+02
3.058550e+03,1.088207e+02
3.061443e+03,9.865166e+01
3.064335e+03,9.635722e+01
3.067228e+03,1.016291e+02
3.070121e+03,1.175389e+02
3.073014e+03,9.638713e+01
3.075906e+03,1.203371e+02
3.078799e+03,1.177569e+02
3.081692e+03,1.282342e+02
3.084584e+03,1.082880e+02
3.087477e+03,1.103795e+02
3.090370e+03,1.154747e+02
3.093262e+03,8.022945e+01
3.096155e+03,1.193959e+02
3.099048e+03,1.050753e+02
3.101941e+03,1.010576e+02
3.104833e+03,1.110094e+02
3.107726e+03,1.204262e+02
3.110619e+03,1.245242e+02
3.113511e+03,1.034999e+02
3.116404e+03,1.168902e+02
3.119297e+03,1.084321e+02
3.122189e+03,1.217884e+02
3.125082e+03,1.177959e+02
3.127975e+03,1.235003e+02
3.130868e+03,1.241106e+02
3.133760e+03,1.308506e+02
3.136653e+03,1.048894e+02
3.139546e+03,1.256445e+02
3.142438e+03,1.319616e+02
3.145331e+03,8.461614e+01
3.148224e+03,1.264871e+02
3.151116e+03,1.197327e+02
3.154009e+03,1.291163e+02
3.156902e+03,1.438747e+02
3.159795e+03,9.852938e+01
3.162687e+03,1.102867e+02
3.165580e+03,1.482583e+02
3.168473e+03,1.238302e+02
3.171365e+03,1.210293e+02
3.174258e+03,1.017813e+02
3.177151e+03,1.165962e+02
3.180043e+03,1.161491e+02
3.182936e+03,1.284475e+02
3.185829e+03,1.198470e+02
3.188722e+03,1.034500e+02
3.191614e+03,1.485340e+02
3.194507e+03,1.202758e+02
3.197400e+03,1.081699e+02
3.200292e+03,1.488847e+02
3.203185e+03,0.000000e+00
3.206078e+03,0.000000e+00
3.208970e+03,0.000000e+00
3.211863e+03,0.000000e+00
3.214756e+03,0.000000e+00
3.217649e+03,0.000000e+00
3.220541e+03,0.000000e+00
3.223434e+03,0.000000e+00
3.226327e+03,0.000000e+00
3.229219e+03,0.000000e+00
3.232112e+03,0.000000e+00
3.235005e+03,0.000000e+00
3.237897e+03,0.000000e+00
3.240790e+03,0.000000e+00
3.243683e+03,0.000000e+00
3.246576e+03,0.000000e+00
3.249468e+03,0.000000e+00
3.252361e+03,0.000000e+00
3.255254e+03,0.000000e+00
3.258146e+03,0.000000e+00
3.261039e+03,0.000000e+00
3.263932e+03,0.000000e+00
3.266824e+03,0.000000e+00
3.269717e+03,0.000000e+00
3.272610e+03,0.000000e+00
3.275503e+03,0.000000e+00
3.278395e+03,0.000000e+00
3.281288e+03,0.000000e+00
3.284181e+03,0.000000e+00
3.287073e+03,0.000000e+00
3.289966e+03,0.000000e+00
3.292859e+03,0.000000e+00
3.295751e+03,0.000000e+00
3.298644e+03,0.000000e+00
3.301537e+03,0.000000e+00
3.304430e+03,0.000000e+00
3.307322e+03,0.000000e+00
3.310215e+03,0.000000e+00
3.313108e+03,0.000000e+00
3.316000e+03,0.000000e+00
3.318893e+03,0.000000e+00
3.321786e+03,0.000000e+00
3.324678e+03,0.000000e+00
3.327571e+03,0.000000e+00
3.330464e+03,0.000000e+00
3.333357e+03,0.000000e+00
3.336249e+03,0.000000e+00
3.339142e+03,0.000000e+00
3.342035e+03,0.000000e+00
3.344927e+03,0.000000e+00
3.347820e+03,0.000000e+00
3.350713e+03,0.000000e+00
3.353605e+03,0.000000e+00
3.356498e+03,0.000000e+00
3.359391e+03,0.000000e+00
3.362284e+03,0.000000e+00
3.365176e+03,0.000000e+00
3.368069e+03,0.000000e+00
3.370962e+03,0.000000e+00
3.373854e+03,0.000000e+00
3.376747e+03,0.000000e+00
3.379640e+03,0.000000e+00
3.382532e+03,0.000000e+00
3.385425e+03,0.000000e+00
3.388318e+03,0.000000e+00
3.391211e+03,0.000000e+00
3.394103e+03,0.000000e+00
3.396996e+03,0.000000e+00
3.399889e+03,0.000000e+00
3.402781e+03,0.000000e+00
3.405674e+03,0.000000e+00
3.408567e+03,0.000000e+00
3.411459e+03,0.000000e+00
3.414352e+03,0.000000e+00
3.417245e+03,0.000000e+00
3.420138e+03,0.000000e+00
3.423030e+03,0.000000e+00
3.425923e+03,0.000000e+00
3.428816e+03,0.000000e+00
3.431708e+03,0.000000e+00
3.434601e+03,0.000000e+00
3.437494e+03,0.000000e+00
3.440386e+03,0.000000e+00
3.443279e+03,0.000000e+00
3.446172e+03,0.000000e+00
3.449065e+03,0.000000e+00
3.451957e+03,0.000000e+00
3.454850e+03,0.000000e+00
3.457743e+03,0.000000e+00
3.460635e+03,0.000000e+00
3.463528e+03,0.000000e+00
3.466421e+03,0.000000e+00
3.469313e+03,0.000000e+00
3.472206e+03,0.000000e+00
3.475099e+03,0.000000e+00
3.477992e+03,0.000000e+00
3.480884e+03,0.000000e+00
3.483777e+03,0.000000e+00
3.486670e+03,0.000000e+00
3.489563e+03,0.000000e+00
3.492455e+03,0.000000e+00
3.495348e+03,0.000000e+00
3.498240e+03,0.000000e+00
3.500169e+03,0.000000e+00