File: RAMAN_data/12022024_r1/blue frag1.CSV
9.931763e+01,0.000000e+00
1.022103e+02,0.000000e+00
1.051030e+02,0.000000e+00
1.079957e+02,0.000000e+00
1.108884e+02,0.000000e+00
1.137811e+02,0.000000e+00
1.166738e+02,0.000000e+00
1.195665e+02,0.000000e+00
1.224592e+02,0.000000e+00
1.253519e+02,0.000000e+00
1.282446e+02,0.000000e+00
1.311373e+02,0.000000e+00
1.340300e+02,0.000000e+00
1.369227e+02,0.000000e+00
1.398154e+02,0.000000e+00
1.427081e+02,0.000000e+00
1.456008e+02,0.000000e+00
1.484935e+02,0.000000e+00
1.513862e+02,0.000000e+00
1.542789e+02,0.000000e+00
1.571716e+02,0.000000e+00
1.600643e+02,0.000000e+00
1.629570e+02,0.000000e+00
1.658497e+02,0.000000e+00
1.687424e+02,0.000000e+00
1.716351e+02,0.000000e+00
1.745278e+02,0.000000e+00
1.774205e+02,0.000000e+00
1.803132e+02,0.000000e+00
1.832059e+02,0.000000e+00
1.860986e+02,0.000000e+00
1.889913e+02,0.000000e+00
1.918840e+02,0.000000e+00
1.947767e+02,0.000000e+00
1.976694e+02,0.000000e+00
2.005621e+02,1.571724e+03
2.034548e+02,1.578704e+03
2.063475e+02,1.575452e+03
2.092402e+02,1.572386e+03
2.121329e+02,1.574777e+03
2.150256e+02,1.575039e+03
2.179183e+02,1.570230e+03
2.208110e+02,1.574195e+03
2.237037e+02,1.581688e+03
2.265964e+02,1.571657e+03
2.294892e+02,1.573800e+03
2.323819e+02,1.580505e+03
2.352746e+02,1.571377e+03
2.381673e+02,1.569674e+03
2.410600e+02,1.573627e+03
2.439527e+02,1.583651e+03
2.468454e+02,1.586364e+03
2.497381e+02,1.598971e+03
2.526308e+02,1.611324e+03
2.555235e+02,1.619307e+03
2.584161e+02,1.609116e+03
2.613088e+02,1.588455e+03
2.642015e+02,1.575459e+03
2.670942e+02,1.571021e+03
2.699869e+02,1.563372e+03
2.728796e+02,1.562742e+03
2.757723e+02,1.562473e+03
2.786650e+02,1.576812e+03
2.815577e+02,1.572703e+03
2.844504e+02,1.589309e+03
2.873431e+02,1.575973e+03
2.902358e+02,1.567700e+03
2.931285e+02,1.568218e+03
2.960212e+02,1.555938e+03
2.989139e+02,1.561215e+03
3.018066e+02,1.561117e+03
3.046993e+02,1.553430e+03
3.075920e+02,1.549691e+03
3.104847e+02,1.559280e+03
3.133774e+02,1.559445e+03
3.162701e+02,1.548971e+03
3.191628e+02,1.550194e+03
3.220555e+02,1.547693e+03
3.249482e+02,1.552937e+03
3.278409e+02,1.556194e+03
3.307336e+02,1.558648e+03
3.336263e+02,1.552460e+03
3.365190e+02,1.539216e+03
3.394117e+02,1.549548e+03
3.423044e+02,1.547098e+03
3.451971e+02,1.536937e+03
3.480898e+02,1.545896e+03
3.509825e+02,1.539381e+03
3.538752e+02,1.539356e+03
3.567680e+02,1.526270e+03
3.596607e+02,1.534318e+03
3.625534e+02,1.544604e+03
3.654461e+02,1.517970e+03
3.683388e+02,1.529297e+03
3.712315e+02,1.524250e+03
3.741242e+02,1.534921e+03
3.770169e+02,1.530264e+03
3.799096e+02,1.525464e+03
3.828023e+02,1.527891e+03
3.856950e+02,1.526689e+03
3.885877e+02,1.531035e+03
3.914804e+02,1.538178e+03
3.943731e+02,1.526978e+03
3.972658e+02,1.512808e+03
4.001585e+02,1.513504e+03
4.030512e+02,1.515789e+03
4.059439e+02,1.504660e+03
4.088366e+02,1.518274e+03
4.117293e+02,1.516722e+03
4.146220e+02,1.517391e+03
4.175147e+02,1.519413e+03
4.204074e+02,1.511848e+03
4.233001e+02,1.515285e+03
4.261928e+02,1.515490e+03
4.290855e+02,1.505424e+03
4.319782e+02,1.507646e+03
4.348709e+02,1.507721e+03
4.377636e+02,1.517273e+03
4.406563e+02,1.503358e+03
4.435490e+02,1.500079e+03
4.464417e+02,1.500776e+03
4.493344e+02,1.488863e+03
4.522271e+02,1.499282e+03
4.551198e+02,1.507347e+03
4.580125e+02,1.497898e+03
4.609052e+02,1.483762e+03
4.637979e+02,1.488500e+03
4.666906e+02,1.492256e+03
4.695833e+02,1.495128e+03
4.724760e+02,1.486705e+03
4.753687e+02,1.484870e+03
4.782614e+02,1.497173e+03
4.811541e+02,1.506230e+03
4.840468e+02,1.522167e+03
4.869395e+02,1.515198e+03
4.898322e+02,1.494595e+03
4.927249e+02,1.499545e+03
4.956176e+02,1.476104e+03
4.985103e+02,1.480990e+03
5.014030e+02,1.478984e+03
5.042957e+02,1.469881e+03
5.071884e+02,1.459280e+03
5.100811e+02,1.468470e+03
5.129738e+02,1.461452e+03
5.158665e+02,1.474345e+03
5.187592e+02,1.468974e+03
5.216519e+02,1.459990e+03
5.245446e+02,1.464675e+03
5.274373e+02,1.456833e+03
5.303300e+02,1.461611e+03
5.332227e+02,1.462088e+03
5.361154e+02,1.463539e+03
5.390081e+02,1.462525e+03
5.419008e+02,1.463328e+03
5.447935e+02,1.455168e+03
5.476862e+02,1.466693e+03
5.505789e+02,1.452395e+03
5.534716e+02,1.451514e+03
5.563643e+02,1.446324e+03
5.592570e+02,1.442215e+03
5.621497e+02,1.451128e+03
5.650424e+02,1.458634e+03
5.679351e+02,1.453176e+03
5.708278e+02,1.455786e+03
5.737205e+02,1.454821e+03
5.766132e+02,1.452744e+03
5.795059e+02,1.448633e+03
5.823986e+02,1.460715e+03
5.852913e+02,1.474497e+03
5.881840e+02,1.481810e+03
5.910767e+02,1.494256e+03
5.939694e+02,1.474554e+03
5.968621e+02,1.448516e+03
5.997548e+02,1.448704e+03
6.026475e+02,1.440605e+03
6.055402e+02,1.432247e+03
6.084329e+02,1.437004e+03
6.113256e+02,1.446773e+03
6.142183e+02,1.440512e+03
6.171110e+02,1.427828e+03
6.200037e+02,1.431089e+03
6.228964e+02,1.430252e+03
6.257891e+02,1.430435e+03
6.286818e+02,1.422057e+03
6.315745e+02,1.416764e+03
6.344672e+02,1.420963e+03
6.373599e+02,1.427508e+03
6.402526e+02,1.428000e+03
6.431453e+02,1.417241e+03
6.460380e+02,1.418819e+03
6.489307e+02,1.416768e+03
6.518234e+02,1.420494e+03
6.547161e+02,1.420401e+03
6.576088e+02,1.419555e+03
6.605015e+02,1.417558e+03
6.633942e+02,1.415522e+03
6.662869e+02,1.413212e+03
6.691796e+02,1.429933e+03
6.720723e+02,1.467459e+03
6.749650e+02,1.566659e+03
6.778577e+02,1.643839e+03
6.807504e+02,1.590940e+03
6.836431e+02,1.500592e+03
6.865358e+02,1.477277e+03
6.894285e+02,1.470705e+03
6.923212e+02,1.456592e+03
6.952139e+02,1.436495e+03
6.981066e+02,1.414304e+03
7.009993e+02,1.404845e+03
7.038920e+02,1.407720e+03
7.067847e+02,1.395686e+03
7.096774e+02,1.400429e+03
7.125701e+02,1.414187e+03
7.154628e+02,1.407254e+03
7.183555e+02,1.403645e+03
7.212482e+02,1.401332e+03
7.241409e+02,1.385651e+03
7.270336e+02,1.391267e+03
7.299263e+02,1.397043e+03
7.328190e+02,1.388270e+03
7.357117e+02,1.394315e+03
7.386044e+02,1.420711e+03
7.414971e+02,1.579786e+03
7.443898e+02,1.781351e+03
7.472825e+02,1.745364e+03
7.501752e+02,1.525146e+03
7.530679e+02,1.404941e+03
7.559606e+02,1.375901e+03
7.588533e+02,1.374107e+03
7.617460e+02,1.379181e+03
7.646387e+02,1.370443e+03
7.675314e+02,1.389365e+03
7.704241e+02,1.384126e+03
7.733168e+02,1.390200e+03
7.762095e+02,1.398474e+03
7.791022e+02,1.396085e+03
7.819949e+02,1.380541e+03
7.848876e+02,1.365646e+03
7.877803e+02,1.356579e+03
7.906730e+02,1.357314e+03
7.935657e+02,1.361284e+03
7.964584e+02,1.350534e+03
7.993511e+02,1.347262e+03
8.022438e+02,1.336219e+03
8.051365e+02,1.344131e+03
8.080292e+02,1.358764e+03
8.109219e+02,1.342675e+03
8.138146e+02,1.333472e+03
8.167073e+02,1.335409e+03
8.196000e+02,1.344631e+03
8.224927e+02,1.347446e+03
8.253854e+02,1.352732e+03
8.282781e+02,1.356436e+03
8.311708e+02,1.367522e+03
8.340635e+02,1.377474e+03
8.369562e+02,1.373307e+03
8.398489e+02,1.368178e+03
8.427416e+02,1.361093e+03
8.456343e+02,1.360269e+03
8.485270e+02,1.340676e+03
8.514197e+02,1.341276e+03
8.543124e+02,1.335775e+03
8.572051e+02,1.342985e+03
8.600978e+02,1.342106e+03
8.629905e+02,1.330918e+03
8.658832e+02,1.323169e+03
8.687759e+02,1.332602e+03
8.716686e+02,1.323545e+03
8.745613e+02,1.326070e+03
8.774540e+02,1.326771e+03
8.803467e+02,1.332107e+03
8.832394e+02,1.341061e+03
8.861321e+02,1.321944e+03
8.890248e+02,1.312920e+03
8.919175e+02,1.314221e+03
8.948102e+02,1.319291e+03
8.977029e+02,1.312922e+03
9.005956e+02,1.315163e+03
9.034883e+02,1.312161e+03
9.063810e+02,1.316590e+03
9.092737e+02,1.302380e+03
9.121664e+02,1.309388e+03
9.150591e+02,1.299308e+03
9.179518e+02,1.308268e+03
9.208445e+02,1.301989e+03
9.237372e+02,1.312606e+03
9.266299e+02,1.313989e+03
9.295226e+02,1.307014e+03
9.324153e+02,1.306824e+03
9.353080e+02,1.302524e+03
9.382007e+02,1.305147e+03
9.410934e+02,1.292852e+03
9.439861e+02,1.305381e+03
9.468788e+02,1.313878e+03
9.497715e+02,1.330968e+03
9.526642e+02,1.322891e+03
9.555569e+02,1.302946e+03
9.584496e+02,1.308014e+03
9.613423e+02,1.297094e+03
9.642350e+02,1.286882e+03
9.671277e+02,1.295719e+03
9.700204e+02,1.289241e+03
9.729131e+02,1.292329e+03
9.758058e+02,1.292095e+03
9.786985e+02,1.292210e+03
9.815912e+02,1.282662e+03
9.844839e+02,1.281635e+03
9.873766e+02,1.293020e+03
9.902693e+02,1.287769e+03
9.931620e+02,1.284533e+03
9.960547e+02,1.285692e+03
9.989474e+02,1.304812e+03
1.001840e+03,1.304833e+03
1.004733e+03,1.313443e+03
1.007626e+03,1.314436e+03
1.010518e+03,1.304701e+03
1.013411e+03,1.285648e+03
1.016304e+03,1.281552e+03
1.019196e+03,1.283494e+03
1.022089e+03,1.280080e+03
1.024982e+03,1.281854e+03
1.027875e+03,1.279699e+03
1.030767e+03,1.282606e+03
1.033660e+03,1.279103e+03
1.036552e+03,1.278727e+03
1.039445e+03,1.284059e+03
1.042338e+03,1.283162e+03
1.045231e+03,1.273155e+03
1.048123e+03,1.273741e+03
1.051016e+03,1.266863e+03
1.053909e+03,1.293449e+03
1.056802e+03,1.291776e+03
1.059694e+03,1.302189e+03
1.062587e+03,1.280417e+03
1.065479e+03,1.290998e+03
1.068372e+03,1.288225e+03
1.071265e+03,1.282979e+03
1.074158e+03,1.277077e+03
1.077050e+03,1.283655e+03
1.079943e+03,1.278567e+03
1.082836e+03,1.289239e+03
1.085729e+03,1.290494e+03
1.088621e+03,1.277934e+03
1.091514e+03,1.281662e+03
1.094406e+03,1.280225e+03
1.097299e+03,1.283190e+03
1.100192e+03,1.294536e+03
1.103085e+03,1.306531e+03
1.105977e+03,1.305900e+03
1.108870e+03,1.293872e+03
1.111763e+03,1.288088e+03
1.114656e+03,1.288603e+03
1.117548e+03,1.286162e+03
1.120441e+03,1.297791e+03
1.123334e+03,1.301000e+03
1.126226e+03,1.306791e+03
1.129119e+03,1.307706e+03
1.132012e+03,1.318201e+03
1.134904e+03,1.341586e+03
1.137797e+03,1.424856e+03
1.140690e+03,1.487418e+03
1.143583e+03,1.426010e+03
1.146475e+03,1.325991e+03
1.149368e+03,1.296226e+03
1.152261e+03,1.298570e+03
1.155153e+03,1.301307e+03
1.158046e+03,1.305004e+03
1.160939e+03,1.297289e+03
1.163831e+03,1.289717e+03
1.166724e+03,1.293079e+03
1.169617e+03,1.277094e+03
1.172510e+03,1.273529e+03
1.175402e+03,1.276935e+03
1.178295e+03,1.300124e+03
1.181188e+03,1.329700e+03
1.184080e+03,1.331214e+03
1.186973e+03,1.303281e+03
1.189866e+03,1.298459e+03
1.192758e+03,1.299897e+03
1.195651e+03,1.290688e+03
1.198544e+03,1.292875e+03
1.201437e+03,1.287927e+03
1.204329e+03,1.280741e+03
1.207222e+03,1.286920e+03
1.210115e+03,1.296541e+03
1.213007e+03,1.289877e+03
1.215900e+03,1.288695e+03
1.218793e+03,1.287931e+03
1.221685e+03,1.281920e+03
1.224578e+03,1.266631e+03
1.227471e+03,1.256063e+03
1.230364e+03,1.262130e+03
1.233256e+03,1.260713e+03
1.236149e+03,1.251764e+03
1.239042e+03,1.263750e+03
1.241934e+03,1.258418e+03
1.244827e+03,1.267952e+03
1.247720e+03,1.251366e+03
1.250612e+03,1.262753e+03
1.253505e+03,1.258126e+03
1.256398e+03,1.244011e+03
1.259291e+03,1.256647e+03
1.262183e+03,1.264748e+03
1.265076e+03,1.259723e+03
1.267969e+03,1.262825e+03
1.270861e+03,1.272607e+03
1.273754e+03,1.259135e+03
1.276647e+03,1.256218e+03
1.279539e+03,1.262745e+03
1.282432e+03,1.269125e+03
1.285325e+03,1.278741e+03
1.288218e+03,1.279172e+03
1.291110e+03,1.297326e+03
1.294003e+03,1.307163e+03
1.296896e+03,1.301014e+03
1.299788e+03,1.312117e+03
1.302681e+03,1.319083e+03
1.305574e+03,1.321635e+03
1.308466e+03,1.299884e+03
1.311359e+03,1.295716e+03
1.314252e+03,1.287532e+03
1.317145e+03,1.294271e+03
1.320037e+03,1.292106e+03
1.322930e+03,1.315221e+03
1.325823e+03,1.324541e+03
1.328715e+03,1.347990e+03
1.331608e+03,1.411814e+03
1.334501e+03,1.507276e+03
1.337393e+03,1.583961e+03
1.340286e+03,1.578594e+03
1.343179e+03,1.476450e+03
1.346072e+03,1.365609e+03
1.348964e+03,1.306192e+03
1.351857e+03,1.301554e+03
1.354750e+03,1.293003e+03
1.357642e+03,1.281828e+03
1.360535e+03,1.282749e+03
1.363428e+03,1.274738e+03
1.366320e+03,1.274539e+03
1.369213e+03,1.265762e+03
1.372106e+03,1.262076e+03
1.374999e+03,1.253575e+03
1.377891e+03,1.253281e+03
1.380784e+03,1.252542e+03
1.383677e+03,1.240220e+03
1.386569e+03,1.232508e+03
1.389462e+03,1.247594e+03
1.392355e+03,1.242389e+03
1.395247e+03,1.230713e+03
1.398140e+03,1.232892e+03
1.401033e+03,1.235627e+03
1.403926e+03,1.240532e+03
1.406818e+03,1.234378e+03
1.409711e+03,1.241528e+03
1.412604e+03,1.248472e+03
1.415496e+03,1.244019e+03
1.418389e+03,1.243000e+03
1.421282e+03,1.247441e+03
1.424174e+03,1.259285e+03
1.427067e+03,1.268979e+03
1.429960e+03,1.271486e+03
1.432853e+03,1.270949e+03
1.435745e+03,1.273870e+03
1.438638e+03,1.274171e+03
1.441531e+03,1.276055e+03
1.444423e+03,1.288345e+03
1.447316e+03,1.345563e+03
1.450209e+03,1.361386e+03
1.453101e+03,1.328795e+03
1.455994e+03,1.285064e+03
1.458887e+03,1.262952e+03
1.461780e+03,1.237857e+03
1.464672e+03,1.241573e+03
1.467565e+03,1.246923e+03
1.470458e+03,1.237151e+03
1.473350e+03,1.230651e+03
1.476243e+03,1.228193e+03
1.479136e+03,1.233896e+03
1.482028e+03,1.220457e+03
1.484921e+03,1.225535e+03
1.487814e+03,1.223140e+03
1.490707e+03,1.212063e+03
1.493599e+03,1.224279e+03
1.496492e+03,1.220573e+03
1.499385e+03,1.221088e+03
1.502277e+03,1.215566e+03
1.505170e+03,1.220064e+03
1.508063e+03,1.222257e+03
1.510955e+03,1.235680e+03
1.513848e+03,1.259616e+03
1.516741e+03,1.330614e+03
1.519634e+03,1.512127e+03
1.522526e+03,1.836133e+03
1.525419e+03,2.009347e+03
1.528312e+03,1.828051e+03
1.531204e+03,1.534208e+03
1.534097e+03,1.377697e+03
1.536990e+03,1.307569e+03
1.539882e+03,1.278094e+03
1.542775e+03,1.235823e+03
1.545668e+03,1.219300e+03
1.548561e+03,1.208134e+03
1.551453e+03,1.209175e+03
1.554346e+03,1.203975e+03
1.557239e+03,1.194314e+03
1.560131e+03,1.188877e+03
1.563024e+03,1.177328e+03
1.565917e+03,1.175891e+03
1.568809e+03,1.181404e+03
1.571702e+03,1.187254e+03
1.574595e+03,1.187560e+03
1.577488e+03,1.178768e+03
1.580380e+03,1.167454e+03
1.583273e+03,1.171310e+03
1.586166e+03,1.178432e+03
1.589058e+03,1.168498e+03
1.591951e+03,1.176381e+03
1.594844e+03,1.169984e+03
1.597736e+03,1.166803e+03
1.600629e+03,1.171786e+03
1.603522e+03,1.157516e+03
1.606415e+03,1.163688e+03
1.609307e+03,1.163460e+03
1.612200e+03,1.155268e+03
1.615093e+03,1.151673e+03
1.617985e+03,1.138741e+03
1.620878e+03,1.136465e+03
1.623771e+03,1.132879e+03
1.626663e+03,1.138645e+03
1.629556e+03,1.126775e+03
1.632449e+03,1.123687e+03
1.635342e+03,1.118998e+03
1.638234e+03,1.114233e+03
1.641127e+03,1.117181e+03
1.644020e+03,1.108969e+03
1.646912e+03,1.106349e+03
1.649805e+03,1.107802e+03
1.652698e+03,1.098238e+03
1.655590e+03,1.106387e+03
1.658483e+03,1.094027e+03
1.661376e+03,1.097344e+03
1.664269e+03,1.094873e+03
1.667161e+03,1.095170e+03
1.670054e+03,1.092249e+03
1.672947e+03,1.081847e+03
1.675839e+03,1.088799e+03
1.678732e+03,1.070287e+03
1.681625e+03,1.068807e+03
1.684517e+03,1.092848e+03
1.687410e+03,1.077893e+03
1.690303e+03,1.073882e+03
1.693196e+03,1.073704e+03
1.696088e+03,1.069593e+03
1.698981e+03,1.080063e+03
1.701874e+03,1.059356e+03
1.704766e+03,1.072203e+03
1.707659e+03,1.062679e+03
1.710552e+03,1.066238e+03
1.713444e+03,1.068844e+03
1.716337e+03,1.050162e+03
1.719230e+03,1.066437e+03
1.722123e+03,1.052129e+03
1.725015e+03,1.061026e+03
1.727908e+03,1.055946e+03
1.730801e+03,1.048001e+03
1.733693e+03,1.057895e+03
1.736586e+03,1.053539e+03
1.739479e+03,1.044312e+03
1.742371e+03,1.032898e+03
1.745264e+03,1.044297e+03
1.748157e+03,1.034940e+03
1.751050e+03,1.034752e+03
1.753942e+03,1.026935e+03
1.756835e+03,1.023756e+03
1.759728e+03,1.019994e+03
1.762620e+03,1.026155e+03
1.765513e+03,1.025843e+03
1.768406e+03,1.031057e+03
1.771298e+03,1.020223e+03
1.774191e+03,1.011196e+03
1.777084e+03,1.021828e+03
1.779977e+03,1.024904e+03
1.782869e+03,1.015090e+03
1.785762e+03,1.010199e+03
1.788655e+03,1.012005e+03
1.791547e+03,1.013281e+03
1.794440e+03,1.002240e+03
1.797333e+03,1.005137e+03
1.800225e+03,1.008059e+03
1.803118e+03,1.000810e+03
1.806011e+03,9.921569e+02
1.808904e+03,9.947373e+02
1.811796e+03,1.000203e+03
1.814689e+03,9.916075e+02
1.817582e+03,9.814962e+02
1.820474e+03,9.828853e+02
1.823367e+03,9.846929e+02
1.826260e+03,9.833642e+02
1.829152e+03,9.807405e+02
1.832045e+03,9.827303e+02
1.834938e+03,9.792859e+02
1.837831e+03,9.780627e+02
1.840723e+03,9.845671e+02
1.843616e+03,9.761395e+02
1.846509e+03,9.725056e+02
1.849401e+03,9.719322e+02
1.852294e+03,9.736219e+02
1.855187e+03,9.450530e+02
1.858079e+03,9.724703e+02
1.860972e+03,9.676036e+02
1.863865e+03,9.552990e+02
1.866758e+03,9.604099e+02
1.869650e+03,9.511134e+02
1.872543e+03,9.449218e+02
1.875436e+03,9.527087e+02
1.878328e+03,9.471315e+02
1.881221e+03,9.378757e+02
1.884114e+03,9.442689e+02
1.887006e+03,9.439077e+02
1.889899e+03,9.304987e+02
1.892792e+03,9.464535e+02
1.895685e+03,9.409265e+02
1.898577e+03,9.452092e+02
1.901470e+03,9.400196e+02
1.904363e+03,9.245482e+02
1.907255e+03,9.312474e+02
1.910148e+03,9.314487e+02
1.913041e+03,9.347976e+02
1.915933e+03,9.244352e+02
1.918826e+03,9.259781e+02
1.921719e+03,9.183790e+02
1.924612e+03,9.269575e+02
1.927504e+03,9.285054e+02
1.930397e+03,9.305281e+02
1.933290e+03,9.167754e+02
1.936182e+03,9.257480e+02
1.939075e+03,9.112280e+02
1.941968e+03,9.164196e+02
1.944860e+03,9.028437e+02
1.947753e+03,9.096163e+02
1.950646e+03,9.109040e+02
1.953539e+03,9.015115e+02
1.956431e+03,8.942310e+02
1.959324e+03,9.013074e+02
1.962217e+03,9.050305e+02
1.965109e+03,8.799900e+02
1.968002e+03,8.974667e+02
1.970895e+03,8.801906e+02
1.973787e+03,8.818450e+02
1.976680e+03,8.823727e+02
1.979573e+03,8.809775e+02
1.982466e+03,8.916375e+02
1.985358e+03,8.809657e+02
1.988251e+03,8.733344e+02
1.991144e+03,8.799586e+02
1.994036e+03,8.744189e+02
1.996929e+03,8.861251e+02
1.999822e+03,8.650990e+02
2.002714e+03,8.764075e+02
2.005607e+03,8.787105e+02
2.008500e+03,8.659223e+02
2.011393e+03,8.671271e+02
2.014285e+03,8.676514e+02
2.017178e+03,8.680081e+02
2.020071e+03,8.568832e+02
2.022963e+03,8.602264e+02
2.025856e+03,8.579133e+02
2.028749e+03,8.285576e+02
2.031641e+03,8.546300e+02
2.034534e+03,8.578206e+02
2.037427e+03,8.469754e+02
2.040320e+03,8.380169e+02
2.043212e+03,8.337194e+02
2.046105e+03,8.390676e+02
2.048998e+03,8.366215e+02
2.051890e+03,8.433436e+02
2.054783e+03,8.330842e+02
2.057676e+03,8.383032e+02
2.060568e+03,8.302460e+02
2.063461e+03,8.319339e+02
2.066354e+03,8.388583e+02
2.069247e+03,8.322889e+02
2.072139e+03,8.244211e+02
2.075032e+03,8.087089e+02
2.077925e+03,8.226815e+02
2.080817e+03,8.300873e+02
2.083710e+03,8.205876e+02
2.086603e+03,8.249682e+02
2.089496e+03,8.235932e+02
2.092388e+03,8.101428e+02
2.095281e+03,8.117073e+02
2.098174e+03,8.118565e+02
2.101066e+03,8.071666e+02
2.103959e+03,8.018389e+02
2.106852e+03,7.966534e+02
2.109744e+03,8.069050e+02
2.112637e+03,7.959456e+02
2.115530e+03,7.954170e+02
2.118422e+03,7.983607e+02
2.121315e+03,7.984462e+02
2.124208e+03,7.910402e+02
2.127101e+03,7.870367e+02
2.129993e+03,7.958721e+02
2.132886e+03,7.805011e+02
2.135779e+03,8.027993e+02
2.138671e+03,7.963588e+02
2.141564e+03,7.834858e+02
2.144457e+03,7.857682e+02
2.147350e+03,7.694283e+02
2.150242e+03,7.885626e+02
2.153135e+03,7.798895e+02
2.156028e+03,7.589006e+02
2.158920e+03,7.728525e+02
2.161813e+03,7.847069e+02
2.164706e+03,7.652812e+02
2.167598e+03,7.739673e+02
2.170491e+03,7.788091e+02
2.173384e+03,7.746351e+02
2.176277e+03,7.645274e+02
2.179169e+03,7.573401e+02
2.182062e+03,7.580473e+02
2.184955e+03,7.719133e+02
2.187847e+03,7.681118e+02
2.190740e+03,7.539518e+02
2.193633e+03,7.405715e+02
2.196525e+03,7.616880e+02
2.199418e+03,7.481641e+02
2.202311e+03,7.461746e+02
2.205204e+03,7.592950e+02
2.208096e+03,7.414709e+02
2.210989e+03,7.369629e+02
2.213882e+03,7.347569e+02
2.216774e+03,7.441779e+02
2.219667e+03,7.369826e+02
2.222560e+03,7.461914e+02
2.225452e+03,7.437296e+02
2.228345e+03,7.274359e+02
2.231238e+03,7.319503e+02
2.234131e+03,7.201379e+02
2.237023e+03,7.299916e+02
2.239916e+03,7.233179e+02
2.242809e+03,7.215068e+02
2.245701e+03,7.258105e+02
2.248594e+03,7.266259e+02
2.251487e+03,7.202467e+02
2.254379e+03,7.214026e+02
2.257272e+03,7.104421e+02
2.260165e+03,7.255703e+02
2.263058e+03,7.260404e+02
2.265950e+03,7.167072e+02
2.268843e+03,7.193904e+02
2.271736e+03,7.112797e+02
2.274628e+03,7.190575e+02
2.277521e+03,7.159963e+02
2.280414e+03,7.126840e+02
2.283306e+03,7.129545e+02
2.286199e+03,7.047917e+02
2.289092e+03,7.012076e+02
2.291985e+03,6.913943e+02
2.294877e+03,6.996403e+02
2.297770e+03,7.008529e+02
2.300663e+03,7.064057e+02
2.303555e+03,6.950271e+02
2.306448e+03,6.882330e+02
2.309341e+03,6.881031e+02
2.312233e+03,6.989694e+02
2.315126e+03,6.853751e+02
2.318019e+03,6.876777e+02
2.320912e+03,6.842938e+02
2.323804e+03,6.793302e+02
2.326697e+03,6.814128e+02
2.329590e+03,6.873337e+02
2.332482e+03,6.836137e+02
2.335375e+03,6.727412e+02
2.338268e+03,6.764689e+02
2.341160e+03,6.644402e+02
2.344053e+03,6.686269e+02
2.346946e+03,6.772877e+02
2.349839e+03,6.742408e+02
2.352731e+03,6.714503e+02
2.355624e+03,6.696678e+02
2.358517e+03,6.676101e+02
2.361409e+03,6.801699e+02
2.364302e+03,6.698840e+02
2.367195e+03,6.455852e+02
2.370087e+03,6.610096e+02
2.372980e+03,6.694724e+02
2.375873e+03,6.551516e+02
2.378766e+03,6.618244e+02
2.381658e+03,6.514913e+02
2.384551e+03,6.496625e+02
2.387444e+03,6.442054e+02
2.390336e+03,6.557996e+02
2.393229e+03,6.492938e+02
2.396122e+03,6.358415e+02
2.399014e+03,6.524496e+02
2.401907e+03,6.508293e+02
2.404800e+03,6.337803e+02
2.407693e+03,6.475339e+02
2.410585e+03,6.497826e+02
2.413478e+03,6.435943e+02
2.416371e+03,6.404445e+02
2.419263e+03,6.481650e+02
2.422156e+03,6.461185e+02
2.425049e+03,6.389266e+02
2.427941e+03,6.358177e+02
2.430834e+03,6.374944e+02
2.433727e+03,6.337783e+02
2.436620e+03,6.349170e+02
2.439512e+03,6.366141e+02
2.442405e+03,6.287425e+02
2.445298e+03,6.373403e+02
2.448190e+03,6.355331e+02
2.451083e+03,6.330550e+02
2.453976e+03,6.320098e+02
2.456868e+03,6.156909e+02
2.459761e+03,6.244965e+02
2.462654e+03,6.182049e+02
2.465547e+03,6.130652e+02
2.468439e+03,6.164241e+02
2.471332e+03,6.129266e+02
2.474225e+03,6.133347e+02
2.477117e+03,6.205051e+02
2.480010e+03,6.230848e+02
2.482903e+03,6.221343e+02
2.485795e+03,6.251126e+02
2.488688e+03,6.168925e+02
2.491581e+03,6.111809e+02
2.494474e+03,6.066739e+02
2.497366e+03,6.106317e+02
2.500259e+03,6.137681e+02
2.503152e+03,6.055319e+02
2.506044e+03,6.056863e+02
2.508937e+03,6.111258e+02
2.511830e+03,6.052297e+02
2.514722e+03,6.062179e+02
2.517615e+03,6.070446e+02
2.520508e+03,6.007556e+02
2.523401e+03,6.026614e+02
2.526293e+03,6.010552e+02
2.529186e+03,6.043111e+02
2.532079e+03,6.035219e+02
2.534971e+03,5.943640e+02
2.537864e+03,5.974416e+02
2.540757e+03,5.902767e+02
2.543649e+03,5.904640e+02
2.546542e+03,6.009918e+02
2.549435e+03,6.000241e+02
2.552328e+03,5.996884e+02
2.555220e+03,6.070846e+02
2.558113e+03,5.986107e+02
2.561006e+03,6.030423e+02
2.563898e+03,5.891582e+02
2.566791e+03,5.933464e+02
2.569684e+03,5.987252e+02
2.572576e+03,5.949874e+02
2.575469e+03,5.948262e+02
2.578362e+03,5.937461e+02
2.581255e+03,5.903002e+02
2.584147e+03,5.853908e+02
2.587040e+03,5.791608e+02
2.589933e+03,5.883093e+02
2.592825e+03,5.777937e+02
2.595718e+03,5.705138e+02
2.598611e+03,5.823799e+02
2.601503e+03,5.778158e+02
2.604396e+03,5.776767e+02
2.607289e+03,5.783173e+02
2.610182e+03,5.779660e+02
2.613074e+03,5.582781e+02
2.615967e+03,5.702003e+02
2.618860e+03,5.746984e+02
2.621752e+03,5.650323e+02
2.624645e+03,5.797676e+02
2.627538e+03,5.808282e+02
2.630430e+03,5.740028e+02
2.633323e+03,5.823352e+02
2.636216e+03,5.709594e+02
2.639109e+03,5.679049e+02
2.642001e+03,5.651813e+02
2.644894e+03,5.694625e+02
2.647787e+03,5.826141e+02
2.650679e+03,5.555653e+02
2.653572e+03,5.789180e+02
2.656465e+03,5.650728e+02
2.659357e+03,5.753925e+02
2.662250e+03,5.828942e+02
2.665143e+03,5.815013e+02
2.668036e+03,5.611923e+02
2.670928e+03,5.798565e+02
2.673821e+03,5.703641e+02
2.676714e+03,5.666764e+02
2.679606e+03,5.617347e+02
2.682499e+03,5.635079e+02
2.685392e+03,5.789628e+02
2.688284e+03,5.527540e+02
2.691177e+03,5.480684e+02
2.694070e+03,5.698478e+02
2.696963e+03,5.540009e+02
2.699855e+03,5.578948e+02
2.702748e+03,5.557098e+02
2.705641e+03,5.639242e+02
2.708533e+03,5.594734e+02
2.711426e+03,5.374764e+02
2.714319e+03,5.613035e+02
2.717211e+03,5.453776e+02
2.720104e+03,5.635198e+02
2.722997e+03,5.626304e+02
2.725890e+03,5.546939e+02
2.728782e+03,5.492415e+02
2.731675e+03,5.423653e+02
2.734568e+03,5.567515e+02
2.737460e+03,5.451112e+02
2.740353e+03,5.609291e+02
2.743246e+03,5.478204e+02
2.746138e+03,5.331137e+02
2.749031e+03,5.545685e+02
2.751924e+03,5.352827e+02
2.754817e+03,5.497734e+02
2.757709e+03,5.567055e+02
2.760602e+03,5.522600e+02
2.763495e+03,5.363933e+02
2.766387e+03,5.396751e+02
2.769280e+03,5.342355e+02
2.772173e+03,5.324137e+02
2.775065e+03,5.531534e+02
2.777958e+03,5.581189e+02
2.780851e+03,5.385634e+02
2.783744e+03,5.354858e+02
2.786636e+03,5.457800e+02
2.789529e+03,5.448467e+02
2.792422e+03,5.590029e+02
2.795314e+03,5.258903e+02
2.798207e+03,5.397101e+02
2.801100e+03,5.461196e+02
2.803992e+03,5.465805e+02
2.806885e+03,5.434901e+02
2.809778e+03,5.548771e+02
2.812671e+03,5.366776e+02
2.815563e+03,5.407075e+02
2.818456e+03,5.422737e+02
2.821349e+03,5.383335e+02
2.824241e+03,5.528001e+02
2.827134e+03,5.533256e+02
2.830027e+03,5.512188e+02
2.832919e+03,5.522477e+02
2.835812e+03,5.728195e+02
2.838705e+03,5.875068e+02
2.841598e+03,5.760367e+02
2.844490e+03,6.152558e+02
2.847383e+03,6.229824e+02
2.850276e+03,6.214676e+02
2.853168e+03,6.100752e+02
2.856061e+03,6.176129e+02
2.858954e+03,6.030684e+02
2.861846e+03,6.002784e+02
2.864739e+03,5.802178e+02
2.867632e+03,5.910860e+02
2.870525e+03,5.847557e+02
2.873417e+03,6.078668e+02
2.876310e+03,6.283862e+02
2.879203e+03,6.348904e+02
2.882095e+03,6.616710e+02
2.884988e+03,6.421161e+02
2.887881e+03,6.051679e+02
2.890773e+03,5.928187e+02
2.893666e+03,6.028913e+02
2.896559e+03,5.855253e+02
2.899452e+03,6.033994e+02
2.902344e+03,6.038965e+02
2.905237e+03,5.919097e+02
2.908130e+03,5.707502e+02
2.911022e+03,5.876952e+02
2.913915e+03,5.816119e+02
2.916808e+03,5.796184e+02
2.919700e+03,5.690644e+02
2.922593e+03,5.780927e+02
2.925486e+03,5.621715e+02
2.928379e+03,5.752190e+02
2.931271e+03,5.736309e+02
2.934164e+03,5.664485e+02
2.937057e+03,5.481140e+02
2.939949e+03,5.508543e+02
2.942842e+03,5.487261e+02
2.945735e+03,5.603192e+02
2.948627e+03,5.394478e+02
2.951520e+03,5.588708e+02
2.954413e+03,5.471570e+02
2.957306e+03,5.658738e+02
2.960198e+03,5.716350e+02
2.963091e+03,5.786507e+02
2.965984e+03,5.608135e+02
2.968876e+03,5.452205e+02
2.971769e+03,5.577225e+02
2.974662e+03,5.485602e+02
2.977554e+03,5.629796e+02
2.980447e+03,5.430254e+02
2.983340e+03,5.704922e+02
2.986233e+03,5.439829e+02
2.989125e+03,5.409503e+02
2.992018e+03,5.464056e+02
2.994911e+03,5.537962e+02
2.997803e+03,5.613642e+02
3.000696e+03,5.495135e+02
3.003589e+03,5.655062e+02
3.006481e+03,5.523210e+02
3.009374e+03,5.734426e+02
3.012267e+03,5.665091e+02
3.015160e+03,5.560310e+02
3.018052e+03,5.658683e+02
3.020945e+03,5.634874e+02
3.023838e+03,5.576520e+02
3.026730e+03,5.643359e+02
3.029623e+03,5.611539e+02
3.032516e+03,5.874243e+02
3.035408e+03,5.512325e+02
3.038301e+03,5.547224e+02
3.041194e+03,5.647193e+02
3.044087e+03,5.579284e+02
3.046979e+03,5.752836e+02
3.049872e+03,5.636036e+02
3.052765e+03,5.766152e+02
3.055657e+03,5.784212e+02
3.058550e+03,5.661042e+02
3.061443e+03,5.813716e+02
3.064335e+03,5.871046e+02
3.067228e+03,5.562126e+02
3.070121e+03,5.927740e+02
3.073014e+03,5.632224e+02
3.075906e+03,6.071110e+02
3.078799e+03,5.733724e+02
3.081692e+03,6.022312e+02
3.084584e+03,5.596149e+02
3.087477e+03,5.668604e+02
3.090370e+03,5.832526e+02
3.093262e+03,5.973279e+02
3.096155e+03,6.067608e+02
3.099048e+03,5.711682e+02
3.101941e+03,6.110883e+02
3.104833e+03,6.007858e+02
3.107726e+03,6.096063e+02
3.110619e+03,6.146779e+02
3.113511e+03,5.863006e+02
3.116404e+03,6.186747e+02
3.119297e+03,6.217995e+02
3.122189e+03,6.293116e+02
3.125082e+03,6.002728e+02
3.127975e+03,6.171954e+02
3.130868e+03,6.225945e+02
3.133760e+03,6.266770e+02
3.136653e+03,5.970165e+02
3.139546e+03,6.176212e+02
3.142438e+03,6.211309e+02
3.145331e+03,6.143320e+02
3.148224e+03,6.342181e+02
3.151116e+03,6.130350e+02
3.154009e+03,6.352216e+02
3.156902e+03,6.430638e+02
3.159795e+03,6.207744e+02
3.162687e+03,6.793026e+02
3.165580e+03,6.305105e+02
3.168473e+03,6.713265e+02
3.171365e+03,6.488319e+02
3.174258e+03,6.408917e+02
3.177151e+03,6.152247e+02
3.180043e+03,6.518686e+02
3.182936e+03,6.621895e+02
3.185829e+03,6.625914e+02
3.188722e+03,6.488878e+02
3.191614e+03,6.632662e+02
3.194507e+03,6.794283e+02
3.197400e+03,6.517999e+02
3.200292e+03,6.400328e+02
3.203185e+03,0.000000e+00
3.206078e+03,0.000000e+00
3.208970e+03,0.000000e+00
3.211863e+03,0.000000e+00
3.214756e+03,0.000000e+00
3.217649e+03,0.000000e+00
3.220541e+03,0.000000e+00
3.223434e+03,0.000000e+00
3.226327e+03,0.000000e+00
3.229219e+03,0.000000e+00
3.232112e+03,0.000000e+00
3.235005e+03,0.000000e+00
3.237897e+03,0.000000e+00
3.240790e+03,0.000000e+00
3.243683e+03,0.000000e+00
3.246576e+03,0.000000e+00
3.249468e+03,0.000000e+00
3.252361e+03,0.000000e+00
3.255254e+03,0.000000e+00
3.258146e+03,0.000000e+00
3.261039e+03,0.000000e+00
3.263932e+03,0.000000e+00
3.266824e+03,0.000000e+00
3.269717e+03,0.000000e+00
3.272610e+03,0.000000e+00
3.275503e+03,0.000000e+00
3.278395e+03,0.000000e+00
3.281288e+03,0.000000e+00
3.284181e+03,0.000000e+00
3.287073e+03,0.000000e+00
3.289966e+03,0.000000e+00
3.292859e+03,0.000000e+00
3.295751e+03,0.000000e+00
3.298644e+03,0.000000e+00
3.301537e+03,0.000000e+00
3.304430e+03,0.000000e+00
3.307322e+03,0.000000e+00
3.310215e+03,0.000000e+00
3.313108e+03,0.000000e+00
3.316000e+03,0.000000e+00
3.318893e+03,0.000000e+00
3.321786e+03,0.000000e+00
3.324678e+03,0.000000e+00
3.327571e+03,0.000000e+00
3.330464e+03,0.000000e+00
3.333357e+03,0.000000e+00
3.336249e+03,0.000000e+00
3.339142e+03,0.000000e+00
3.342035e+03,0.000000e+00
3.344927e+03,0.000000e+00
3.347820e+03,0.000000e+00
3.350713e+03,0.000000e+00
3.353605e+03,0.000000e+00
3.356498e+03,0.000000e+00
3.359391e+03,0.000000e+00
3.362284e+03,0.000000e+00
3.365176e+03,0.000000e+00
3.368069e+03,0.000000e+00
3.370962e+03,0.000000e+00
3.373854e+03,0.000000e+00
3.376747e+03,0.000000e+00
3.379640e+03,0.000000e+00
3.382532e+03,0.000000e+00
3.385425e+03,0.000000e+00
3.388318e+03,0.000000e+00
3.391211e+03,0.000000e+00
3.394103e+03,0.000000e+00
3.396996e+03,0.000000e+00
3.399889e+03,0.000000e+00
3.402781e+03,0.000000e+00
3.405674e+03,0.000000e+00
3.408567e+03,0.000000e+00
3.411459e+03,0.000000e+00
3.414352e+03,0.000000e+00
3.417245e+03,0.000000e+00
3.420138e+03,0.000000e+00
3.423030e+03,0.000000e+00
3.425923e+03,0.000000e+00
3.428816e+03,0.000000e+00
3.431708e+03,0.000000e+00
3.434601e+03,0.000000e+00
3.437494e+03,0.000000e+00
3.440386e+03,0.000000e+00
3.443279e+03,0.000000e+00
3.446172e+03,0.000000e+00
3.449065e+03,0.000000e+00
3.451957e+03,0.000000e+00
3.454850e+03,0.000000e+00
3.457743e+03,0.000000e+00
3.460635e+03,0.000000e+00
3.463528e+03,0.000000e+00
3.466421e+03,0.000000e+00
3.469313e+03,0.000000e+00
3.472206e+03,0.000000e+00
3.475099e+03,0.000000e+00
3.477992e+03,0.000000e+00
3.480884e+03,0.000000e+00
3.483777e+03,0.000000e+00
3.486670e+03,0.000000e+00
3.489563e+03,0.000000e+00
3.492455e+03,0.000000e+00
3.495348e+03,0.000000e+00
3.498240e+03,0.000000e+00
3.500169e+03,0.000000e+00