File: RAMAN_data/12022024_r1/blue fibre1.CSV
9.931763e+01,0.000000e+00
1.022103e+02,0.000000e+00
1.051030e+02,0.000000e+00
1.079957e+02,0.000000e+00
1.108884e+02,0.000000e+00
1.137811e+02,0.000000e+00
1.166738e+02,0.000000e+00
1.195665e+02,0.000000e+00
1.224592e+02,0.000000e+00
1.253519e+02,0.000000e+00
1.282446e+02,0.000000e+00
1.311373e+02,0.000000e+00
1.340300e+02,0.000000e+00
1.369227e+02,0.000000e+00
1.398154e+02,0.000000e+00
1.427081e+02,0.000000e+00
1.456008e+02,0.000000e+00
1.484935e+02,0.000000e+00
1.513862e+02,0.000000e+00
1.542789e+02,0.000000e+00
1.571716e+02,0.000000e+00
1.600643e+02,0.000000e+00
1.629570e+02,0.000000e+00
1.658497e+02,0.000000e+00
1.687424e+02,0.000000e+00
1.716351e+02,0.000000e+00
1.745278e+02,0.000000e+00
1.774205e+02,0.000000e+00
1.803132e+02,0.000000e+00
1.832059e+02,0.000000e+00
1.860986e+02,0.000000e+00
1.889913e+02,0.000000e+00
1.918840e+02,0.000000e+00
1.947767e+02,0.000000e+00
1.976694e+02,0.000000e+00
2.005621e+02,2.637724e+03
2.034548e+02,2.643737e+03
2.063475e+02,2.636220e+03
2.092402e+02,2.640156e+03
2.121329e+02,2.651874e+03
2.150256e+02,2.652373e+03
2.179183e+02,2.645842e+03
2.208110e+02,2.658804e+03
2.237037e+02,2.662603e+03
2.265964e+02,2.665928e+03
2.294892e+02,2.654311e+03
2.323819e+02,2.650927e+03
2.352746e+02,2.659777e+03
2.381673e+02,2.666486e+03
2.410600e+02,2.664100e+03
2.439527e+02,2.670111e+03
2.468454e+02,2.661541e+03
2.497381e+02,2.662620e+03
2.526308e+02,2.689541e+03
2.555235e+02,2.681380e+03
2.584161e+02,2.679279e+03
2.613088e+02,2.675901e+03
2.642015e+02,2.680710e+03
2.670942e+02,2.692743e+03
2.699869e+02,2.691161e+03
2.728796e+02,2.680209e+03
2.757723e+02,2.679231e+03
2.786650e+02,2.710301e+03
2.815577e+02,2.683933e+03
2.844504e+02,2.693219e+03
2.873431e+02,2.697687e+03
2.902358e+02,2.693481e+03
2.931285e+02,2.688825e+03
2.960212e+02,2.695370e+03
2.989139e+02,2.696329e+03
3.018066e+02,2.702459e+03
3.046993e+02,2.695989e+03
3.075920e+02,2.699731e+03
3.104847e+02,2.697011e+03
3.133774e+02,2.711492e+03
3.162701e+02,2.708454e+03
3.191628e+02,2.700095e+03
3.220555e+02,2.706804e+03
3.249482e+02,2.713036e+03
3.278409e+02,2.718242e+03
3.307336e+02,2.716298e+03
3.336263e+02,2.715831e+03
3.365190e+02,2.695954e+03
3.394117e+02,2.695190e+03
3.423044e+02,2.710425e+03
3.451971e+02,2.707570e+03
3.480898e+02,2.708427e+03
3.509825e+02,2.702628e+03
3.538752e+02,2.703313e+03
3.567680e+02,2.708950e+03
3.596607e+02,2.705333e+03
3.625534e+02,2.712004e+03
3.654461e+02,2.698367e+03
3.683388e+02,2.715293e+03
3.712315e+02,2.719750e+03
3.741242e+02,2.735211e+03
3.770169e+02,2.722209e+03
3.799096e+02,2.720995e+03
3.828023e+02,2.702134e+03
3.856950e+02,2.690210e+03
3.885877e+02,2.695813e+03
3.914804e+02,2.698301e+03
3.943731e+02,2.684333e+03
3.972658e+02,2.695773e+03
4.001585e+02,2.698315e+03
4.030512e+02,2.692348e+03
4.059439e+02,2.706314e+03
4.088366e+02,2.692714e+03
4.117293e+02,2.685522e+03
4.146220e+02,2.680272e+03
4.175147e+02,2.672824e+03
4.204074e+02,2.688478e+03
4.233001e+02,2.695887e+03
4.261928e+02,2.678777e+03
4.290855e+02,2.677508e+03
4.319782e+02,2.680710e+03
4.348709e+02,2.687752e+03
4.377636e+02,2.687144e+03
4.406563e+02,2.680606e+03
4.435490e+02,2.683813e+03
4.464417e+02,2.678844e+03
4.493344e+02,2.680280e+03
4.522271e+02,2.681465e+03
4.551198e+02,2.661397e+03
4.580125e+02,2.663617e+03
4.609052e+02,2.656531e+03
4.637979e+02,2.668949e+03
4.666906e+02,2.653050e+03
4.695833e+02,2.650991e+03
4.724760e+02,2.664070e+03
4.753687e+02,2.651919e+03
4.782614e+02,2.649005e+03
4.811541e+02,2.645247e+03
4.840468e+02,2.658561e+03
4.869395e+02,2.650872e+03
4.898322e+02,2.659461e+03
4.927249e+02,2.659194e+03
4.956176e+02,2.640287e+03
4.985103e+02,2.656049e+03
5.014030e+02,2.632238e+03
5.042957e+02,2.627895e+03
5.071884e+02,2.631791e+03
5.100811e+02,2.632747e+03
5.129738e+02,2.649561e+03
5.158665e+02,2.644981e+03
5.187592e+02,2.635000e+03
5.216519e+02,2.635289e+03
5.245446e+02,2.630169e+03
5.274373e+02,2.613230e+03
5.303300e+02,2.612597e+03
5.332227e+02,2.609296e+03
5.361154e+02,2.607727e+03
5.390081e+02,2.596629e+03
5.419008e+02,2.613502e+03
5.447935e+02,2.620543e+03
5.476862e+02,2.609907e+03
5.505789e+02,2.603759e+03
5.534716e+02,2.588011e+03
5.563643e+02,2.582937e+03
5.592570e+02,2.596410e+03
5.621497e+02,2.597897e+03
5.650424e+02,2.598356e+03
5.679351e+02,2.587088e+03
5.708278e+02,2.584560e+03
5.737205e+02,2.583635e+03
5.766132e+02,2.583357e+03
5.795059e+02,2.590774e+03
5.823986e+02,2.571450e+03
5.852913e+02,2.559492e+03
5.881840e+02,2.576283e+03
5.910767e+02,2.579633e+03
5.939694e+02,2.585179e+03
5.968621e+02,2.568156e+03
5.997548e+02,2.551511e+03
6.026475e+02,2.555202e+03
6.055402e+02,2.561199e+03
6.084329e+02,2.569742e+03
6.113256e+02,2.565512e+03
6.142183e+02,2.546630e+03
6.171110e+02,2.555270e+03
6.200037e+02,2.550996e+03
6.228964e+02,2.538775e+03
6.257891e+02,2.537524e+03
6.286818e+02,2.523581e+03
6.315745e+02,2.543972e+03
6.344672e+02,2.542811e+03
6.373599e+02,2.542223e+03
6.402526e+02,2.542315e+03
6.431453e+02,2.538891e+03
6.460380e+02,2.527346e+03
6.489307e+02,2.514945e+03
6.518234e+02,2.514637e+03
6.547161e+02,2.522424e+03
6.576088e+02,2.514366e+03
6.605015e+02,2.500536e+03
6.633942e+02,2.503673e+03
6.662869e+02,2.509913e+03
6.691796e+02,2.506514e+03
6.720723e+02,2.494232e+03
6.749650e+02,2.493900e+03
6.778577e+02,2.480851e+03
6.807504e+02,2.496469e+03
6.836431e+02,2.492731e+03
6.865358e+02,2.487375e+03
6.894285e+02,2.480800e+03
6.923212e+02,2.480424e+03
6.952139e+02,2.481051e+03
6.981066e+02,2.488223e+03
7.009993e+02,2.472348e+03
7.038920e+02,2.473573e+03
7.067847e+02,2.474871e+03
7.096774e+02,2.461805e+03
7.125701e+02,2.456854e+03
7.154628e+02,2.446683e+03
7.183555e+02,2.469996e+03
7.212482e+02,2.464391e+03
7.241409e+02,2.453675e+03
7.270336e+02,2.463183e+03
7.299263e+02,2.451166e+03
7.328190e+02,2.452371e+03
7.357117e+02,2.438228e+03
7.386044e+02,2.424769e+03
7.414971e+02,2.426047e+03
7.443898e+02,2.428430e+03
7.472825e+02,2.424094e+03
7.501752e+02,2.421831e+03
7.530679e+02,2.408833e+03
7.559606e+02,2.411626e+03
7.588533e+02,2.412856e+03
7.617460e+02,2.429474e+03
7.646387e+02,2.406992e+03
7.675314e+02,2.415094e+03
7.704241e+02,2.405417e+03
7.733168e+02,2.396247e+03
7.762095e+02,2.410663e+03
7.791022e+02,2.405776e+03
7.819949e+02,2.397556e+03
7.848876e+02,2.384903e+03
7.877803e+02,2.375266e+03
7.906730e+02,2.388294e+03
7.935657e+02,2.376327e+03
7.964584e+02,2.370827e+03
7.993511e+02,2.378460e+03
8.022438e+02,2.361912e+03
8.051365e+02,2.365182e+03
8.080292e+02,2.361670e+03
8.109219e+02,2.360570e+03
8.138146e+02,2.350787e+03
8.167073e+02,2.357146e+03
8.196000e+02,2.358073e+03
8.224927e+02,2.361733e+03
8.253854e+02,2.343273e+03
8.282781e+02,2.341353e+03
8.311708e+02,2.336600e+03
8.340635e+02,2.345632e+03
8.369562e+02,2.347042e+03
8.398489e+02,2.337847e+03
8.427416e+02,2.339452e+03
8.456343e+02,2.327492e+03
8.485270e+02,2.334300e+03
8.514197e+02,2.326093e+03
8.543124e+02,2.325896e+03
8.572051e+02,2.317292e+03
8.600978e+02,2.313350e+03
8.629905e+02,2.314821e+03
8.658832e+02,2.308499e+03
8.687759e+02,2.318006e+03
8.716686e+02,2.298988e+03
8.745613e+02,2.307200e+03
8.774540e+02,2.307353e+03
8.803467e+02,2.300653e+03
8.832394e+02,2.301293e+03
8.861321e+02,2.294965e+03
8.890248e+02,2.287592e+03
8.919175e+02,2.279006e+03
8.948102e+02,2.277695e+03
8.977029e+02,2.270704e+03
9.005956e+02,2.276366e+03
9.034883e+02,2.287572e+03
9.063810e+02,2.267645e+03
9.092737e+02,2.266803e+03
9.121664e+02,2.258403e+03
9.150591e+02,2.260152e+03
9.179518e+02,2.270606e+03
9.208445e+02,2.242082e+03
9.237372e+02,2.241586e+03
9.266299e+02,2.242909e+03
9.295226e+02,2.233635e+03
9.324153e+02,2.250143e+03
9.353080e+02,2.230440e+03
9.382007e+02,2.209040e+03
9.410934e+02,2.227908e+03
9.439861e+02,2.219395e+03
9.468788e+02,2.226656e+03
9.497715e+02,2.234973e+03
9.526642e+02,2.225549e+03
9.555569e+02,2.204176e+03
9.584496e+02,2.212708e+03
9.613423e+02,2.223698e+03
9.642350e+02,2.218514e+03
9.671277e+02,2.213155e+03
9.700204e+02,2.211913e+03
9.729131e+02,2.189445e+03
9.758058e+02,2.206282e+03
9.786985e+02,2.200111e+03
9.815912e+02,2.191937e+03
9.844839e+02,2.188358e+03
9.873766e+02,2.176543e+03
9.902693e+02,2.183336e+03
9.931620e+02,2.187670e+03
9.960547e+02,2.186242e+03
9.989474e+02,2.190438e+03
1.001840e+03,2.170938e+03
1.004733e+03,2.183614e+03
1.007626e+03,2.183754e+03
1.010518e+03,2.166554e+03
1.013411e+03,2.165690e+03
1.016304e+03,2.148591e+03
1.019196e+03,2.165864e+03
1.022089e+03,2.164224e+03
1.024982e+03,2.154216e+03
1.027875e+03,2.164686e+03
1.030767e+03,2.164848e+03
1.033660e+03,2.151317e+03
1.036552e+03,2.151823e+03
1.039445e+03,2.146887e+03
1.042338e+03,2.143272e+03
1.045231e+03,2.152498e+03
1.048123e+03,2.135016e+03
1.051016e+03,2.152005e+03
1.053909e+03,2.144922e+03
1.056802e+03,2.140734e+03
1.059694e+03,2.133466e+03
1.062587e+03,2.130155e+03
1.065479e+03,2.119774e+03
1.068372e+03,2.128781e+03
1.071265e+03,2.141844e+03
1.074158e+03,2.134090e+03
1.077050e+03,2.114869e+03
1.079943e+03,2.131879e+03
1.082836e+03,2.138203e+03
1.085729e+03,2.140204e+03
1.088621e+03,2.142219e+03
1.091514e+03,2.151516e+03
1.094406e+03,2.143976e+03
1.097299e+03,2.124572e+03
1.100192e+03,2.131571e+03
1.103085e+03,2.117378e+03
1.105977e+03,2.119809e+03
1.108870e+03,2.109592e+03
1.111763e+03,2.129434e+03
1.114656e+03,2.122513e+03
1.117548e+03,2.119073e+03
1.120441e+03,2.130477e+03
1.123334e+03,2.115786e+03
1.126226e+03,2.114145e+03
1.129119e+03,2.110579e+03
1.132012e+03,2.111834e+03
1.134904e+03,2.086530e+03
1.137797e+03,2.103923e+03
1.140690e+03,2.096757e+03
1.143583e+03,2.093466e+03
1.146475e+03,2.110864e+03
1.149368e+03,2.088323e+03
1.152261e+03,2.087026e+03
1.155153e+03,2.086877e+03
1.158046e+03,2.073404e+03
1.160939e+03,2.080236e+03
1.163831e+03,2.077221e+03
1.166724e+03,2.066887e+03
1.169617e+03,2.069705e+03
1.172510e+03,2.059856e+03
1.175402e+03,2.062006e+03
1.178295e+03,2.070171e+03
1.181188e+03,2.062111e+03
1.184080e+03,2.055188e+03
1.186973e+03,2.056194e+03
1.189866e+03,2.047798e+03
1.192758e+03,2.064615e+03
1.195651e+03,2.056013e+03
1.198544e+03,2.058887e+03
1.201437e+03,2.043203e+03
1.204329e+03,2.037458e+03
1.207222e+03,2.032017e+03
1.210115e+03,2.040115e+03
1.213007e+03,2.042486e+03
1.215900e+03,2.033378e+03
1.218793e+03,2.036470e+03
1.221685e+03,2.034414e+03
1.224578e+03,2.035535e+03
1.227471e+03,2.032755e+03
1.230364e+03,2.026008e+03
1.233256e+03,2.020108e+03
1.236149e+03,2.021808e+03
1.239042e+03,2.029672e+03
1.241934e+03,2.023129e+03
1.244827e+03,2.025608e+03
1.247720e+03,2.010212e+03
1.250612e+03,2.013730e+03
1.253505e+03,2.014793e+03
1.256398e+03,2.026628e+03
1.259291e+03,2.011622e+03
1.262183e+03,2.019073e+03
1.265076e+03,2.007990e+03
1.267969e+03,2.003070e+03
1.270861e+03,2.015430e+03
1.273754e+03,2.015942e+03
1.276647e+03,2.026854e+03
1.279539e+03,2.030944e+03
1.282432e+03,2.009159e+03
1.285325e+03,2.010089e+03
1.288218e+03,2.006949e+03
1.291110e+03,2.008576e+03
1.294003e+03,2.001534e+03
1.296896e+03,1.991182e+03
1.299788e+03,2.001483e+03
1.302681e+03,1.995405e+03
1.305574e+03,2.001370e+03
1.308466e+03,2.001819e+03
1.311359e+03,2.000136e+03
1.314252e+03,1.998050e+03
1.317145e+03,1.992645e+03
1.320037e+03,2.009071e+03
1.322930e+03,1.994070e+03
1.325823e+03,1.993667e+03
1.328715e+03,1.996482e+03
1.331608e+03,1.992450e+03
1.334501e+03,1.992993e+03
1.337393e+03,1.998204e+03
1.340286e+03,1.997689e+03
1.343179e+03,1.980432e+03
1.346072e+03,1.985885e+03
1.348964e+03,1.975157e+03
1.351857e+03,1.982784e+03
1.354750e+03,1.982485e+03
1.357642e+03,1.973575e+03
1.360535e+03,1.961467e+03
1.363428e+03,1.970262e+03
1.366320e+03,1.975816e+03
1.369213e+03,1.967388e+03
1.372106e+03,1.974388e+03
1.374999e+03,1.972536e+03
1.377891e+03,1.958688e+03
1.380784e+03,1.966362e+03
1.383677e+03,1.965424e+03
1.386569e+03,1.954062e+03
1.389462e+03,1.931514e+03
1.392355e+03,1.948420e+03
1.395247e+03,1.942414e+03
1.398140e+03,1.935489e+03
1.401033e+03,1.937210e+03
1.403926e+03,1.942700e+03
1.406818e+03,1.924280e+03
1.409711e+03,1.939402e+03
1.412604e+03,1.942689e+03
1.415496e+03,1.928344e+03
1.418389e+03,1.929791e+03
1.421282e+03,1.928950e+03
1.424174e+03,1.919486e+03
1.427067e+03,1.916923e+03
1.429960e+03,1.920720e+03
1.432853e+03,1.923661e+03
1.435745e+03,1.906921e+03
1.438638e+03,1.922779e+03
1.441531e+03,1.911078e+03
1.444423e+03,1.903146e+03
1.447316e+03,1.906729e+03
1.450209e+03,1.910402e+03
1.453101e+03,1.898320e+03
1.455994e+03,1.907167e+03
1.458887e+03,1.893045e+03
1.461780e+03,1.899613e+03
1.464672e+03,1.892117e+03
1.467565e+03,1.894268e+03
1.470458e+03,1.887239e+03
1.473350e+03,1.877885e+03
1.476243e+03,1.897098e+03
1.479136e+03,1.879740e+03
1.482028e+03,1.878403e+03
1.484921e+03,1.867439e+03
1.487814e+03,1.876534e+03
1.490707e+03,1.867030e+03
1.493599e+03,1.887995e+03
1.496492e+03,1.873104e+03
1.499385e+03,1.868437e+03
1.502277e+03,1.867137e+03
1.505170e+03,1.873231e+03
1.508063e+03,1.865927e+03
1.510955e+03,1.854990e+03
1.513848e+03,1.839408e+03
1.516741e+03,1.850516e+03
1.519634e+03,1.859894e+03
1.522526e+03,1.851254e+03
1.525419e+03,1.856503e+03
1.528312e+03,1.839634e+03
1.531204e+03,1.848301e+03
1.534097e+03,1.839772e+03
1.536990e+03,1.836498e+03
1.539882e+03,1.841744e+03
1.542775e+03,1.820460e+03
1.545668e+03,1.839629e+03
1.548561e+03,1.840000e+03
1.551453e+03,1.850953e+03
1.554346e+03,1.828782e+03
1.557239e+03,1.838892e+03
1.560131e+03,1.820966e+03
1.563024e+03,1.833557e+03
1.565917e+03,1.832763e+03
1.568809e+03,1.843286e+03
1.571702e+03,1.821178e+03
1.574595e+03,1.824647e+03
1.577488e+03,1.827723e+03
1.580380e+03,1.831999e+03
1.583273e+03,1.827311e+03
1.586166e+03,1.806715e+03
1.589058e+03,1.822500e+03
1.591951e+03,1.815119e+03
1.594844e+03,1.821924e+03
1.597736e+03,1.808193e+03
1.600629e+03,1.809571e+03
1.603522e+03,1.804115e+03
1.606415e+03,1.799427e+03
1.609307e+03,1.791801e+03
1.612200e+03,1.793828e+03
1.615093e+03,1.802184e+03
1.617985e+03,1.793958e+03
1.620878e+03,1.782200e+03
1.623771e+03,1.770460e+03
1.626663e+03,1.781705e+03
1.629556e+03,1.778820e+03
1.632449e+03,1.780943e+03
1.635342e+03,1.762982e+03
1.638234e+03,1.767078e+03
1.641127e+03,1.751790e+03
1.644020e+03,1.757980e+03
1.646912e+03,1.757550e+03
1.649805e+03,1.753587e+03
1.652698e+03,1.749258e+03
1.655590e+03,1.748102e+03
1.658483e+03,1.746439e+03
1.661376e+03,1.736180e+03
1.664269e+03,1.738257e+03
1.667161e+03,1.735237e+03
1.670054e+03,1.727071e+03
1.672947e+03,1.725721e+03
1.675839e+03,1.725205e+03
1.678732e+03,1.710563e+03
1.681625e+03,1.706794e+03
1.684517e+03,1.709212e+03
1.687410e+03,1.727217e+03
1.690303e+03,1.717969e+03
1.693196e+03,1.707122e+03
1.696088e+03,1.711004e+03
1.698981e+03,1.703131e+03
1.701874e+03,1.705492e+03
1.704766e+03,1.698288e+03
1.707659e+03,1.695352e+03
1.710552e+03,1.688512e+03
1.713444e+03,1.706442e+03
1.716337e+03,1.677606e+03
1.719230e+03,1.686517e+03
1.722123e+03,1.674524e+03
1.725015e+03,1.676637e+03
1.727908e+03,1.676531e+03
1.730801e+03,1.678525e+03
1.733693e+03,1.684348e+03
1.736586e+03,1.658752e+03
1.739479e+03,1.668747e+03
1.742371e+03,1.666564e+03
1.745264e+03,1.657760e+03
1.748157e+03,1.657865e+03
1.751050e+03,1.659647e+03
1.753942e+03,1.654469e+03
1.756835e+03,1.666262e+03
1.759728e+03,1.650451e+03
1.762620e+03,1.649563e+03
1.765513e+03,1.652573e+03
1.768406e+03,1.631493e+03
1.771298e+03,1.644408e+03
1.774191e+03,1.639618e+03
1.777084e+03,1.613692e+03
1.779977e+03,1.626450e+03
1.782869e+03,1.628504e+03
1.785762e+03,1.623002e+03
1.788655e+03,1.604604e+03
1.791547e+03,1.590256e+03
1.794440e+03,1.608651e+03
1.797333e+03,1.597953e+03
1.800225e+03,1.597816e+03
1.803118e+03,1.606098e+03
1.806011e+03,1.598184e+03
1.808904e+03,1.598011e+03
1.811796e+03,1.597556e+03
1.814689e+03,1.585596e+03
1.817582e+03,1.580917e+03
1.820474e+03,1.583323e+03
1.823367e+03,1.574515e+03
1.826260e+03,1.577694e+03
1.829152e+03,1.581408e+03
1.832045e+03,1.575301e+03
1.834938e+03,1.573881e+03
1.837831e+03,1.568551e+03
1.840723e+03,1.561884e+03
1.843616e+03,1.565465e+03
1.846509e+03,1.561682e+03
1.849401e+03,1.561770e+03
1.852294e+03,1.546287e+03
1.855187e+03,1.551666e+03
1.858079e+03,1.537120e+03
1.860972e+03,1.555464e+03
1.863865e+03,1.552150e+03
1.866758e+03,1.534016e+03
1.869650e+03,1.536482e+03
1.872543e+03,1.527119e+03
1.875436e+03,1.530971e+03
1.878328e+03,1.514169e+03
1.881221e+03,1.522482e+03
1.884114e+03,1.521479e+03
1.887006e+03,1.519588e+03
1.889899e+03,1.503307e+03
1.892792e+03,1.519518e+03
1.895685e+03,1.508546e+03
1.898577e+03,1.513015e+03
1.901470e+03,1.487479e+03
1.904363e+03,1.492641e+03
1.907255e+03,1.492959e+03
1.910148e+03,1.490949e+03
1.913041e+03,1.497441e+03
1.915933e+03,1.486649e+03
1.918826e+03,1.475693e+03
1.921719e+03,1.465563e+03
1.924612e+03,1.481095e+03
1.927504e+03,1.464519e+03
1.930397e+03,1.480978e+03
1.933290e+03,1.464190e+03
1.936182e+03,1.462981e+03
1.939075e+03,1.477796e+03
1.941968e+03,1.450829e+03
1.944860e+03,1.460550e+03
1.947753e+03,1.443337e+03
1.950646e+03,1.463411e+03
1.953539e+03,1.457695e+03
1.956431e+03,1.442521e+03
1.959324e+03,1.439011e+03
1.962217e+03,1.432857e+03
1.965109e+03,1.433363e+03
1.968002e+03,1.422713e+03
1.970895e+03,1.419532e+03
1.973787e+03,1.419666e+03
1.976680e+03,1.424411e+03
1.979573e+03,1.423670e+03
1.982466e+03,1.432321e+03
1.985358e+03,1.400330e+03
1.988251e+03,1.420135e+03
1.991144e+03,1.400286e+03
1.994036e+03,1.393348e+03
1.996929e+03,1.406314e+03
1.999822e+03,1.401254e+03
2.002714e+03,1.402604e+03
2.005607e+03,1.402093e+03
2.008500e+03,1.383895e+03
2.011393e+03,1.383184e+03
2.014285e+03,1.383584e+03
2.017178e+03,1.396768e+03
2.020071e+03,1.379641e+03
2.022963e+03,1.378939e+03
2.025856e+03,1.372619e+03
2.028749e+03,1.355668e+03
2.031641e+03,1.355544e+03
2.034534e+03,1.348181e+03
2.037427e+03,1.356698e+03
2.040320e+03,1.343199e+03
2.043212e+03,1.344019e+03
2.046105e+03,1.345539e+03
2.048998e+03,1.337955e+03
2.051890e+03,1.336125e+03
2.054783e+03,1.330459e+03
2.057676e+03,1.338043e+03
2.060568e+03,1.328030e+03
2.063461e+03,1.329560e+03
2.066354e+03,1.315780e+03
2.069247e+03,1.304918e+03
2.072139e+03,1.310697e+03
2.075032e+03,1.300415e+03
2.077925e+03,1.308302e+03
2.080817e+03,1.319278e+03
2.083710e+03,1.298897e+03
2.086603e+03,1.306067e+03
2.089496e+03,1.304833e+03
2.092388e+03,1.287589e+03
2.095281e+03,1.291863e+03
2.098174e+03,1.291767e+03
2.101066e+03,1.293045e+03
2.103959e+03,1.277808e+03
2.106852e+03,1.276799e+03
2.109744e+03,1.266175e+03
2.112637e+03,1.263659e+03
2.115530e+03,1.260858e+03
2.118422e+03,1.262945e+03
2.121315e+03,1.270429e+03
2.124208e+03,1.256264e+03
2.127101e+03,1.249364e+03
2.129993e+03,1.250777e+03
2.132886e+03,1.251569e+03
2.135779e+03,1.232110e+03
2.138671e+03,1.251295e+03
2.141564e+03,1.234837e+03
2.144457e+03,1.235400e+03
2.147350e+03,1.241927e+03
2.150242e+03,1.221775e+03
2.153135e+03,1.235280e+03
2.156028e+03,1.213947e+03
2.158920e+03,1.227409e+03
2.161813e+03,1.222194e+03
2.164706e+03,1.219858e+03
2.167598e+03,1.212020e+03
2.170491e+03,1.223902e+03
2.173384e+03,1.211449e+03
2.176277e+03,1.201607e+03
2.179169e+03,1.189781e+03
2.182062e+03,1.187964e+03
2.184955e+03,1.203367e+03
2.187847e+03,1.188483e+03
2.190740e+03,1.199490e+03
2.193633e+03,1.179711e+03
2.196525e+03,1.176887e+03
2.199418e+03,1.175830e+03
2.202311e+03,1.189607e+03
2.205204e+03,1.169147e+03
2.208096e+03,1.166614e+03
2.210989e+03,1.160152e+03
2.213882e+03,1.169473e+03
2.216774e+03,1.163131e+03
2.219667e+03,1.159781e+03
2.222560e+03,1.177425e+03
2.225452e+03,1.144970e+03
2.228345e+03,1.156485e+03
2.231238e+03,1.147063e+03
2.234131e+03,1.137744e+03
2.237023e+03,1.150043e+03
2.239916e+03,1.144661e+03
2.242809e+03,1.129536e+03
2.245701e+03,1.132396e+03
2.248594e+03,1.124803e+03
2.251487e+03,1.114509e+03
2.254379e+03,1.121590e+03
2.257272e+03,1.121327e+03
2.260165e+03,1.114197e+03
2.263058e+03,1.118278e+03
2.265950e+03,1.116341e+03
2.268843e+03,1.112476e+03
2.271736e+03,1.107388e+03
2.274628e+03,1.103527e+03
2.277521e+03,1.102573e+03
2.280414e+03,1.105232e+03
2.283306e+03,1.104576e+03
2.286199e+03,1.091383e+03
2.289092e+03,1.085487e+03
2.291985e+03,1.085493e+03
2.294877e+03,1.088202e+03
2.297770e+03,1.093106e+03
2.300663e+03,1.073835e+03
2.303555e+03,1.074089e+03
2.306448e+03,1.059682e+03
2.309341e+03,1.068369e+03
2.312233e+03,1.065077e+03
2.315126e+03,1.077114e+03
2.318019e+03,1.052803e+03
2.320912e+03,1.064823e+03
2.323804e+03,1.060353e+03
2.326697e+03,1.060834e+03
2.329590e+03,1.054994e+03
2.332482e+03,1.051211e+03
2.335375e+03,1.047717e+03
2.338268e+03,1.045025e+03
2.341160e+03,1.046165e+03
2.344053e+03,1.032230e+03
2.346946e+03,1.034902e+03
2.349839e+03,1.038998e+03
2.352731e+03,1.034585e+03
2.355624e+03,1.016958e+03
2.358517e+03,1.040744e+03
2.361409e+03,1.019735e+03
2.364302e+03,1.011169e+03
2.367195e+03,1.028952e+03
2.370087e+03,1.009612e+03
2.372980e+03,1.015321e+03
2.375873e+03,1.011477e+03
2.378766e+03,1.006132e+03
2.381658e+03,1.003448e+03
2.384551e+03,9.956843e+02
2.387444e+03,1.014754e+03
2.390336e+03,1.004025e+03
2.393229e+03,9.993078e+02
2.396122e+03,9.976902e+02
2.399014e+03,9.842366e+02
2.401907e+03,9.857343e+02
2.404800e+03,9.826018e+02
2.407693e+03,9.883386e+02
2.410585e+03,9.750773e+02
2.413478e+03,9.687715e+02
2.416371e+03,9.779339e+02
2.419263e+03,9.761065e+02
2.422156e+03,9.900638e+02
2.425049e+03,9.543132e+02
2.427941e+03,9.654170e+02
2.430834e+03,9.713948e+02
2.433727e+03,9.662554e+02
2.436620e+03,9.472630e+02
2.439512e+03,9.622504e+02
2.442405e+03,9.635117e+02
2.445298e+03,9.416312e+02
2.448190e+03,9.588146e+02
2.451083e+03,9.452073e+02
2.453976e+03,9.496762e+02
2.456868e+03,9.419542e+02
2.459761e+03,9.447100e+02
2.462654e+03,9.337977e+02
2.465547e+03,9.325659e+02
2.468439e+03,9.232264e+02
2.471332e+03,9.433613e+02
2.474225e+03,9.324259e+02
2.477117e+03,9.299681e+02
2.480010e+03,9.303456e+02
2.482903e+03,9.222150e+02
2.485795e+03,9.282576e+02
2.488688e+03,9.214841e+02
2.491581e+03,9.217006e+02
2.494474e+03,9.240508e+02
2.497366e+03,9.127860e+02
2.500259e+03,9.143268e+02
2.503152e+03,9.170486e+02
2.506044e+03,9.185707e+02
2.508937e+03,9.221650e+02
2.511830e+03,9.001857e+02
2.514722e+03,9.151663e+02
2.517615e+03,9.092868e+02
2.520508e+03,8.936035e+02
2.523401e+03,8.916826e+02
2.526293e+03,8.904778e+02
2.529186e+03,8.952789e+02
2.532079e+03,9.012174e+02
2.534971e+03,8.907836e+02
2.537864e+03,8.810557e+02
2.540757e+03,8.759124e+02
2.543649e+03,9.018297e+02
2.546542e+03,8.866343e+02
2.549435e+03,8.819857e+02
2.552328e+03,8.908351e+02
2.555220e+03,9.073035e+02
2.558113e+03,8.924158e+02
2.561006e+03,8.817257e+02
2.563898e+03,8.955789e+02
2.566791e+03,8.776585e+02
2.569684e+03,8.674488e+02
2.572576e+03,8.695720e+02
2.575469e+03,8.669820e+02
2.578362e+03,8.802579e+02
2.581255e+03,8.672309e+02
2.584147e+03,8.627103e+02
2.587040e+03,8.512855e+02
2.589933e+03,8.690496e+02
2.592825e+03,8.567524e+02
2.595718e+03,8.657786e+02
2.598611e+03,8.665204e+02
2.601503e+03,8.689297e+02
2.604396e+03,8.612906e+02
2.607289e+03,8.485602e+02
2.610182e+03,8.590688e+02
2.613074e+03,8.570984e+02
2.615967e+03,8.536627e+02
2.618860e+03,8.373871e+02
2.621752e+03,8.550234e+02
2.624645e+03,8.436944e+02
2.627538e+03,8.397792e+02
2.630430e+03,8.304949e+02
2.633323e+03,8.366695e+02
2.636216e+03,8.475228e+02
2.639109e+03,8.308331e+02
2.642001e+03,8.327733e+02
2.644894e+03,8.183625e+02
2.647787e+03,8.323638e+02
2.650679e+03,8.276909e+02
2.653572e+03,8.207421e+02
2.656465e+03,8.359773e+02
2.659357e+03,8.295764e+02
2.662250e+03,7.998828e+02
2.665143e+03,8.200156e+02
2.668036e+03,8.253558e+02
2.670928e+03,8.201874e+02
2.673821e+03,8.074421e+02
2.676714e+03,8.007853e+02
2.679606e+03,8.093937e+02
2.682499e+03,8.088878e+02
2.685392e+03,8.114473e+02
2.688284e+03,8.017758e+02
2.691177e+03,7.959083e+02
2.694070e+03,8.083766e+02
2.696963e+03,7.991744e+02
2.699855e+03,8.099965e+02
2.702748e+03,8.026207e+02
2.705641e+03,7.932224e+02
2.708533e+03,8.073890e+02
2.711426e+03,8.005460e+02
2.714319e+03,8.147260e+02
2.717211e+03,8.075138e+02
2.720104e+03,7.998267e+02
2.722997e+03,7.859545e+02
2.725890e+03,7.857930e+02
2.728782e+03,7.910040e+02
2.731675e+03,8.025259e+02
2.734568e+03,7.724252e+02
2.737460e+03,8.005424e+02
2.740353e+03,7.743961e+02
2.743246e+03,7.920593e+02
2.746138e+03,7.779583e+02
2.749031e+03,7.893280e+02
2.751924e+03,7.773990e+02
2.754817e+03,7.782680e+02
2.757709e+03,7.646075e+02
2.760602e+03,7.740476e+02
2.763495e+03,7.817835e+02
2.766387e+03,7.688895e+02
2.769280e+03,7.511822e+02
2.772173e+03,7.803967e+02
2.775065e+03,7.549094e+02
2.777958e+03,7.626241e+02
2.780851e+03,7.822151e+02
2.783744e+03,7.543759e+02
2.786636e+03,7.611208e+02
2.789529e+03,7.834930e+02
2.792422e+03,7.718100e+02
2.795314e+03,7.407766e+02
2.798207e+03,7.650999e+02
2.801100e+03,7.636851e+02
2.803992e+03,7.519622e+02
2.806885e+03,7.445202e+02
2.809778e+03,7.649938e+02
2.812671e+03,7.515339e+02
2.815563e+03,7.498937e+02
2.818456e+03,7.288997e+02
2.821349e+03,7.508658e+02
2.824241e+03,7.393754e+02
2.827134e+03,7.522390e+02
2.830027e+03,7.477550e+02
2.832919e+03,7.309877e+02
2.835812e+03,7.370042e+02
2.838705e+03,7.380606e+02
2.841598e+03,7.571053e+02
2.844490e+03,7.410482e+02
2.847383e+03,7.609758e+02
2.850276e+03,7.782083e+02
2.853168e+03,7.392147e+02
2.856061e+03,7.576611e+02
2.858954e+03,7.572610e+02
2.861846e+03,7.478702e+02
2.864739e+03,7.541422e+02
2.867632e+03,7.769442e+02
2.870525e+03,7.597369e+02
2.873417e+03,7.609630e+02
2.876310e+03,7.445021e+02
2.879203e+03,7.613381e+02
2.882095e+03,7.632449e+02
2.884988e+03,7.544313e+02
2.887881e+03,7.349231e+02
2.890773e+03,7.734843e+02
2.893666e+03,7.649350e+02
2.896559e+03,7.494562e+02
2.899452e+03,7.638172e+02
2.902344e+03,7.602277e+02
2.905237e+03,7.500568e+02
2.908130e+03,7.588176e+02
2.911022e+03,7.641769e+02
2.913915e+03,7.225881e+02
2.916808e+03,7.073682e+02
2.919700e+03,7.577217e+02
2.922593e+03,7.370377e+02
2.925486e+03,7.348096e+02
2.928379e+03,7.200262e+02
2.931271e+03,7.456221e+02
2.934164e+03,7.346077e+02
2.937057e+03,7.116957e+02
2.939949e+03,7.197365e+02
2.942842e+03,7.150918e+02
2.945735e+03,7.211482e+02
2.948627e+03,7.188242e+02
2.951520e+03,7.227962e+02
2.954413e+03,6.941136e+02
2.957306e+03,7.429020e+02
2.960198e+03,6.997834e+02
2.963091e+03,7.002257e+02
2.965984e+03,6.851241e+02
2.968876e+03,6.901524e+02
2.971769e+03,6.909642e+02
2.974662e+03,7.124474e+02
2.977554e+03,6.937968e+02
2.980447e+03,6.784656e+02
2.983340e+03,7.060056e+02
2.986233e+03,6.944796e+02
2.989125e+03,6.825355e+02
2.992018e+03,6.932629e+02
2.994911e+03,6.718691e+02
2.997803e+03,6.590614e+02
3.000696e+03,6.916386e+02
3.003589e+03,6.726303e+02
3.006481e+03,6.984809e+02
3.009374e+03,6.672102e+02
3.012267e+03,6.693185e+02
3.015160e+03,6.669283e+02
3.018052e+03,6.835082e+02
3.020945e+03,6.845412e+02
3.023838e+03,6.444150e+02
3.026730e+03,6.595066e+02
3.029623e+03,6.739706e+02
3.032516e+03,6.470572e+02
3.035408e+03,6.490007e+02
3.038301e+03,6.731457e+02
3.041194e+03,6.475173e+02
3.044087e+03,6.484647e+02
3.046979e+03,6.607838e+02
3.049872e+03,6.618879e+02
3.052765e+03,6.726514e+02
3.055657e+03,6.341419e+02
3.058550e+03,6.716523e+02
3.061443e+03,6.541454e+02
3.064335e+03,6.394212e+02
3.067228e+03,6.539796e+02
3.070121e+03,6.393625e+02
3.073014e+03,6.363951e+02
3.075906e+03,6.478859e+02
3.078799e+03,6.453961e+02
3.081692e+03,6.627641e+02
3.084584e+03,6.510400e+02
3.087477e+03,6.429162e+02
3.090370e+03,6.758954e+02
3.093262e+03,6.306936e+02
3.096155e+03,6.267940e+02
3.099048e+03,6.557128e+02
3.101941e+03,6.692435e+02
3.104833e+03,6.440625e+02
3.107726e+03,6.426735e+02
3.110619e+03,6.680266e+02
3.113511e+03,6.351525e+02
3.116404e+03,6.719429e+02
3.119297e+03,6.484621e+02
3.122189e+03,6.715972e+02
3.125082e+03,6.407916e+02
3.127975e+03,6.450299e+02
3.130868e+03,6.666405e+02
3.133760e+03,6.752581e+02
3.136653e+03,6.420803e+02
3.139546e+03,6.608293e+02
3.142438e+03,6.608116e+02
3.145331e+03,6.663410e+02
3.148224e+03,6.838624e+02
3.151116e+03,6.590754e+02
3.154009e+03,6.896602e+02
3.156902e+03,6.361168e+02
3.159795e+03,6.202244e+02
3.162687e+03,6.381688e+02
3.165580e+03,6.530038e+02
3.168473e+03,6.662133e+02
3.171365e+03,6.572206e+02
3.174258e+03,6.591599e+02
3.177151e+03,6.399631e+02
3.180043e+03,6.439600e+02
3.182936e+03,6.501484e+02
3.185829e+03,6.447159e+02
3.188722e+03,6.389231e+02
3.191614e+03,6.475655e+02
3.194507e+03,6.445414e+02
3.197400e+03,6.723200e+02
3.200292e+03,6.479012e+02
3.203185e+03,0.000000e+00
3.206078e+03,0.000000e+00
3.208970e+03,0.000000e+00
3.211863e+03,0.000000e+00
3.214756e+03,0.000000e+00
3.217649e+03,0.000000e+00
3.220541e+03,0.000000e+00
3.223434e+03,0.000000e+00
3.226327e+03,0.000000e+00
3.229219e+03,0.000000e+00
3.232112e+03,0.000000e+00
3.235005e+03,0.000000e+00
3.237897e+03,0.000000e+00
3.240790e+03,0.000000e+00
3.243683e+03,0.000000e+00
3.246576e+03,0.000000e+00
3.249468e+03,0.000000e+00
3.252361e+03,0.000000e+00
3.255254e+03,0.000000e+00
3.258146e+03,0.000000e+00
3.261039e+03,0.000000e+00
3.263932e+03,0.000000e+00
3.266824e+03,0.000000e+00
3.269717e+03,0.000000e+00
3.272610e+03,0.000000e+00
3.275503e+03,0.000000e+00
3.278395e+03,0.000000e+00
3.281288e+03,0.000000e+00
3.284181e+03,0.000000e+00
3.287073e+03,0.000000e+00
3.289966e+03,0.000000e+00
3.292859e+03,0.000000e+00
3.295751e+03,0.000000e+00
3.298644e+03,0.000000e+00
3.301537e+03,0.000000e+00
3.304430e+03,0.000000e+00
3.307322e+03,0.000000e+00
3.310215e+03,0.000000e+00
3.313108e+03,0.000000e+00
3.316000e+03,0.000000e+00
3.318893e+03,0.000000e+00
3.321786e+03,0.000000e+00
3.324678e+03,0.000000e+00
3.327571e+03,0.000000e+00
3.330464e+03,0.000000e+00
3.333357e+03,0.000000e+00
3.336249e+03,0.000000e+00
3.339142e+03,0.000000e+00
3.342035e+03,0.000000e+00
3.344927e+03,0.000000e+00
3.347820e+03,0.000000e+00
3.350713e+03,0.000000e+00
3.353605e+03,0.000000e+00
3.356498e+03,0.000000e+00
3.359391e+03,0.000000e+00
3.362284e+03,0.000000e+00
3.365176e+03,0.000000e+00
3.368069e+03,0.000000e+00
3.370962e+03,0.000000e+00
3.373854e+03,0.000000e+00
3.376747e+03,0.000000e+00
3.379640e+03,0.000000e+00
3.382532e+03,0.000000e+00
3.385425e+03,0.000000e+00
3.388318e+03,0.000000e+00
3.391211e+03,0.000000e+00
3.394103e+03,0.000000e+00
3.396996e+03,0.000000e+00
3.399889e+03,0.000000e+00
3.402781e+03,0.000000e+00
3.405674e+03,0.000000e+00
3.408567e+03,0.000000e+00
3.411459e+03,0.000000e+00
3.414352e+03,0.000000e+00
3.417245e+03,0.000000e+00
3.420138e+03,0.000000e+00
3.423030e+03,0.000000e+00
3.425923e+03,0.000000e+00
3.428816e+03,0.000000e+00
3.431708e+03,0.000000e+00
3.434601e+03,0.000000e+00
3.437494e+03,0.000000e+00
3.440386e+03,0.000000e+00
3.443279e+03,0.000000e+00
3.446172e+03,0.000000e+00
3.449065e+03,0.000000e+00
3.451957e+03,0.000000e+00
3.454850e+03,0.000000e+00
3.457743e+03,0.000000e+00
3.460635e+03,0.000000e+00
3.463528e+03,0.000000e+00
3.466421e+03,0.000000e+00
3.469313e+03,0.000000e+00
3.472206e+03,0.000000e+00
3.475099e+03,0.000000e+00
3.477992e+03,0.000000e+00
3.480884e+03,0.000000e+00
3.483777e+03,0.000000e+00
3.486670e+03,0.000000e+00
3.489563e+03,0.000000e+00
3.492455e+03,0.000000e+00
3.495348e+03,0.000000e+00
3.498240e+03,0.000000e+00
3.500169e+03,0.000000e+00