File: RAMAN_data/12022024_r1/blue fibre2.CSV
9.931763e+01,0.000000e+00
1.022103e+02,0.000000e+00
1.051030e+02,0.000000e+00
1.079957e+02,0.000000e+00
1.108884e+02,0.000000e+00
1.137811e+02,0.000000e+00
1.166738e+02,0.000000e+00
1.195665e+02,0.000000e+00
1.224592e+02,0.000000e+00
1.253519e+02,0.000000e+00
1.282446e+02,0.000000e+00
1.311373e+02,0.000000e+00
1.340300e+02,0.000000e+00
1.369227e+02,0.000000e+00
1.398154e+02,0.000000e+00
1.427081e+02,0.000000e+00
1.456008e+02,0.000000e+00
1.484935e+02,0.000000e+00
1.513862e+02,0.000000e+00
1.542789e+02,0.000000e+00
1.571716e+02,0.000000e+00
1.600643e+02,0.000000e+00
1.629570e+02,0.000000e+00
1.658497e+02,0.000000e+00
1.687424e+02,0.000000e+00
1.716351e+02,0.000000e+00
1.745278e+02,0.000000e+00
1.774205e+02,0.000000e+00
1.803132e+02,0.000000e+00
1.832059e+02,0.000000e+00
1.860986e+02,0.000000e+00
1.889913e+02,0.000000e+00
1.918840e+02,0.000000e+00
1.947767e+02,0.000000e+00
1.976694e+02,0.000000e+00
2.005621e+02,1.083526e+03
2.034548e+02,1.085548e+03
2.063475e+02,1.095268e+03
2.092402e+02,1.094653e+03
2.121329e+02,1.087181e+03
2.150256e+02,1.096582e+03
2.179183e+02,1.094047e+03
2.208110e+02,1.101746e+03
2.237037e+02,1.099595e+03
2.265964e+02,1.104119e+03
2.294892e+02,1.101236e+03
2.323819e+02,1.107020e+03
2.352746e+02,1.109328e+03
2.381673e+02,1.113868e+03
2.410600e+02,1.104360e+03
2.439527e+02,1.112524e+03
2.468454e+02,1.115372e+03
2.497381e+02,1.114313e+03
2.526308e+02,1.115023e+03
2.555235e+02,1.119807e+03
2.584161e+02,1.112150e+03
2.613088e+02,1.118320e+03
2.642015e+02,1.122189e+03
2.670942e+02,1.115606e+03
2.699869e+02,1.120458e+03
2.728796e+02,1.124521e+03
2.757723e+02,1.138773e+03
2.786650e+02,1.139967e+03
2.815577e+02,1.134042e+03
2.844504e+02,1.146249e+03
2.873431e+02,1.139928e+03
2.902358e+02,1.129436e+03
2.931285e+02,1.133778e+03
2.960212e+02,1.148101e+03
2.989139e+02,1.146855e+03
3.018066e+02,1.140583e+03
3.046993e+02,1.145810e+03
3.075920e+02,1.145341e+03
3.104847e+02,1.141077e+03
3.133774e+02,1.155132e+03
3.162701e+02,1.148523e+03
3.191628e+02,1.150506e+03
3.220555e+02,1.143498e+03
3.249482e+02,1.160749e+03
3.278409e+02,1.160187e+03
3.307336e+02,1.154635e+03
3.336263e+02,1.156909e+03
3.365190e+02,1.155894e+03
3.394117e+02,1.159867e+03
3.423044e+02,1.162307e+03
3.451971e+02,1.168667e+03
3.480898e+02,1.167406e+03
3.509825e+02,1.160833e+03
3.538752e+02,1.164785e+03
3.567680e+02,1.168217e+03
3.596607e+02,1.169775e+03
3.625534e+02,1.180099e+03
3.654461e+02,1.167694e+03
3.683388e+02,1.170520e+03
3.712315e+02,1.178387e+03
3.741242e+02,1.184410e+03
3.770169e+02,1.199414e+03
3.799096e+02,1.195363e+03
3.828023e+02,1.178499e+03
3.856950e+02,1.178161e+03
3.885877e+02,1.173592e+03
3.914804e+02,1.178339e+03
3.943731e+02,1.163945e+03
3.972658e+02,1.161077e+03
4.001585e+02,1.167934e+03
4.030512e+02,1.171350e+03
4.059439e+02,1.163461e+03
4.088366e+02,1.165543e+03
4.117293e+02,1.172012e+03
4.146220e+02,1.169369e+03
4.175147e+02,1.177762e+03
4.204074e+02,1.165828e+03
4.233001e+02,1.169025e+03
4.261928e+02,1.183132e+03
4.290855e+02,1.179085e+03
4.319782e+02,1.191915e+03
4.348709e+02,1.190365e+03
4.377636e+02,1.181848e+03
4.406563e+02,1.176475e+03
4.435490e+02,1.182821e+03
4.464417e+02,1.180465e+03
4.493344e+02,1.178934e+03
4.522271e+02,1.179898e+03
4.551198e+02,1.179933e+03
4.580125e+02,1.176710e+03
4.609052e+02,1.177824e+03
4.637979e+02,1.175050e+03
4.666906e+02,1.164578e+03
4.695833e+02,1.163902e+03
4.724760e+02,1.158000e+03
4.753687e+02,1.172410e+03
4.782614e+02,1.168474e+03
4.811541e+02,1.168391e+03
4.840468e+02,1.171747e+03
4.869395e+02,1.173762e+03
4.898322e+02,1.175401e+03
4.927249e+02,1.178332e+03
4.956176e+02,1.174348e+03
4.985103e+02,1.168606e+03
5.014030e+02,1.163006e+03
5.042957e+02,1.162858e+03
5.071884e+02,1.165405e+03
5.100811e+02,1.170728e+03
5.129738e+02,1.172706e+03
5.158665e+02,1.180253e+03
5.187592e+02,1.177599e+03
5.216519e+02,1.171803e+03
5.245446e+02,1.163672e+03
5.274373e+02,1.163813e+03
5.303300e+02,1.157541e+03
5.332227e+02,1.158180e+03
5.361154e+02,1.148300e+03
5.390081e+02,1.159914e+03
5.419008e+02,1.170266e+03
5.447935e+02,1.155980e+03
5.476862e+02,1.166076e+03
5.505789e+02,1.145513e+03
5.534716e+02,1.156463e+03
5.563643e+02,1.152582e+03
5.592570e+02,1.151872e+03
5.621497e+02,1.151924e+03
5.650424e+02,1.154967e+03
5.679351e+02,1.160368e+03
5.708278e+02,1.154357e+03
5.737205e+02,1.151479e+03
5.766132e+02,1.138935e+03
5.795059e+02,1.147992e+03
5.823986e+02,1.149107e+03
5.852913e+02,1.146099e+03
5.881840e+02,1.148551e+03
5.910767e+02,1.142917e+03
5.939694e+02,1.144955e+03
5.968621e+02,1.146764e+03
5.997548e+02,1.141292e+03
6.026475e+02,1.146552e+03
6.055402e+02,1.157109e+03
6.084329e+02,1.150280e+03
6.113256e+02,1.149993e+03
6.142183e+02,1.141302e+03
6.171110e+02,1.135254e+03
6.200037e+02,1.146017e+03
6.228964e+02,1.139770e+03
6.257891e+02,1.137092e+03
6.286818e+02,1.129793e+03
6.315745e+02,1.137647e+03
6.344672e+02,1.150404e+03
6.373599e+02,1.136434e+03
6.402526e+02,1.137947e+03
6.431453e+02,1.128406e+03
6.460380e+02,1.122110e+03
6.489307e+02,1.124823e+03
6.518234e+02,1.136672e+03
6.547161e+02,1.127353e+03
6.576088e+02,1.120581e+03
6.605015e+02,1.121340e+03
6.633942e+02,1.135143e+03
6.662869e+02,1.129566e+03
6.691796e+02,1.122218e+03
6.720723e+02,1.116910e+03
6.749650e+02,1.113849e+03
6.778577e+02,1.119691e+03
6.807504e+02,1.119170e+03
6.836431e+02,1.113109e+03
6.865358e+02,1.111039e+03
6.894285e+02,1.115736e+03
6.923212e+02,1.118831e+03
6.952139e+02,1.123489e+03
6.981066e+02,1.113425e+03
7.009993e+02,1.115556e+03
7.038920e+02,1.114057e+03
7.067847e+02,1.112364e+03
7.096774e+02,1.110618e+03
7.125701e+02,1.114553e+03
7.154628e+02,1.108804e+03
7.183555e+02,1.109560e+03
7.212482e+02,1.107604e+03
7.241409e+02,1.108699e+03
7.270336e+02,1.112201e+03
7.299263e+02,1.112320e+03
7.328190e+02,1.097830e+03
7.357117e+02,1.101190e+03
7.386044e+02,1.094477e+03
7.414971e+02,1.096736e+03
7.443898e+02,1.085302e+03
7.472825e+02,1.088837e+03
7.501752e+02,1.096261e+03
7.530679e+02,1.081872e+03
7.559606e+02,1.081122e+03
7.588533e+02,1.082222e+03
7.617460e+02,1.077837e+03
7.646387e+02,1.085137e+03
7.675314e+02,1.087834e+03
7.704241e+02,1.083967e+03
7.733168e+02,1.074872e+03
7.762095e+02,1.080308e+03
7.791022e+02,1.086532e+03
7.819949e+02,1.079067e+03
7.848876e+02,1.082278e+03
7.877803e+02,1.070754e+03
7.906730e+02,1.073417e+03
7.935657e+02,1.075355e+03
7.964584e+02,1.073206e+03
7.993511e+02,1.066705e+03
8.022438e+02,1.065404e+03
8.051365e+02,1.066238e+03
8.080292e+02,1.068065e+03
8.109219e+02,1.064631e+03
8.138146e+02,1.067308e+03
8.167073e+02,1.066786e+03
8.196000e+02,1.057945e+03
8.224927e+02,1.061324e+03
8.253854e+02,1.064947e+03
8.282781e+02,1.059583e+03
8.311708e+02,1.055670e+03
8.340635e+02,1.058620e+03
8.369562e+02,1.059392e+03
8.398489e+02,1.057154e+03
8.427416e+02,1.047525e+03
8.456343e+02,1.054561e+03
8.485270e+02,1.052532e+03
8.514197e+02,1.046407e+03
8.543124e+02,1.043958e+03
8.572051e+02,1.042908e+03
8.600978e+02,1.050732e+03
8.629905e+02,1.044605e+03
8.658832e+02,1.038052e+03
8.687759e+02,1.038727e+03
8.716686e+02,1.044140e+03
8.745613e+02,1.055961e+03
8.774540e+02,1.052922e+03
8.803467e+02,1.049960e+03
8.832394e+02,1.038087e+03
8.861321e+02,1.042924e+03
8.890248e+02,1.037354e+03
8.919175e+02,1.035757e+03
8.948102e+02,1.038097e+03
8.977029e+02,1.033340e+03
9.005956e+02,1.037630e+03
9.034883e+02,1.038339e+03
9.063810e+02,1.037834e+03
9.092737e+02,1.035203e+03
9.121664e+02,1.029479e+03
9.150591e+02,1.027722e+03
9.179518e+02,1.029089e+03
9.208445e+02,1.021300e+03
9.237372e+02,1.025057e+03
9.266299e+02,1.027795e+03
9.295226e+02,1.037689e+03
9.324153e+02,1.021418e+03
9.353080e+02,1.022293e+03
9.382007e+02,1.017015e+03
9.410934e+02,1.014933e+03
9.439861e+02,1.013162e+03
9.468788e+02,1.017233e+03
9.497715e+02,1.006448e+03
9.526642e+02,1.006993e+03
9.555569e+02,1.006814e+03
9.584496e+02,1.004789e+03
9.613423e+02,1.010818e+03
9.642350e+02,1.008094e+03
9.671277e+02,1.004345e+03
9.700204e+02,1.007123e+03
9.729131e+02,9.898157e+02
9.758058e+02,1.001974e+03
9.786985e+02,1.003123e+03
9.815912e+02,1.005146e+03
9.844839e+02,1.000817e+03
9.873766e+02,9.988010e+02
9.902693e+02,1.000207e+03
9.931620e+02,1.004992e+03
9.960547e+02,1.010890e+03
9.989474e+02,1.002961e+03
1.001840e+03,9.943438e+02
1.004733e+03,9.945658e+02
1.007626e+03,9.917090e+02
1.010518e+03,9.898816e+02
1.013411e+03,9.891355e+02
1.016304e+03,9.908801e+02
1.019196e+03,9.883773e+02
1.022089e+03,9.921711e+02
1.024982e+03,9.929075e+02
1.027875e+03,9.867755e+02
1.030767e+03,9.837637e+02
1.033660e+03,9.894094e+02
1.036552e+03,9.863058e+02
1.039445e+03,9.883630e+02
1.042338e+03,9.947975e+02
1.045231e+03,9.850144e+02
1.048123e+03,9.915279e+02
1.051016e+03,9.742773e+02
1.053909e+03,9.907435e+02
1.056802e+03,9.951168e+02
1.059694e+03,9.829471e+02
1.062587e+03,9.773009e+02
1.065479e+03,9.916000e+02
1.068372e+03,9.879871e+02
1.071265e+03,9.844667e+02
1.074158e+03,9.870211e+02
1.077050e+03,9.776126e+02
1.079943e+03,9.778322e+02
1.082836e+03,9.905912e+02
1.085729e+03,1.007666e+03
1.088621e+03,1.011474e+03
1.091514e+03,1.023251e+03
1.094406e+03,1.029581e+03
1.097299e+03,1.003752e+03
1.100192e+03,1.000096e+03
1.103085e+03,9.925233e+02
1.105977e+03,9.942603e+02
1.108870e+03,9.990995e+02
1.111763e+03,9.998348e+02
1.114656e+03,9.950382e+02
1.117548e+03,1.002561e+03
1.120441e+03,1.007423e+03
1.123334e+03,1.005715e+03
1.126226e+03,9.974166e+02
1.129119e+03,9.855088e+02
1.132012e+03,9.853271e+02
1.134904e+03,9.720875e+02
1.137797e+03,9.822643e+02
1.140690e+03,9.790299e+02
1.143583e+03,9.742520e+02
1.146475e+03,9.839144e+02
1.149368e+03,9.883340e+02
1.152261e+03,9.739405e+02
1.155153e+03,9.779596e+02
1.158046e+03,9.593854e+02
1.160939e+03,9.627952e+02
1.163831e+03,9.654040e+02
1.166724e+03,9.521595e+02
1.169617e+03,9.631723e+02
1.172510e+03,9.559869e+02
1.175402e+03,9.532513e+02
1.178295e+03,9.537282e+02
1.181188e+03,9.542546e+02
1.184080e+03,9.549036e+02
1.186973e+03,9.523534e+02
1.189866e+03,9.484461e+02
1.192758e+03,9.457230e+02
1.195651e+03,9.528082e+02
1.198544e+03,9.504768e+02
1.201437e+03,9.425478e+02
1.204329e+03,9.517402e+02
1.207222e+03,9.396017e+02
1.210115e+03,9.556682e+02
1.213007e+03,9.478113e+02
1.215900e+03,9.537474e+02
1.218793e+03,9.423270e+02
1.221685e+03,9.392969e+02
1.224578e+03,9.480168e+02
1.227471e+03,9.414323e+02
1.230364e+03,9.443882e+02
1.233256e+03,9.402930e+02
1.236149e+03,9.605424e+02
1.239042e+03,9.391214e+02
1.241934e+03,9.393990e+02
1.244827e+03,9.388845e+02
1.247720e+03,9.419581e+02
1.250612e+03,9.393361e+02
1.253505e+03,9.381342e+02
1.256398e+03,9.380605e+02
1.259291e+03,9.392911e+02
1.262183e+03,9.363270e+02
1.265076e+03,9.367015e+02
1.267969e+03,9.392718e+02
1.270861e+03,9.385414e+02
1.273754e+03,9.444560e+02
1.276647e+03,9.500609e+02
1.279539e+03,9.533933e+02
1.282432e+03,9.495754e+02
1.285325e+03,9.516786e+02
1.288218e+03,9.557711e+02
1.291110e+03,9.398769e+02
1.294003e+03,9.477562e+02
1.296896e+03,9.444335e+02
1.299788e+03,9.266227e+02
1.302681e+03,9.432396e+02
1.305574e+03,9.402529e+02
1.308466e+03,9.464139e+02
1.311359e+03,9.393103e+02
1.314252e+03,9.366244e+02
1.317145e+03,9.326779e+02
1.320037e+03,9.456406e+02
1.322930e+03,9.413811e+02
1.325823e+03,9.394852e+02
1.328715e+03,9.376000e+02
1.331608e+03,9.516125e+02
1.334501e+03,9.499288e+02
1.337393e+03,9.468416e+02
1.340286e+03,9.456477e+02
1.343179e+03,9.485446e+02
1.346072e+03,9.476970e+02
1.348964e+03,9.411927e+02
1.351857e+03,9.386188e+02
1.354750e+03,9.375258e+02
1.357642e+03,9.407277e+02
1.360535e+03,9.446406e+02
1.363428e+03,9.384742e+02
1.366320e+03,9.443358e+02
1.369213e+03,9.453759e+02
1.372106e+03,9.485721e+02
1.374999e+03,9.509519e+02
1.377891e+03,9.468974e+02
1.380784e+03,9.360788e+02
1.383677e+03,9.458305e+02
1.386569e+03,9.422314e+02
1.389462e+03,9.272443e+02
1.392355e+03,9.236550e+02
1.395247e+03,9.265368e+02
1.398140e+03,9.237945e+02
1.401033e+03,9.268354e+02
1.403926e+03,9.276380e+02
1.406818e+03,9.213104e+02
1.409711e+03,9.278862e+02
1.412604e+03,9.258514e+02
1.415496e+03,9.274199e+02
1.418389e+03,9.177411e+02
1.421282e+03,9.228287e+02
1.424174e+03,9.170971e+02
1.427067e+03,9.199923e+02
1.429960e+03,9.210815e+02
1.432853e+03,9.216974e+02
1.435745e+03,9.087537e+02
1.438638e+03,9.068715e+02
1.441531e+03,9.146243e+02
1.444423e+03,9.143908e+02
1.447316e+03,9.121844e+02
1.450209e+03,9.046411e+02
1.453101e+03,9.104211e+02
1.455994e+03,9.071109e+02
1.458887e+03,9.149442e+02
1.461780e+03,9.113363e+02
1.464672e+03,9.184017e+02
1.467565e+03,9.065803e+02
1.470458e+03,9.116861e+02
1.473350e+03,9.054412e+02
1.476243e+03,9.105138e+02
1.479136e+03,9.038559e+02
1.482028e+03,9.065342e+02
1.484921e+03,9.000739e+02
1.487814e+03,9.049982e+02
1.490707e+03,8.896971e+02
1.493599e+03,9.021302e+02
1.496492e+03,8.993438e+02
1.499385e+03,9.001996e+02
1.502277e+03,8.975766e+02
1.505170e+03,8.942615e+02
1.508063e+03,8.971367e+02
1.510955e+03,9.056788e+02
1.513848e+03,8.878322e+02
1.516741e+03,8.954308e+02
1.519634e+03,8.963779e+02
1.522526e+03,8.861563e+02
1.525419e+03,8.943576e+02
1.528312e+03,8.941409e+02
1.531204e+03,8.820284e+02
1.534097e+03,8.920707e+02
1.536990e+03,9.013062e+02
1.539882e+03,8.871312e+02
1.542775e+03,8.953569e+02
1.545668e+03,8.821813e+02
1.548561e+03,8.871605e+02
1.551453e+03,8.936512e+02
1.554346e+03,8.933329e+02
1.557239e+03,8.849799e+02
1.560131e+03,8.864182e+02
1.563024e+03,8.882081e+02
1.565917e+03,8.869011e+02
1.568809e+03,8.890206e+02
1.571702e+03,8.876080e+02
1.574595e+03,8.927703e+02
1.577488e+03,8.875615e+02
1.580380e+03,8.789803e+02
1.583273e+03,8.946950e+02
1.586166e+03,8.798525e+02
1.589058e+03,8.800058e+02
1.591951e+03,8.746287e+02
1.594844e+03,8.776584e+02
1.597736e+03,8.758113e+02
1.600629e+03,8.833021e+02
1.603522e+03,8.743461e+02
1.606415e+03,8.679355e+02
1.609307e+03,8.646949e+02
1.612200e+03,8.700359e+02
1.615093e+03,8.741639e+02
1.617985e+03,8.693264e+02
1.620878e+03,8.639709e+02
1.623771e+03,8.605771e+02
1.626663e+03,8.658774e+02
1.629556e+03,8.594055e+02
1.632449e+03,8.544727e+02
1.635342e+03,8.639708e+02
1.638234e+03,8.528757e+02
1.641127e+03,8.469952e+02
1.644020e+03,8.634548e+02
1.646912e+03,8.549396e+02
1.649805e+03,8.497499e+02
1.652698e+03,8.471583e+02
1.655590e+03,8.457566e+02
1.658483e+03,8.473334e+02
1.661376e+03,8.568441e+02
1.664269e+03,8.502927e+02
1.667161e+03,8.494000e+02
1.670054e+03,8.407369e+02
1.672947e+03,8.430114e+02
1.675839e+03,8.333137e+02
1.678732e+03,8.478620e+02
1.681625e+03,8.426104e+02
1.684517e+03,8.526823e+02
1.687410e+03,8.421171e+02
1.690303e+03,8.432390e+02
1.693196e+03,8.390198e+02
1.696088e+03,8.291107e+02
1.698981e+03,8.312111e+02
1.701874e+03,8.364620e+02
1.704766e+03,8.356747e+02
1.707659e+03,8.329930e+02
1.710552e+03,8.475699e+02
1.713444e+03,8.392440e+02
1.716337e+03,8.239667e+02
1.719230e+03,8.200023e+02
1.722123e+03,8.271635e+02
1.725015e+03,8.212379e+02
1.727908e+03,8.321118e+02
1.730801e+03,8.193307e+02
1.733693e+03,8.176292e+02
1.736586e+03,8.161652e+02
1.739479e+03,8.234015e+02
1.742371e+03,8.247161e+02
1.745264e+03,8.115329e+02
1.748157e+03,8.178278e+02
1.751050e+03,8.133047e+02
1.753942e+03,8.125570e+02
1.756835e+03,8.087052e+02
1.759728e+03,8.011418e+02
1.762620e+03,7.979720e+02
1.765513e+03,8.001953e+02
1.768406e+03,8.061166e+02
1.771298e+03,8.118062e+02
1.774191e+03,7.969130e+02
1.777084e+03,8.004207e+02
1.779977e+03,7.909579e+02
1.782869e+03,7.885715e+02
1.785762e+03,7.886855e+02
1.788655e+03,7.855472e+02
1.791547e+03,7.808403e+02
1.794440e+03,7.781770e+02
1.797333e+03,7.894453e+02
1.800225e+03,7.718357e+02
1.803118e+03,7.927914e+02
1.806011e+03,7.872101e+02
1.808904e+03,7.815349e+02
1.811796e+03,7.728347e+02
1.814689e+03,7.887590e+02
1.817582e+03,7.797063e+02
1.820474e+03,7.673087e+02
1.823367e+03,7.746584e+02
1.826260e+03,7.694258e+02
1.829152e+03,7.716226e+02
1.832045e+03,7.703531e+02
1.834938e+03,7.750912e+02
1.837831e+03,7.648710e+02
1.840723e+03,7.569737e+02
1.843616e+03,7.694859e+02
1.846509e+03,7.652480e+02
1.849401e+03,7.492699e+02
1.852294e+03,7.517087e+02
1.855187e+03,7.663400e+02
1.858079e+03,7.550440e+02
1.860972e+03,7.507650e+02
1.863865e+03,7.544728e+02
1.866758e+03,7.523595e+02
1.869650e+03,7.553821e+02
1.872543e+03,7.451057e+02
1.875436e+03,7.550563e+02
1.878328e+03,7.364208e+02
1.881221e+03,7.354988e+02
1.884114e+03,7.450861e+02
1.887006e+03,7.359086e+02
1.889899e+03,7.385467e+02
1.892792e+03,7.345491e+02
1.895685e+03,7.357705e+02
1.898577e+03,7.357830e+02
1.901470e+03,7.263422e+02
1.904363e+03,7.182828e+02
1.907255e+03,7.268678e+02
1.910148e+03,7.268806e+02
1.913041e+03,7.281207e+02
1.915933e+03,7.208718e+02
1.918826e+03,7.250584e+02
1.921719e+03,7.089808e+02
1.924612e+03,7.129835e+02
1.927504e+03,7.165104e+02
1.930397e+03,7.103067e+02
1.933290e+03,7.107516e+02
1.936182e+03,7.148558e+02
1.939075e+03,7.132067e+02
1.941968e+03,7.100600e+02
1.944860e+03,7.086457e+02
1.947753e+03,7.040634e+02
1.950646e+03,6.961512e+02
1.953539e+03,7.081693e+02
1.956431e+03,6.960670e+02
1.959324e+03,7.006892e+02
1.962217e+03,7.012992e+02
1.965109e+03,6.990804e+02
1.968002e+03,6.988298e+02
1.970895e+03,6.998459e+02
1.973787e+03,6.915905e+02
1.976680e+03,6.902274e+02
1.979573e+03,6.831447e+02
1.982466e+03,6.963289e+02
1.985358e+03,6.795886e+02
1.988251e+03,6.834597e+02
1.991144e+03,6.721819e+02
1.994036e+03,6.763091e+02
1.996929e+03,6.761279e+02
1.999822e+03,6.731896e+02
2.002714e+03,6.678428e+02
2.005607e+03,6.740125e+02
2.008500e+03,6.712149e+02
2.011393e+03,6.709252e+02
2.014285e+03,6.707257e+02
2.017178e+03,6.634135e+02
2.020071e+03,6.702748e+02
2.022963e+03,6.615099e+02
2.025856e+03,6.574985e+02
2.028749e+03,6.515737e+02
2.031641e+03,6.602436e+02
2.034534e+03,6.589521e+02
2.037427e+03,6.553506e+02
2.040320e+03,6.508167e+02
2.043212e+03,6.398177e+02
2.046105e+03,6.542869e+02
2.048998e+03,6.503600e+02
2.051890e+03,6.430046e+02
2.054783e+03,6.355189e+02
2.057676e+03,6.374489e+02
2.060568e+03,6.480439e+02
2.063461e+03,6.363854e+02
2.066354e+03,6.395427e+02
2.069247e+03,6.369861e+02
2.072139e+03,6.332606e+02
2.075032e+03,6.230368e+02
2.077925e+03,6.378199e+02
2.080817e+03,6.352393e+02
2.083710e+03,6.334059e+02
2.086603e+03,6.248669e+02
2.089496e+03,6.246515e+02
2.092388e+03,6.264723e+02
2.095281e+03,6.285633e+02
2.098174e+03,6.328931e+02
2.101066e+03,6.176879e+02
2.103959e+03,6.119109e+02
2.106852e+03,6.063104e+02
2.109744e+03,6.027072e+02
2.112637e+03,6.164727e+02
2.115530e+03,5.999166e+02
2.118422e+03,6.017418e+02
2.121315e+03,6.075742e+02
2.124208e+03,6.056050e+02
2.127101e+03,5.925333e+02
2.129993e+03,6.018479e+02
2.132886e+03,5.932520e+02
2.135779e+03,5.912676e+02
2.138671e+03,5.964107e+02
2.141564e+03,6.098010e+02
2.144457e+03,5.978402e+02
2.147350e+03,5.838842e+02
2.150242e+03,5.903337e+02
2.153135e+03,5.893397e+02
2.156028e+03,5.844313e+02
2.158920e+03,5.839405e+02
2.161813e+03,5.824385e+02
2.164706e+03,5.808405e+02
2.167598e+03,5.729894e+02
2.170491e+03,5.813199e+02
2.173384e+03,5.802223e+02
2.176277e+03,5.748641e+02
2.179169e+03,5.787717e+02
2.182062e+03,5.756195e+02
2.184955e+03,5.710102e+02
2.187847e+03,5.762653e+02
2.190740e+03,5.805811e+02
2.193633e+03,5.760188e+02
2.196525e+03,5.747370e+02
2.199418e+03,5.705883e+02
2.202311e+03,5.602977e+02
2.205204e+03,5.642513e+02
2.208096e+03,5.641061e+02
2.210989e+03,5.501347e+02
2.213882e+03,5.578036e+02
2.216774e+03,5.633363e+02
2.219667e+03,5.564282e+02
2.222560e+03,5.458436e+02
2.225452e+03,5.495972e+02
2.228345e+03,5.459908e+02
2.231238e+03,5.445328e+02
2.234131e+03,5.450718e+02
2.237023e+03,5.547281e+02
2.239916e+03,5.482072e+02
2.242809e+03,5.421523e+02
2.245701e+03,5.488286e+02
2.248594e+03,5.377253e+02
2.251487e+03,5.383747e+02
2.254379e+03,5.289252e+02
2.257272e+03,5.393102e+02
2.260165e+03,5.280521e+02
2.263058e+03,5.302103e+02
2.265950e+03,5.321140e+02
2.268843e+03,5.333035e+02
2.271736e+03,5.313659e+02
2.274628e+03,5.251668e+02
2.277521e+03,5.261043e+02
2.280414e+03,5.255775e+02
2.283306e+03,5.267568e+02
2.286199e+03,5.241335e+02
2.289092e+03,5.108726e+02
2.291985e+03,5.138026e+02
2.294877e+03,5.136038e+02
2.297770e+03,5.164011e+02
2.300663e+03,5.184228e+02
2.303555e+03,5.095998e+02
2.306448e+03,5.131620e+02
2.309341e+03,5.031605e+02
2.312233e+03,5.071083e+02
2.315126e+03,5.073296e+02
2.318019e+03,5.086877e+02
2.320912e+03,5.034279e+02
2.323804e+03,5.088194e+02
2.326697e+03,5.120283e+02
2.329590e+03,5.076094e+02
2.332482e+03,5.094071e+02
2.335375e+03,4.977147e+02
2.338268e+03,5.042853e+02
2.341160e+03,4.884547e+02
2.344053e+03,5.094142e+02
2.346946e+03,4.847366e+02
2.349839e+03,4.924689e+02
2.352731e+03,4.881139e+02
2.355624e+03,4.922573e+02
2.358517e+03,4.954580e+02
2.361409e+03,4.962298e+02
2.364302e+03,4.909311e+02
2.367195e+03,4.901877e+02
2.370087e+03,4.874187e+02
2.372980e+03,4.933551e+02
2.375873e+03,4.909019e+02
2.378766e+03,4.864007e+02
2.381658e+03,4.877968e+02
2.384551e+03,4.728209e+02
2.387444e+03,4.705210e+02
2.390336e+03,4.775282e+02
2.393229e+03,4.663350e+02
2.396122e+03,4.778314e+02
2.399014e+03,4.645504e+02
2.401907e+03,4.834586e+02
2.404800e+03,4.688383e+02
2.407693e+03,4.812656e+02
2.410585e+03,4.725005e+02
2.413478e+03,4.726736e+02
2.416371e+03,4.744608e+02
2.419263e+03,4.592391e+02
2.422156e+03,4.732927e+02
2.425049e+03,4.666843e+02
2.427941e+03,4.654112e+02
2.430834e+03,4.711425e+02
2.433727e+03,4.681659e+02
2.436620e+03,4.583242e+02
2.439512e+03,4.654228e+02
2.442405e+03,4.499730e+02
2.445298e+03,4.586276e+02
2.448190e+03,4.474884e+02
2.451083e+03,4.555802e+02
2.453976e+03,4.513371e+02
2.456868e+03,4.494850e+02
2.459761e+03,4.569879e+02
2.462654e+03,4.492474e+02
2.465547e+03,4.510567e+02
2.468439e+03,4.525266e+02
2.471332e+03,4.404613e+02
2.474225e+03,4.523694e+02
2.477117e+03,4.453102e+02
2.480010e+03,4.510038e+02
2.482903e+03,4.463354e+02
2.485795e+03,4.439617e+02
2.488688e+03,4.488394e+02
2.491581e+03,4.352058e+02
2.494474e+03,4.357030e+02
2.497366e+03,4.441940e+02
2.500259e+03,4.425587e+02
2.503152e+03,4.437338e+02
2.506044e+03,4.343262e+02
2.508937e+03,4.326871e+02
2.511830e+03,4.313396e+02
2.514722e+03,4.353654e+02
2.517615e+03,4.352153e+02
2.520508e+03,4.366840e+02
2.523401e+03,4.346454e+02
2.526293e+03,4.358810e+02
2.529186e+03,4.322856e+02
2.532079e+03,4.233437e+02
2.534971e+03,4.383588e+02
2.537864e+03,4.228978e+02
2.540757e+03,4.195132e+02
2.543649e+03,4.189648e+02
2.546542e+03,4.333839e+02
2.549435e+03,4.258593e+02
2.552328e+03,4.324356e+02
2.555220e+03,4.265608e+02
2.558113e+03,4.269077e+02
2.561006e+03,4.375669e+02
2.563898e+03,4.302887e+02
2.566791e+03,4.192874e+02
2.569684e+03,4.144731e+02
2.572576e+03,4.286119e+02
2.575469e+03,4.266548e+02
2.578362e+03,4.247487e+02
2.581255e+03,4.238335e+02
2.584147e+03,4.100541e+02
2.587040e+03,4.102890e+02
2.589933e+03,4.190971e+02
2.592825e+03,4.136478e+02
2.595718e+03,4.406820e+02
2.598611e+03,4.208590e+02
2.601503e+03,4.102906e+02
2.604396e+03,4.116913e+02
2.607289e+03,3.998750e+02
2.610182e+03,4.043782e+02
2.613074e+03,4.093310e+02
2.615967e+03,4.195386e+02
2.618860e+03,4.114640e+02
2.621752e+03,3.990290e+02
2.624645e+03,4.128138e+02
2.627538e+03,4.115555e+02
2.630430e+03,3.852594e+02
2.633323e+03,4.096942e+02
2.636216e+03,3.969536e+02
2.639109e+03,4.005803e+02
2.642001e+03,3.962211e+02
2.644894e+03,4.052930e+02
2.647787e+03,3.788338e+02
2.650679e+03,3.986742e+02
2.653572e+03,3.998422e+02
2.656465e+03,4.142155e+02
2.659357e+03,4.019167e+02
2.662250e+03,3.862383e+02
2.665143e+03,3.884419e+02
2.668036e+03,3.916624e+02
2.670928e+03,4.000057e+02
2.673821e+03,3.968239e+02
2.676714e+03,4.029552e+02
2.679606e+03,3.927842e+02
2.682499e+03,3.855786e+02
2.685392e+03,3.841005e+02
2.688284e+03,3.926665e+02
2.691177e+03,3.879710e+02
2.694070e+03,3.974907e+02
2.696963e+03,3.871263e+02
2.699855e+03,3.870788e+02
2.702748e+03,3.888926e+02
2.705641e+03,3.885421e+02
2.708533e+03,3.894576e+02
2.711426e+03,3.757637e+02
2.714319e+03,4.037436e+02
2.717211e+03,3.889383e+02
2.720104e+03,3.784922e+02
2.722997e+03,3.871259e+02
2.725890e+03,3.800216e+02
2.728782e+03,3.870229e+02
2.731675e+03,3.795809e+02
2.734568e+03,3.779350e+02
2.737460e+03,3.672757e+02
2.740353e+03,3.780743e+02
2.743246e+03,3.798136e+02
2.746138e+03,3.751392e+02
2.749031e+03,3.767231e+02
2.751924e+03,3.833120e+02
2.754817e+03,3.774291e+02
2.757709e+03,3.707533e+02
2.760602e+03,3.677729e+02
2.763495e+03,3.702443e+02
2.766387e+03,3.683047e+02
2.769280e+03,3.768405e+02
2.772173e+03,3.622850e+02
2.775065e+03,3.704781e+02
2.777958e+03,3.793618e+02
2.780851e+03,3.752860e+02
2.783744e+03,3.692685e+02
2.786636e+03,3.711062e+02
2.789529e+03,3.653820e+02
2.792422e+03,3.806738e+02
2.795314e+03,3.666074e+02
2.798207e+03,3.633203e+02
2.801100e+03,3.729674e+02
2.803992e+03,3.693227e+02
2.806885e+03,3.676999e+02
2.809778e+03,3.783616e+02
2.812671e+03,3.643188e+02
2.815563e+03,3.572631e+02
2.818456e+03,3.721073e+02
2.821349e+03,3.697796e+02
2.824241e+03,3.663028e+02
2.827134e+03,3.678177e+02
2.830027e+03,3.499847e+02
2.832919e+03,3.632139e+02
2.835812e+03,3.641968e+02
2.838705e+03,3.758350e+02
2.841598e+03,3.625718e+02
2.844490e+03,3.602980e+02
2.847383e+03,3.758496e+02
2.850276e+03,3.730363e+02
2.853168e+03,3.658676e+02
2.856061e+03,3.854554e+02
2.858954e+03,3.729466e+02
2.861846e+03,3.694466e+02
2.864739e+03,3.820560e+02
2.867632e+03,3.815836e+02
2.870525e+03,3.838034e+02
2.873417e+03,3.763499e+02
2.876310e+03,3.827138e+02
2.879203e+03,3.779285e+02
2.882095e+03,3.885533e+02
2.884988e+03,4.111926e+02
2.887881e+03,4.000991e+02
2.890773e+03,4.017427e+02
2.893666e+03,4.066233e+02
2.896559e+03,3.869756e+02
2.899452e+03,4.207343e+02
2.902344e+03,3.795679e+02
2.905237e+03,3.919885e+02
2.908130e+03,3.669611e+02
2.911022e+03,3.808575e+02
2.913915e+03,3.654138e+02
2.916808e+03,3.869994e+02
2.919700e+03,3.752433e+02
2.922593e+03,3.753112e+02
2.925486e+03,3.787211e+02
2.928379e+03,3.591555e+02
2.931271e+03,3.796227e+02
2.934164e+03,3.778802e+02
2.937057e+03,3.419689e+02
2.939949e+03,3.729699e+02
2.942842e+03,3.620844e+02
2.945735e+03,3.442591e+02
2.948627e+03,3.603575e+02
2.951520e+03,3.430965e+02
2.954413e+03,3.542350e+02
2.957306e+03,4.068697e+02
2.960198e+03,3.830685e+02
2.963091e+03,3.360228e+02
2.965984e+03,3.484777e+02
2.968876e+03,3.401982e+02
2.971769e+03,3.525054e+02
2.974662e+03,3.349435e+02
2.977554e+03,3.271058e+02
2.980447e+03,3.203099e+02
2.983340e+03,3.384567e+02
2.986233e+03,3.340259e+02
2.989125e+03,3.252947e+02
2.992018e+03,3.269017e+02
2.994911e+03,3.312568e+02
2.997803e+03,3.357747e+02
3.000696e+03,3.492599e+02
3.003589e+03,3.246120e+02
3.006481e+03,3.486728e+02
3.009374e+03,3.248848e+02
3.012267e+03,3.364667e+02
3.015160e+03,3.089949e+02
3.018052e+03,3.077789e+02
3.020945e+03,3.260464e+02
3.023838e+03,3.099196e+02
3.026730e+03,3.132661e+02
3.029623e+03,3.340270e+02
3.032516e+03,3.166176e+02
3.035408e+03,2.960466e+02
3.038301e+03,3.324564e+02
3.041194e+03,3.345507e+02
3.044087e+03,3.092837e+02
3.046979e+03,3.125050e+02
3.049872e+03,3.204484e+02
3.052765e+03,3.188971e+02
3.055657e+03,3.000253e+02
3.058550e+03,3.233275e+02
3.061443e+03,3.259969e+02
3.064335e+03,3.029224e+02
3.067228e+03,3.078089e+02
3.070121e+03,3.254154e+02
3.073014e+03,3.036090e+02
3.075906e+03,3.072143e+02
3.078799e+03,3.067811e+02
3.081692e+03,3.297067e+02
3.084584e+03,3.199305e+02
3.087477e+03,3.182323e+02
3.090370e+03,3.204966e+02
3.093262e+03,2.807044e+02
3.096155e+03,3.081727e+02
3.099048e+03,2.996126e+02
3.101941e+03,3.049125e+02
3.104833e+03,3.236435e+02
3.107726e+03,3.123769e+02
3.110619e+03,3.411790e+02
3.113511e+03,3.121398e+02
3.116404e+03,3.304516e+02
3.119297e+03,3.169248e+02
3.122189e+03,3.173756e+02
3.125082e+03,3.249942e+02
3.127975e+03,3.243409e+02
3.130868e+03,3.178493e+02
3.133760e+03,3.123200e+02
3.136653e+03,3.062041e+02
3.139546e+03,3.326971e+02
3.142438e+03,3.375778e+02
3.145331e+03,3.025607e+02
3.148224e+03,3.431698e+02
3.151116e+03,3.052253e+02
3.154009e+03,3.210814e+02
3.156902e+03,3.269492e+02
3.159795e+03,2.904643e+02
3.162687e+03,3.203672e+02
3.165580e+03,3.274994e+02
3.168473e+03,3.448372e+02
3.171365e+03,3.125475e+02
3.174258e+03,3.403239e+02
3.177151e+03,3.071057e+02
3.180043e+03,3.308694e+02
3.182936e+03,2.849294e+02
3.185829e+03,3.239569e+02
3.188722e+03,3.013808e+02
3.191614e+03,3.296783e+02
3.194507e+03,3.660414e+02
3.197400e+03,3.199106e+02
3.200292e+03,3.148372e+02
3.203185e+03,0.000000e+00
3.206078e+03,0.000000e+00
3.208970e+03,0.000000e+00
3.211863e+03,0.000000e+00
3.214756e+03,0.000000e+00
3.217649e+03,0.000000e+00
3.220541e+03,0.000000e+00
3.223434e+03,0.000000e+00
3.226327e+03,0.000000e+00
3.229219e+03,0.000000e+00
3.232112e+03,0.000000e+00
3.235005e+03,0.000000e+00
3.237897e+03,0.000000e+00
3.240790e+03,0.000000e+00
3.243683e+03,0.000000e+00
3.246576e+03,0.000000e+00
3.249468e+03,0.000000e+00
3.252361e+03,0.000000e+00
3.255254e+03,0.000000e+00
3.258146e+03,0.000000e+00
3.261039e+03,0.000000e+00
3.263932e+03,0.000000e+00
3.266824e+03,0.000000e+00
3.269717e+03,0.000000e+00
3.272610e+03,0.000000e+00
3.275503e+03,0.000000e+00
3.278395e+03,0.000000e+00
3.281288e+03,0.000000e+00
3.284181e+03,0.000000e+00
3.287073e+03,0.000000e+00
3.289966e+03,0.000000e+00
3.292859e+03,0.000000e+00
3.295751e+03,0.000000e+00
3.298644e+03,0.000000e+00
3.301537e+03,0.000000e+00
3.304430e+03,0.000000e+00
3.307322e+03,0.000000e+00
3.310215e+03,0.000000e+00
3.313108e+03,0.000000e+00
3.316000e+03,0.000000e+00
3.318893e+03,0.000000e+00
3.321786e+03,0.000000e+00
3.324678e+03,0.000000e+00
3.327571e+03,0.000000e+00
3.330464e+03,0.000000e+00
3.333357e+03,0.000000e+00
3.336249e+03,0.000000e+00
3.339142e+03,0.000000e+00
3.342035e+03,0.000000e+00
3.344927e+03,0.000000e+00
3.347820e+03,0.000000e+00
3.350713e+03,0.000000e+00
3.353605e+03,0.000000e+00
3.356498e+03,0.000000e+00
3.359391e+03,0.000000e+00
3.362284e+03,0.000000e+00
3.365176e+03,0.000000e+00
3.368069e+03,0.000000e+00
3.370962e+03,0.000000e+00
3.373854e+03,0.000000e+00
3.376747e+03,0.000000e+00
3.379640e+03,0.000000e+00
3.382532e+03,0.000000e+00
3.385425e+03,0.000000e+00
3.388318e+03,0.000000e+00
3.391211e+03,0.000000e+00
3.394103e+03,0.000000e+00
3.396996e+03,0.000000e+00
3.399889e+03,0.000000e+00
3.402781e+03,0.000000e+00
3.405674e+03,0.000000e+00
3.408567e+03,0.000000e+00
3.411459e+03,0.000000e+00
3.414352e+03,0.000000e+00
3.417245e+03,0.000000e+00
3.420138e+03,0.000000e+00
3.423030e+03,0.000000e+00
3.425923e+03,0.000000e+00
3.428816e+03,0.000000e+00
3.431708e+03,0.000000e+00
3.434601e+03,0.000000e+00
3.437494e+03,0.000000e+00
3.440386e+03,0.000000e+00
3.443279e+03,0.000000e+00
3.446172e+03,0.000000e+00
3.449065e+03,0.000000e+00
3.451957e+03,0.000000e+00
3.454850e+03,0.000000e+00
3.457743e+03,0.000000e+00
3.460635e+03,0.000000e+00
3.463528e+03,0.000000e+00
3.466421e+03,0.000000e+00
3.469313e+03,0.000000e+00
3.472206e+03,0.000000e+00
3.475099e+03,0.000000e+00
3.477992e+03,0.000000e+00
3.480884e+03,0.000000e+00
3.483777e+03,0.000000e+00
3.486670e+03,0.000000e+00
3.489563e+03,0.000000e+00
3.492455e+03,0.000000e+00
3.495348e+03,0.000000e+00
3.498240e+03,0.000000e+00
3.500169e+03,0.000000e+00