File: RAMAN_data/12022024_r1/green frag1.CSV
9.931763e+01,0.000000e+00
1.022103e+02,0.000000e+00
1.051030e+02,0.000000e+00
1.079957e+02,0.000000e+00
1.108884e+02,0.000000e+00
1.137811e+02,0.000000e+00
1.166738e+02,0.000000e+00
1.195665e+02,0.000000e+00
1.224592e+02,0.000000e+00
1.253519e+02,0.000000e+00
1.282446e+02,0.000000e+00
1.311373e+02,0.000000e+00
1.340300e+02,0.000000e+00
1.369227e+02,0.000000e+00
1.398154e+02,0.000000e+00
1.427081e+02,0.000000e+00
1.456008e+02,0.000000e+00
1.484935e+02,0.000000e+00
1.513862e+02,0.000000e+00
1.542789e+02,0.000000e+00
1.571716e+02,0.000000e+00
1.600643e+02,0.000000e+00
1.629570e+02,0.000000e+00
1.658497e+02,0.000000e+00
1.687424e+02,0.000000e+00
1.716351e+02,0.000000e+00
1.745278e+02,0.000000e+00
1.774205e+02,0.000000e+00
1.803132e+02,0.000000e+00
1.832059e+02,0.000000e+00
1.860986e+02,0.000000e+00
1.889913e+02,0.000000e+00
1.918840e+02,0.000000e+00
1.947767e+02,0.000000e+00
1.976694e+02,0.000000e+00
2.005621e+02,1.882191e+03
2.034548e+02,1.888672e+03
2.063475e+02,1.886309e+03
2.092402e+02,1.872262e+03
2.121329e+02,1.862578e+03
2.150256e+02,1.860961e+03
2.179183e+02,1.855298e+03
2.208110e+02,1.853856e+03
2.237037e+02,1.838558e+03
2.265964e+02,1.836545e+03
2.294892e+02,1.831518e+03
2.323819e+02,1.833373e+03
2.352746e+02,1.826820e+03
2.381673e+02,1.832960e+03
2.410600e+02,1.810185e+03
2.439527e+02,1.809545e+03
2.468454e+02,1.797555e+03
2.497381e+02,1.811248e+03
2.526308e+02,1.800543e+03
2.555235e+02,1.797467e+03
2.584161e+02,1.785064e+03
2.613088e+02,1.769886e+03
2.642015e+02,1.760585e+03
2.670942e+02,1.770153e+03
2.699869e+02,1.766753e+03
2.728796e+02,1.758776e+03
2.757723e+02,1.737261e+03
2.786650e+02,1.723326e+03
2.815577e+02,1.737539e+03
2.844504e+02,1.742232e+03
2.873431e+02,1.722362e+03
2.902358e+02,1.723950e+03
2.931285e+02,1.711867e+03
2.960212e+02,1.704609e+03
2.989139e+02,1.707719e+03
3.018066e+02,1.699257e+03
3.046993e+02,1.690611e+03
3.075920e+02,1.689984e+03
3.104847e+02,1.679131e+03
3.133774e+02,1.679806e+03
3.162701e+02,1.677388e+03
3.191628e+02,1.659686e+03
3.220555e+02,1.644932e+03
3.249482e+02,1.651614e+03
3.278409e+02,1.650554e+03
3.307336e+02,1.652727e+03
3.336263e+02,1.636891e+03
3.365190e+02,1.625762e+03
3.394117e+02,1.623434e+03
3.423044e+02,1.625631e+03
3.451971e+02,1.632408e+03
3.480898e+02,1.623275e+03
3.509825e+02,1.610844e+03
3.538752e+02,1.619022e+03
3.567680e+02,1.612860e+03
3.596607e+02,1.595586e+03
3.625534e+02,1.593657e+03
3.654461e+02,1.591796e+03
3.683388e+02,1.576272e+03
3.712315e+02,1.584309e+03
3.741242e+02,1.571362e+03
3.770169e+02,1.576115e+03
3.799096e+02,1.569189e+03
3.828023e+02,1.560803e+03
3.856950e+02,1.548228e+03
3.885877e+02,1.550318e+03
3.914804e+02,1.555710e+03
3.943731e+02,1.540784e+03
3.972658e+02,1.530090e+03
4.001585e+02,1.533662e+03
4.030512e+02,1.530410e+03
4.059439e+02,1.517086e+03
4.088366e+02,1.526495e+03
4.117293e+02,1.518301e+03
4.146220e+02,1.514244e+03
4.175147e+02,1.503266e+03
4.204074e+02,1.509437e+03
4.233001e+02,1.509971e+03
4.261928e+02,1.510910e+03
4.290855e+02,1.490059e+03
4.319782e+02,1.490033e+03
4.348709e+02,1.487292e+03
4.377636e+02,1.476861e+03
4.406563e+02,1.464656e+03
4.435490e+02,1.471036e+03
4.464417e+02,1.470500e+03
4.493344e+02,1.479047e+03
4.522271e+02,1.463827e+03
4.551198e+02,1.460226e+03
4.580125e+02,1.462631e+03
4.609052e+02,1.462486e+03
4.637979e+02,1.445010e+03
4.666906e+02,1.452684e+03
4.695833e+02,1.433384e+03
4.724760e+02,1.442498e+03
4.753687e+02,1.441380e+03
4.782614e+02,1.438839e+03
4.811541e+02,1.448039e+03
4.840468e+02,1.434247e+03
4.869395e+02,1.418334e+03
4.898322e+02,1.405398e+03
4.927249e+02,1.416913e+03
4.956176e+02,1.411780e+03
4.985103e+02,1.421362e+03
5.014030e+02,1.406832e+03
5.042957e+02,1.392835e+03
5.071884e+02,1.399512e+03
5.100811e+02,1.393984e+03
5.129738e+02,1.385405e+03
5.158665e+02,1.388585e+03
5.187592e+02,1.380879e+03
5.216519e+02,1.373037e+03
5.245446e+02,1.367278e+03
5.274373e+02,1.376296e+03
5.303300e+02,1.363430e+03
5.332227e+02,1.355562e+03
5.361154e+02,1.351708e+03
5.390081e+02,1.349871e+03
5.419008e+02,1.362018e+03
5.447935e+02,1.348319e+03
5.476862e+02,1.344579e+03
5.505789e+02,1.348400e+03
5.534716e+02,1.335702e+03
5.563643e+02,1.327845e+03
5.592570e+02,1.337190e+03
5.621497e+02,1.325966e+03
5.650424e+02,1.327636e+03
5.679351e+02,1.323277e+03
5.708278e+02,1.317417e+03
5.737205e+02,1.317176e+03
5.766132e+02,1.322393e+03
5.795059e+02,1.316000e+03
5.823986e+02,1.315216e+03
5.852913e+02,1.301846e+03
5.881840e+02,1.309386e+03
5.910767e+02,1.306361e+03
5.939694e+02,1.304395e+03
5.968621e+02,1.299557e+03
5.997548e+02,1.294302e+03
6.026475e+02,1.287298e+03
6.055402e+02,1.297877e+03
6.084329e+02,1.297297e+03
6.113256e+02,1.285475e+03
6.142183e+02,1.282046e+03
6.171110e+02,1.284882e+03
6.200037e+02,1.266798e+03
6.228964e+02,1.271842e+03
6.257891e+02,1.274575e+03
6.286818e+02,1.279418e+03
6.315745e+02,1.269654e+03
6.344672e+02,1.259355e+03
6.373599e+02,1.258098e+03
6.402526e+02,1.252553e+03
6.431453e+02,1.250590e+03
6.460380e+02,1.247332e+03
6.489307e+02,1.241388e+03
6.518234e+02,1.245316e+03
6.547161e+02,1.243321e+03
6.576088e+02,1.231180e+03
6.605015e+02,1.235110e+03
6.633942e+02,1.228965e+03
6.662869e+02,1.230868e+03
6.691796e+02,1.231207e+03
6.720723e+02,1.237488e+03
6.749650e+02,1.242350e+03
6.778577e+02,1.263598e+03
6.807504e+02,1.243567e+03
6.836431e+02,1.220113e+03
6.865358e+02,1.215145e+03
6.894285e+02,1.201867e+03
6.923212e+02,1.206936e+03
6.952139e+02,1.212206e+03
6.981066e+02,1.211458e+03
7.009993e+02,1.204795e+03
7.038920e+02,1.199091e+03
7.067847e+02,1.192881e+03
7.096774e+02,1.196775e+03
7.125701e+02,1.198361e+03
7.154628e+02,1.190851e+03
7.183555e+02,1.186906e+03
7.212482e+02,1.189388e+03
7.241409e+02,1.185848e+03
7.270336e+02,1.176658e+03
7.299263e+02,1.185975e+03
7.328190e+02,1.181510e+03
7.357117e+02,1.184637e+03
7.386044e+02,1.174358e+03
7.414971e+02,1.183719e+03
7.443898e+02,1.204763e+03
7.472825e+02,1.197676e+03
7.501752e+02,1.164671e+03
7.530679e+02,1.157633e+03
7.559606e+02,1.153153e+03
7.588533e+02,1.151382e+03
7.617460e+02,1.150979e+03
7.646387e+02,1.150466e+03
7.675314e+02,1.142393e+03
7.704241e+02,1.147276e+03
7.733168e+02,1.143566e+03
7.762095e+02,1.146065e+03
7.791022e+02,1.143492e+03
7.819949e+02,1.139506e+03
7.848876e+02,1.135702e+03
7.877803e+02,1.138941e+03
7.906730e+02,1.132206e+03
7.935657e+02,1.129032e+03
7.964584e+02,1.117783e+03
7.993511e+02,1.131105e+03
8.022438e+02,1.122683e+03
8.051365e+02,1.123637e+03
8.080292e+02,1.124460e+03
8.109219e+02,1.104620e+03
8.138146e+02,1.109852e+03
8.167073e+02,1.113732e+03
8.196000e+02,1.118113e+03
8.224927e+02,1.110625e+03
8.253854e+02,1.100100e+03
8.282781e+02,1.103281e+03
8.311708e+02,1.109514e+03
8.340635e+02,1.100013e+03
8.369562e+02,1.104767e+03
8.398489e+02,1.093582e+03
8.427416e+02,1.094258e+03
8.456343e+02,1.089068e+03
8.485270e+02,1.090708e+03
8.514197e+02,1.091326e+03
8.543124e+02,1.094750e+03
8.572051e+02,1.078682e+03
8.600978e+02,1.083010e+03
8.629905e+02,1.078336e+03
8.658832e+02,1.075455e+03
8.687759e+02,1.084476e+03
8.716686e+02,1.076833e+03
8.745613e+02,1.065857e+03
8.774540e+02,1.076407e+03
8.803467e+02,1.072073e+03
8.832394e+02,1.068791e+03
8.861321e+02,1.069111e+03
8.890248e+02,1.067746e+03
8.919175e+02,1.061321e+03
8.948102e+02,1.057539e+03
8.977029e+02,1.051168e+03
9.005956e+02,1.048471e+03
9.034883e+02,1.050513e+03
9.063810e+02,1.045508e+03
9.092737e+02,1.045688e+03
9.121664e+02,1.039512e+03
9.150591e+02,1.043063e+03
9.179518e+02,1.029451e+03
9.208445e+02,1.028871e+03
9.237372e+02,1.031586e+03
9.266299e+02,1.030029e+03
9.295226e+02,1.031611e+03
9.324153e+02,1.012760e+03
9.353080e+02,1.029399e+03
9.382007e+02,1.013487e+03
9.410934e+02,1.015592e+03
9.439861e+02,1.017243e+03
9.468788e+02,1.014141e+03
9.497715e+02,1.022284e+03
9.526642e+02,1.020088e+03
9.555569e+02,1.013826e+03
9.584496e+02,1.001512e+03
9.613423e+02,9.965746e+02
9.642350e+02,9.954266e+02
9.671277e+02,9.944099e+02
9.700204e+02,9.926851e+02
9.729131e+02,9.899322e+02
9.758058e+02,9.964357e+02
9.786985e+02,1.000625e+03
9.815912e+02,9.905563e+02
9.844839e+02,9.809924e+02
9.873766e+02,9.885018e+02
9.902693e+02,9.764128e+02
9.931620e+02,9.834315e+02
9.960547e+02,9.845509e+02
9.989474e+02,9.788734e+02
1.001840e+03,9.703572e+02
1.004733e+03,9.735982e+02
1.007626e+03,9.734512e+02
1.010518e+03,9.620032e+02
1.013411e+03,9.545141e+02
1.016304e+03,9.596028e+02
1.019196e+03,9.562561e+02
1.022089e+03,9.659484e+02
1.024982e+03,9.578231e+02
1.027875e+03,9.509219e+02
1.030767e+03,9.557079e+02
1.033660e+03,9.552195e+02
1.036552e+03,9.510500e+02
1.039445e+03,9.519498e+02
1.042338e+03,9.469305e+02
1.045231e+03,9.496428e+02
1.048123e+03,9.488646e+02
1.051016e+03,9.504726e+02
1.053909e+03,9.612479e+02
1.056802e+03,9.796760e+02
1.059694e+03,9.864808e+02
1.062587e+03,9.797240e+02
1.065479e+03,9.622680e+02
1.068372e+03,9.550217e+02
1.071265e+03,9.368541e+02
1.074158e+03,9.467545e+02
1.077050e+03,9.355540e+02
1.079943e+03,9.289598e+02
1.082836e+03,9.347500e+02
1.085729e+03,9.380401e+02
1.088621e+03,9.307887e+02
1.091514e+03,9.290762e+02
1.094406e+03,9.309689e+02
1.097299e+03,9.255985e+02
1.100192e+03,9.133411e+02
1.103085e+03,9.159054e+02
1.105977e+03,9.249537e+02
1.108870e+03,9.199977e+02
1.111763e+03,9.182867e+02
1.114656e+03,9.091227e+02
1.117548e+03,9.140520e+02
1.120441e+03,9.308845e+02
1.123334e+03,9.398395e+02
1.126226e+03,9.473802e+02
1.129119e+03,9.360320e+02
1.132012e+03,9.206779e+02
1.134904e+03,9.163548e+02
1.137797e+03,9.130063e+02
1.140690e+03,9.141083e+02
1.143583e+03,9.089437e+02
1.146475e+03,9.036198e+02
1.149368e+03,8.908242e+02
1.152261e+03,8.861912e+02
1.155153e+03,8.855742e+02
1.158046e+03,8.844844e+02
1.160939e+03,8.840748e+02
1.163831e+03,8.846715e+02
1.166724e+03,8.900350e+02
1.169617e+03,8.868207e+02
1.172510e+03,8.758226e+02
1.175402e+03,8.781884e+02
1.178295e+03,8.799962e+02
1.181188e+03,8.692503e+02
1.184080e+03,8.754550e+02
1.186973e+03,8.715917e+02
1.189866e+03,8.724719e+02
1.192758e+03,8.727816e+02
1.195651e+03,8.747963e+02
1.198544e+03,8.681541e+02
1.201437e+03,8.670483e+02
1.204329e+03,8.655272e+02
1.207222e+03,8.559238e+02
1.210115e+03,8.686996e+02
1.213007e+03,8.677239e+02
1.215900e+03,8.621476e+02
1.218793e+03,8.541589e+02
1.221685e+03,8.496174e+02
1.224578e+03,8.498100e+02
1.227471e+03,8.565816e+02
1.230364e+03,8.466825e+02
1.233256e+03,8.382504e+02
1.236149e+03,8.516543e+02
1.239042e+03,8.448127e+02
1.241934e+03,8.431690e+02
1.244827e+03,8.427063e+02
1.247720e+03,8.315547e+02
1.250612e+03,8.307361e+02
1.253505e+03,8.336897e+02
1.256398e+03,8.373671e+02
1.259291e+03,8.341148e+02
1.262183e+03,8.294388e+02
1.265076e+03,8.299966e+02
1.267969e+03,8.266788e+02
1.270861e+03,8.305546e+02
1.273754e+03,8.243961e+02
1.276647e+03,8.345742e+02
1.279539e+03,8.263792e+02
1.282432e+03,8.279455e+02
1.285325e+03,8.283763e+02
1.288218e+03,8.560112e+02
1.291110e+03,8.856739e+02
1.294003e+03,8.949250e+02
1.296896e+03,8.588210e+02
1.299788e+03,8.397453e+02
1.302681e+03,8.357783e+02
1.305574e+03,8.401117e+02
1.308466e+03,8.176179e+02
1.311359e+03,8.218793e+02
1.314252e+03,8.152874e+02
1.317145e+03,8.082183e+02
1.320037e+03,8.209315e+02
1.322930e+03,8.201379e+02
1.325823e+03,8.112148e+02
1.328715e+03,8.121497e+02
1.331608e+03,8.105897e+02
1.334501e+03,8.229348e+02
1.337393e+03,8.391594e+02
1.340286e+03,8.461165e+02
1.343179e+03,8.302037e+02
1.346072e+03,8.097816e+02
1.348964e+03,8.012870e+02
1.351857e+03,7.957518e+02
1.354750e+03,7.905477e+02
1.357642e+03,7.871033e+02
1.360535e+03,7.897906e+02
1.363428e+03,7.886013e+02
1.366320e+03,7.909765e+02
1.369213e+03,7.878143e+02
1.372106e+03,7.857623e+02
1.374999e+03,7.787631e+02
1.377891e+03,7.818130e+02
1.380784e+03,7.805502e+02
1.383677e+03,7.758661e+02
1.386569e+03,7.653494e+02
1.389462e+03,7.653496e+02
1.392355e+03,7.689401e+02
1.395247e+03,7.752509e+02
1.398140e+03,7.717927e+02
1.401033e+03,7.669391e+02
1.403926e+03,7.695208e+02
1.406818e+03,7.663301e+02
1.409711e+03,7.721226e+02
1.412604e+03,7.797524e+02
1.415496e+03,7.881882e+02
1.418389e+03,7.776755e+02
1.421282e+03,7.754664e+02
1.424174e+03,7.729105e+02
1.427067e+03,7.869955e+02
1.429960e+03,7.870345e+02
1.432853e+03,7.919237e+02
1.435745e+03,8.115974e+02
1.438638e+03,8.092367e+02
1.441531e+03,7.969050e+02
1.444423e+03,7.882135e+02
1.447316e+03,7.940936e+02
1.450209e+03,7.966778e+02
1.453101e+03,7.823850e+02
1.455994e+03,7.759560e+02
1.458887e+03,7.755897e+02
1.461780e+03,7.678521e+02
1.464672e+03,7.675330e+02
1.467565e+03,7.616312e+02
1.470458e+03,7.543662e+02
1.473350e+03,7.368593e+02
1.476243e+03,7.416420e+02
1.479136e+03,7.354460e+02
1.482028e+03,7.325875e+02
1.484921e+03,7.289620e+02
1.487814e+03,7.254200e+02
1.490707e+03,7.221308e+02
1.493599e+03,7.227416e+02
1.496492e+03,7.305505e+02
1.499385e+03,7.199975e+02
1.502277e+03,7.184193e+02
1.505170e+03,7.196761e+02
1.508063e+03,7.178532e+02
1.510955e+03,7.177386e+02
1.513848e+03,7.156110e+02
1.516741e+03,7.152182e+02
1.519634e+03,7.287155e+02
1.522526e+03,7.324354e+02
1.525419e+03,7.836721e+02
1.528312e+03,8.053978e+02
1.531204e+03,7.767806e+02
1.534097e+03,7.300023e+02
1.536990e+03,7.168844e+02
1.539882e+03,7.151769e+02
1.542775e+03,7.143670e+02
1.545668e+03,7.047672e+02
1.548561e+03,7.064029e+02
1.551453e+03,6.974538e+02
1.554346e+03,7.044513e+02
1.557239e+03,6.974387e+02
1.560131e+03,6.970350e+02
1.563024e+03,6.943252e+02
1.565917e+03,6.917726e+02
1.568809e+03,6.936681e+02
1.571702e+03,6.920856e+02
1.574595e+03,6.958082e+02
1.577488e+03,6.801729e+02
1.580380e+03,6.927777e+02
1.583273e+03,6.858511e+02
1.586166e+03,6.888781e+02
1.589058e+03,6.814211e+02
1.591951e+03,6.796501e+02
1.594844e+03,6.916248e+02
1.597736e+03,6.837508e+02
1.600629e+03,6.850949e+02
1.603522e+03,6.794387e+02
1.606415e+03,6.799169e+02
1.609307e+03,6.712198e+02
1.612200e+03,6.760135e+02
1.615093e+03,6.694218e+02
1.617985e+03,6.796066e+02
1.620878e+03,6.712139e+02
1.623771e+03,6.675739e+02
1.626663e+03,6.685462e+02
1.629556e+03,6.690395e+02
1.632449e+03,6.609097e+02
1.635342e+03,6.617872e+02
1.638234e+03,6.602730e+02
1.641127e+03,6.582802e+02
1.644020e+03,6.485837e+02
1.646912e+03,6.605555e+02
1.649805e+03,6.522007e+02
1.652698e+03,6.461747e+02
1.655590e+03,6.537927e+02
1.658483e+03,6.466286e+02
1.661376e+03,6.476461e+02
1.664269e+03,6.479550e+02
1.667161e+03,6.473298e+02
1.670054e+03,6.409928e+02
1.672947e+03,6.357512e+02
1.675839e+03,6.383600e+02
1.678732e+03,6.322387e+02
1.681625e+03,6.343544e+02
1.684517e+03,6.344011e+02
1.687410e+03,6.267639e+02
1.690303e+03,6.240230e+02
1.693196e+03,6.453544e+02
1.696088e+03,6.325801e+02
1.698981e+03,6.234570e+02
1.701874e+03,6.256842e+02
1.704766e+03,6.328514e+02
1.707659e+03,6.124631e+02
1.710552e+03,6.163139e+02
1.713444e+03,6.223010e+02
1.716337e+03,6.186400e+02
1.719230e+03,6.171174e+02
1.722123e+03,6.077649e+02
1.725015e+03,6.260182e+02
1.727908e+03,6.109086e+02
1.730801e+03,6.067337e+02
1.733693e+03,6.152966e+02
1.736586e+03,6.163615e+02
1.739479e+03,6.102230e+02
1.742371e+03,6.173194e+02
1.745264e+03,6.047114e+02
1.748157e+03,6.068796e+02
1.751050e+03,6.036929e+02
1.753942e+03,6.043201e+02
1.756835e+03,6.087656e+02
1.759728e+03,5.981396e+02
1.762620e+03,6.029477e+02
1.765513e+03,5.994728e+02
1.768406e+03,5.942252e+02
1.771298e+03,6.009753e+02
1.774191e+03,5.830865e+02
1.777084e+03,5.898302e+02
1.779977e+03,5.868697e+02
1.782869e+03,5.970256e+02
1.785762e+03,6.047160e+02
1.788655e+03,5.887255e+02
1.791547e+03,5.814220e+02
1.794440e+03,5.935557e+02
1.797333e+03,5.841406e+02
1.800225e+03,5.800113e+02
1.803118e+03,5.814960e+02
1.806011e+03,5.905588e+02
1.808904e+03,5.850556e+02
1.811796e+03,5.766284e+02
1.814689e+03,5.741666e+02
1.817582e+03,5.756604e+02
1.820474e+03,5.699396e+02
1.823367e+03,5.696246e+02
1.826260e+03,5.696193e+02
1.829152e+03,5.645759e+02
1.832045e+03,5.712258e+02
1.834938e+03,5.737625e+02
1.837831e+03,5.674122e+02
1.840723e+03,5.556029e+02
1.843616e+03,5.628412e+02
1.846509e+03,5.637479e+02
1.849401e+03,5.632670e+02
1.852294e+03,5.381077e+02
1.855187e+03,5.470574e+02
1.858079e+03,5.635214e+02
1.860972e+03,5.689413e+02
1.863865e+03,5.521222e+02
1.866758e+03,5.486409e+02
1.869650e+03,5.409523e+02
1.872543e+03,5.544487e+02
1.875436e+03,5.524171e+02
1.878328e+03,5.435293e+02
1.881221e+03,5.434450e+02
1.884114e+03,5.433020e+02
1.887006e+03,5.454414e+02
1.889899e+03,5.433428e+02
1.892792e+03,5.413083e+02
1.895685e+03,5.354555e+02
1.898577e+03,5.452418e+02
1.901470e+03,5.321825e+02
1.904363e+03,5.338307e+02
1.907255e+03,5.431453e+02
1.910148e+03,5.396847e+02
1.913041e+03,5.333245e+02
1.915933e+03,5.256821e+02
1.918826e+03,5.377287e+02
1.921719e+03,5.252651e+02
1.924612e+03,5.215630e+02
1.927504e+03,5.236267e+02
1.930397e+03,5.309694e+02
1.933290e+03,5.123596e+02
1.936182e+03,5.244454e+02
1.939075e+03,5.196751e+02
1.941968e+03,5.167551e+02
1.944860e+03,5.175299e+02
1.947753e+03,5.129240e+02
1.950646e+03,5.178199e+02
1.953539e+03,5.196824e+02
1.956431e+03,5.071859e+02
1.959324e+03,5.174584e+02
1.962217e+03,5.115910e+02
1.965109e+03,5.034959e+02
1.968002e+03,5.052645e+02
1.970895e+03,5.193370e+02
1.973787e+03,5.104055e+02
1.976680e+03,5.000993e+02
1.979573e+03,5.063484e+02
1.982466e+03,5.051387e+02
1.985358e+03,5.063362e+02
1.988251e+03,4.989113e+02
1.991144e+03,4.938159e+02
1.994036e+03,4.899112e+02
1.996929e+03,4.925189e+02
1.999822e+03,4.935479e+02
2.002714e+03,4.972975e+02
2.005607e+03,4.911517e+02
2.008500e+03,4.937169e+02
2.011393e+03,4.880612e+02
2.014285e+03,4.889977e+02
2.017178e+03,4.934892e+02
2.020071e+03,4.814464e+02
2.022963e+03,4.838534e+02
2.025856e+03,4.839484e+02
2.028749e+03,4.764710e+02
2.031641e+03,4.858434e+02
2.034534e+03,4.723219e+02
2.037427e+03,4.713299e+02
2.040320e+03,4.751956e+02
2.043212e+03,4.769035e+02
2.046105e+03,4.731469e+02
2.048998e+03,4.696191e+02
2.051890e+03,4.700518e+02
2.054783e+03,4.778572e+02
2.057676e+03,4.621702e+02
2.060568e+03,4.533658e+02
2.063461e+03,4.604829e+02
2.066354e+03,4.633507e+02
2.069247e+03,4.640433e+02
2.072139e+03,4.606379e+02
2.075032e+03,4.572564e+02
2.077925e+03,4.604347e+02
2.080817e+03,4.585893e+02
2.083710e+03,4.501779e+02
2.086603e+03,4.613336e+02
2.089496e+03,4.614833e+02
2.092388e+03,4.511042e+02
2.095281e+03,4.515536e+02
2.098174e+03,4.526519e+02
2.101066e+03,4.440908e+02
2.103959e+03,4.421177e+02
2.106852e+03,4.429637e+02
2.109744e+03,4.460320e+02
2.112637e+03,4.447335e+02
2.115530e+03,4.415703e+02
2.118422e+03,4.237534e+02
2.121315e+03,4.526703e+02
2.124208e+03,4.420869e+02
2.127101e+03,4.317582e+02
2.129993e+03,4.424108e+02
2.132886e+03,4.386923e+02
2.135779e+03,4.359223e+02
2.138671e+03,4.331557e+02
2.141564e+03,4.231638e+02
2.144457e+03,4.343612e+02
2.147350e+03,4.252702e+02
2.150242e+03,4.348596e+02
2.153135e+03,4.322415e+02
2.156028e+03,4.255752e+02
2.158920e+03,4.256312e+02
2.161813e+03,4.279474e+02
2.164706e+03,4.225887e+02
2.167598e+03,4.193786e+02
2.170491e+03,4.210455e+02
2.173384e+03,4.152684e+02
2.176277e+03,4.137307e+02
2.179169e+03,4.172799e+02
2.182062e+03,4.172262e+02
2.184955e+03,4.176954e+02
2.187847e+03,4.168297e+02
2.190740e+03,4.157596e+02
2.193633e+03,4.142846e+02
2.196525e+03,4.114382e+02
2.199418e+03,4.135619e+02
2.202311e+03,4.138119e+02
2.205204e+03,4.110464e+02
2.208096e+03,4.063385e+02
2.210989e+03,3.972739e+02
2.213882e+03,4.037800e+02
2.216774e+03,4.058045e+02
2.219667e+03,4.061903e+02
2.222560e+03,4.053735e+02
2.225452e+03,4.010610e+02
2.228345e+03,4.001280e+02
2.231238e+03,3.986132e+02
2.234131e+03,3.962800e+02
2.237023e+03,4.073159e+02
2.239916e+03,3.908218e+02
2.242809e+03,3.940248e+02
2.245701e+03,3.892910e+02
2.248594e+03,3.869512e+02
2.251487e+03,3.913910e+02
2.254379e+03,3.844383e+02
2.257272e+03,3.805099e+02
2.260165e+03,3.843358e+02
2.263058e+03,3.913940e+02
2.265950e+03,3.873008e+02
2.268843e+03,3.751651e+02
2.271736e+03,3.847520e+02
2.274628e+03,3.824720e+02
2.277521e+03,3.838091e+02
2.280414e+03,3.802701e+02
2.283306e+03,3.766241e+02
2.286199e+03,3.818431e+02
2.289092e+03,3.672460e+02
2.291985e+03,3.714669e+02
2.294877e+03,3.746483e+02
2.297770e+03,3.810789e+02
2.300663e+03,3.741837e+02
2.303555e+03,3.656215e+02
2.306448e+03,3.675423e+02
2.309341e+03,3.700652e+02
2.312233e+03,3.719844e+02
2.315126e+03,3.685283e+02
2.318019e+03,3.622764e+02
2.320912e+03,3.605332e+02
2.323804e+03,3.666390e+02
2.326697e+03,3.593400e+02
2.329590e+03,3.641106e+02
2.332482e+03,3.634797e+02
2.335375e+03,3.575138e+02
2.338268e+03,3.612570e+02
2.341160e+03,3.528165e+02
2.344053e+03,3.540003e+02
2.346946e+03,3.549608e+02
2.349839e+03,3.544298e+02
2.352731e+03,3.613001e+02
2.355624e+03,3.569775e+02
2.358517e+03,3.626786e+02
2.361409e+03,3.504910e+02
2.364302e+03,3.482422e+02
2.367195e+03,3.501246e+02
2.370087e+03,3.525498e+02
2.372980e+03,3.460260e+02
2.375873e+03,3.489591e+02
2.378766e+03,3.425372e+02
2.381658e+03,3.358409e+02
2.384551e+03,3.409434e+02
2.387444e+03,3.453438e+02
2.390336e+03,3.466243e+02
2.393229e+03,3.416182e+02
2.396122e+03,3.324040e+02
2.399014e+03,3.549186e+02
2.401907e+03,3.377982e+02
2.404800e+03,3.331232e+02
2.407693e+03,3.430960e+02
2.410585e+03,3.434380e+02
2.413478e+03,3.323595e+02
2.416371e+03,3.340601e+02
2.419263e+03,3.409896e+02
2.422156e+03,3.384336e+02
2.425049e+03,3.206667e+02
2.427941e+03,3.291263e+02
2.430834e+03,3.382469e+02
2.433727e+03,3.243869e+02
2.436620e+03,3.289601e+02
2.439512e+03,3.338004e+02
2.442405e+03,3.215935e+02
2.445298e+03,3.238337e+02
2.448190e+03,3.266324e+02
2.451083e+03,3.254200e+02
2.453976e+03,3.251740e+02
2.456868e+03,3.231906e+02
2.459761e+03,3.246819e+02
2.462654e+03,3.240837e+02
2.465547e+03,3.167650e+02
2.468439e+03,3.194322e+02
2.471332e+03,3.153695e+02
2.474225e+03,3.191097e+02
2.477117e+03,3.203598e+02
2.480010e+03,3.287206e+02
2.482903e+03,3.155497e+02
2.485795e+03,3.143954e+02
2.488688e+03,3.129141e+02
2.491581e+03,3.188027e+02
2.494474e+03,3.105124e+02
2.497366e+03,3.154691e+02
2.500259e+03,3.095953e+02
2.503152e+03,3.129118e+02
2.506044e+03,3.115784e+02
2.508937e+03,3.129356e+02
2.511830e+03,3.150306e+02
2.514722e+03,3.006991e+02
2.517615e+03,3.135053e+02
2.520508e+03,3.108744e+02
2.523401e+03,3.112492e+02
2.526293e+03,3.063974e+02
2.529186e+03,3.171747e+02
2.532079e+03,3.075511e+02
2.534971e+03,3.129508e+02
2.537864e+03,2.975308e+02
2.540757e+03,3.097002e+02
2.543649e+03,3.053297e+02
2.546542e+03,3.135567e+02
2.549435e+03,3.013233e+02
2.552328e+03,3.042805e+02
2.555220e+03,3.081870e+02
2.558113e+03,3.066930e+02
2.561006e+03,3.030529e+02
2.563898e+03,2.947933e+02
2.566791e+03,3.028782e+02
2.569684e+03,3.094595e+02
2.572576e+03,3.048960e+02
2.575469e+03,3.113798e+02
2.578362e+03,3.095577e+02
2.581255e+03,2.952962e+02
2.584147e+03,2.988741e+02
2.587040e+03,2.992985e+02
2.589933e+03,2.969252e+02
2.592825e+03,2.834052e+02
2.595718e+03,2.952435e+02
2.598611e+03,2.941848e+02
2.601503e+03,3.016003e+02
2.604396e+03,2.899838e+02
2.607289e+03,2.948315e+02
2.610182e+03,2.927013e+02
2.613074e+03,2.918638e+02
2.615967e+03,2.966644e+02
2.618860e+03,2.925366e+02
2.621752e+03,2.961329e+02
2.624645e+03,2.855782e+02
2.627538e+03,2.882968e+02
2.630430e+03,2.912749e+02
2.633323e+03,2.931191e+02
2.636216e+03,2.961127e+02
2.639109e+03,2.932806e+02
2.642001e+03,2.896187e+02
2.644894e+03,2.863939e+02
2.647787e+03,2.797936e+02
2.650679e+03,2.853890e+02
2.653572e+03,2.916923e+02
2.656465e+03,2.900464e+02
2.659357e+03,2.801977e+02
2.662250e+03,2.770378e+02
2.665143e+03,2.866087e+02
2.668036e+03,2.806915e+02
2.670928e+03,2.911494e+02
2.673821e+03,2.854958e+02
2.676714e+03,2.864413e+02
2.679606e+03,2.790461e+02
2.682499e+03,2.790990e+02
2.685392e+03,2.778842e+02
2.688284e+03,2.833319e+02
2.691177e+03,2.852938e+02
2.694070e+03,2.792390e+02
2.696963e+03,2.780305e+02
2.699855e+03,2.909742e+02
2.702748e+03,2.912224e+02
2.705641e+03,2.864438e+02
2.708533e+03,2.865107e+02
2.711426e+03,2.839687e+02
2.714319e+03,2.951922e+02
2.717211e+03,2.889953e+02
2.720104e+03,2.882256e+02
2.722997e+03,2.940125e+02
2.725890e+03,2.802794e+02
2.728782e+03,2.737692e+02
2.731675e+03,2.764691e+02
2.734568e+03,2.720745e+02
2.737460e+03,2.669649e+02
2.740353e+03,2.692332e+02
2.743246e+03,2.690349e+02
2.746138e+03,2.699733e+02
2.749031e+03,2.754342e+02
2.751924e+03,2.645486e+02
2.754817e+03,2.678043e+02
2.757709e+03,2.776715e+02
2.760602e+03,2.739747e+02
2.763495e+03,2.686163e+02
2.766387e+03,2.698609e+02
2.769280e+03,2.625551e+02
2.772173e+03,2.626631e+02
2.775065e+03,2.609009e+02
2.777958e+03,2.585304e+02
2.780851e+03,2.637381e+02
2.783744e+03,2.732525e+02
2.786636e+03,2.696657e+02
2.789529e+03,2.659662e+02
2.792422e+03,2.748144e+02
2.795314e+03,2.693057e+02
2.798207e+03,2.660131e+02
2.801100e+03,2.583423e+02
2.803992e+03,2.617675e+02
2.806885e+03,2.683768e+02
2.809778e+03,2.649517e+02
2.812671e+03,2.757350e+02
2.815563e+03,2.534915e+02
2.818456e+03,2.645727e+02
2.821349e+03,2.787392e+02
2.824241e+03,2.664262e+02
2.827134e+03,2.793606e+02
2.830027e+03,2.927635e+02
2.832919e+03,2.970597e+02
2.835812e+03,3.455050e+02
2.838705e+03,3.733146e+02
2.841598e+03,4.035802e+02
2.844490e+03,4.396650e+02
2.847383e+03,4.396334e+02
2.850276e+03,4.145522e+02
2.853168e+03,4.135372e+02
2.856061e+03,3.996452e+02
2.858954e+03,3.786447e+02
2.861846e+03,3.599556e+02
2.864739e+03,3.516566e+02
2.867632e+03,3.716474e+02
2.870525e+03,3.609536e+02
2.873417e+03,3.898557e+02
2.876310e+03,4.503651e+02
2.879203e+03,5.050494e+02
2.882095e+03,4.913637e+02
2.884988e+03,4.131318e+02
2.887881e+03,3.872209e+02
2.890773e+03,3.733984e+02
2.893666e+03,3.532172e+02
2.896559e+03,3.680602e+02
2.899452e+03,3.758403e+02
2.902344e+03,3.533433e+02
2.905237e+03,3.269043e+02
2.908130e+03,3.327875e+02
2.911022e+03,3.194414e+02
2.913915e+03,3.094133e+02
2.916808e+03,3.238509e+02
2.919700e+03,3.141979e+02
2.922593e+03,3.186447e+02
2.925486e+03,3.203722e+02
2.928379e+03,3.202165e+02
2.931271e+03,2.975777e+02
2.934164e+03,3.048393e+02
2.937057e+03,2.793842e+02
2.939949e+03,2.834856e+02
2.942842e+03,2.764811e+02
2.945735e+03,2.741789e+02
2.948627e+03,2.671449e+02
2.951520e+03,2.741036e+02
2.954413e+03,2.590826e+02
2.957306e+03,3.156729e+02
2.960198e+03,2.886142e+02
2.963091e+03,2.548872e+02
2.965984e+03,2.541567e+02
2.968876e+03,2.584937e+02
2.971769e+03,2.677327e+02
2.974662e+03,2.560424e+02
2.977554e+03,2.540163e+02
2.980447e+03,2.618451e+02
2.983340e+03,2.465598e+02
2.986233e+03,2.678174e+02
2.989125e+03,2.490721e+02
2.992018e+03,2.433753e+02
2.994911e+03,2.446529e+02
2.997803e+03,2.321659e+02
3.000696e+03,2.601772e+02
3.003589e+03,2.575262e+02
3.006481e+03,2.593680e+02
3.009374e+03,2.523706e+02
3.012267e+03,2.534836e+02
3.015160e+03,2.481318e+02
3.018052e+03,2.346132e+02
3.020945e+03,2.559155e+02
3.023838e+03,2.401684e+02
3.026730e+03,2.362899e+02
3.029623e+03,2.334651e+02
3.032516e+03,2.586040e+02
3.035408e+03,2.346351e+02
3.038301e+03,2.401481e+02
3.041194e+03,2.458761e+02
3.044087e+03,2.412927e+02
3.046979e+03,2.445984e+02
3.049872e+03,2.234146e+02
3.052765e+03,2.323254e+02
3.055657e+03,2.387366e+02
3.058550e+03,2.603195e+02
3.061443e+03,2.469743e+02
3.064335e+03,2.469352e+02
3.067228e+03,2.394965e+02
3.070121e+03,2.528135e+02
3.073014e+03,2.383575e+02
3.075906e+03,2.509040e+02
3.078799e+03,2.580302e+02
3.081692e+03,2.417518e+02
3.084584e+03,2.311793e+02
3.087477e+03,2.508916e+02
3.090370e+03,2.457119e+02
3.093262e+03,2.311173e+02
3.096155e+03,2.325834e+02
3.099048e+03,2.529490e+02
3.101941e+03,2.638365e+02
3.104833e+03,2.401006e+02
3.107726e+03,2.557800e+02
3.110619e+03,2.546819e+02
3.113511e+03,2.415549e+02
3.116404e+03,2.462314e+02
3.119297e+03,2.667293e+02
3.122189e+03,2.604564e+02
3.125082e+03,2.544849e+02
3.127975e+03,2.740026e+02
3.130868e+03,2.564993e+02
3.133760e+03,2.469797e+02
3.136653e+03,2.227690e+02
3.139546e+03,2.494501e+02
3.142438e+03,2.429895e+02
3.145331e+03,2.119005e+02
3.148224e+03,2.784657e+02
3.151116e+03,2.393031e+02
3.154009e+03,2.546723e+02
3.156902e+03,2.303365e+02
3.159795e+03,2.281934e+02
3.162687e+03,2.351685e+02
3.165580e+03,2.619181e+02
3.168473e+03,2.729577e+02
3.171365e+03,2.550893e+02
3.174258e+03,2.474991e+02
3.177151e+03,2.511395e+02
3.180043e+03,2.709523e+02
3.182936e+03,2.680594e+02
3.185829e+03,2.263242e+02
3.188722e+03,2.575127e+02
3.191614e+03,2.940745e+02
3.194507e+03,2.831177e+02
3.197400e+03,2.444943e+02
3.200292e+03,2.747632e+02
3.203185e+03,0.000000e+00
3.206078e+03,0.000000e+00
3.208970e+03,0.000000e+00
3.211863e+03,0.000000e+00
3.214756e+03,0.000000e+00
3.217649e+03,0.000000e+00
3.220541e+03,0.000000e+00
3.223434e+03,0.000000e+00
3.226327e+03,0.000000e+00
3.229219e+03,0.000000e+00
3.232112e+03,0.000000e+00
3.235005e+03,0.000000e+00
3.237897e+03,0.000000e+00
3.240790e+03,0.000000e+00
3.243683e+03,0.000000e+00
3.246576e+03,0.000000e+00
3.249468e+03,0.000000e+00
3.252361e+03,0.000000e+00
3.255254e+03,0.000000e+00
3.258146e+03,0.000000e+00
3.261039e+03,0.000000e+00
3.263932e+03,0.000000e+00
3.266824e+03,0.000000e+00
3.269717e+03,0.000000e+00
3.272610e+03,0.000000e+00
3.275503e+03,0.000000e+00
3.278395e+03,0.000000e+00
3.281288e+03,0.000000e+00
3.284181e+03,0.000000e+00
3.287073e+03,0.000000e+00
3.289966e+03,0.000000e+00
3.292859e+03,0.000000e+00
3.295751e+03,0.000000e+00
3.298644e+03,0.000000e+00
3.301537e+03,0.000000e+00
3.304430e+03,0.000000e+00
3.307322e+03,0.000000e+00
3.310215e+03,0.000000e+00
3.313108e+03,0.000000e+00
3.316000e+03,0.000000e+00
3.318893e+03,0.000000e+00
3.321786e+03,0.000000e+00
3.324678e+03,0.000000e+00
3.327571e+03,0.000000e+00
3.330464e+03,0.000000e+00
3.333357e+03,0.000000e+00
3.336249e+03,0.000000e+00
3.339142e+03,0.000000e+00
3.342035e+03,0.000000e+00
3.344927e+03,0.000000e+00
3.347820e+03,0.000000e+00
3.350713e+03,0.000000e+00
3.353605e+03,0.000000e+00
3.356498e+03,0.000000e+00
3.359391e+03,0.000000e+00
3.362284e+03,0.000000e+00
3.365176e+03,0.000000e+00
3.368069e+03,0.000000e+00
3.370962e+03,0.000000e+00
3.373854e+03,0.000000e+00
3.376747e+03,0.000000e+00
3.379640e+03,0.000000e+00
3.382532e+03,0.000000e+00
3.385425e+03,0.000000e+00
3.388318e+03,0.000000e+00
3.391211e+03,0.000000e+00
3.394103e+03,0.000000e+00
3.396996e+03,0.000000e+00
3.399889e+03,0.000000e+00
3.402781e+03,0.000000e+00
3.405674e+03,0.000000e+00
3.408567e+03,0.000000e+00
3.411459e+03,0.000000e+00
3.414352e+03,0.000000e+00
3.417245e+03,0.000000e+00
3.420138e+03,0.000000e+00
3.423030e+03,0.000000e+00
3.425923e+03,0.000000e+00
3.428816e+03,0.000000e+00
3.431708e+03,0.000000e+00
3.434601e+03,0.000000e+00
3.437494e+03,0.000000e+00
3.440386e+03,0.000000e+00
3.443279e+03,0.000000e+00
3.446172e+03,0.000000e+00
3.449065e+03,0.000000e+00
3.451957e+03,0.000000e+00
3.454850e+03,0.000000e+00
3.457743e+03,0.000000e+00
3.460635e+03,0.000000e+00
3.463528e+03,0.000000e+00
3.466421e+03,0.000000e+00
3.469313e+03,0.000000e+00
3.472206e+03,0.000000e+00
3.475099e+03,0.000000e+00
3.477992e+03,0.000000e+00
3.480884e+03,0.000000e+00
3.483777e+03,0.000000e+00
3.486670e+03,0.000000e+00
3.489563e+03,0.000000e+00
3.492455e+03,0.000000e+00
3.495348e+03,0.000000e+00
3.498240e+03,0.000000e+00
3.500169e+03,0.000000e+00