File: RAMAN_data/12022024_r1/red fibre2.CSV
9.931763e+01,0.000000e+00
1.022103e+02,0.000000e+00
1.051030e+02,0.000000e+00
1.079957e+02,0.000000e+00
1.108884e+02,0.000000e+00
1.137811e+02,0.000000e+00
1.166738e+02,0.000000e+00
1.195665e+02,0.000000e+00
1.224592e+02,0.000000e+00
1.253519e+02,0.000000e+00
1.282446e+02,0.000000e+00
1.311373e+02,0.000000e+00
1.340300e+02,0.000000e+00
1.369227e+02,0.000000e+00
1.398154e+02,0.000000e+00
1.427081e+02,0.000000e+00
1.456008e+02,0.000000e+00
1.484935e+02,0.000000e+00
1.513862e+02,0.000000e+00
1.542789e+02,0.000000e+00
1.571716e+02,0.000000e+00
1.600643e+02,0.000000e+00
1.629570e+02,0.000000e+00
1.658497e+02,0.000000e+00
1.687424e+02,0.000000e+00
1.716351e+02,0.000000e+00
1.745278e+02,0.000000e+00
1.774205e+02,0.000000e+00
1.803132e+02,0.000000e+00
1.832059e+02,0.000000e+00
1.860986e+02,0.000000e+00
1.889913e+02,0.000000e+00
1.918840e+02,0.000000e+00
1.947767e+02,0.000000e+00
1.976694e+02,0.000000e+00
2.005621e+02,2.289436e+03
2.034548e+02,2.276431e+03
2.063475e+02,2.278392e+03
2.092402e+02,2.271204e+03
2.121329e+02,2.275397e+03
2.150256e+02,2.281522e+03
2.179183e+02,2.291884e+03
2.208110e+02,2.295578e+03
2.237037e+02,2.289211e+03
2.265964e+02,2.297104e+03
2.294892e+02,2.304323e+03
2.323819e+02,2.297219e+03
2.352746e+02,2.293072e+03
2.381673e+02,2.297693e+03
2.410600e+02,2.309425e+03
2.439527e+02,2.301867e+03
2.468454e+02,2.303394e+03
2.497381e+02,2.299195e+03
2.526308e+02,2.312482e+03
2.555235e+02,2.302498e+03
2.584161e+02,2.305274e+03
2.613088e+02,2.314195e+03
2.642015e+02,2.313719e+03
2.670942e+02,2.325228e+03
2.699869e+02,2.325816e+03
2.728796e+02,2.314601e+03
2.757723e+02,2.323559e+03
2.786650e+02,2.320480e+03
2.815577e+02,2.321197e+03
2.844504e+02,2.319230e+03
2.873431e+02,2.318157e+03
2.902358e+02,2.325762e+03
2.931285e+02,2.324588e+03
2.960212e+02,2.324259e+03
2.989139e+02,2.318676e+03
3.018066e+02,2.324052e+03
3.046993e+02,2.343096e+03
3.075920e+02,2.329619e+03
3.104847e+02,2.315010e+03
3.133774e+02,2.334358e+03
3.162701e+02,2.332642e+03
3.191628e+02,2.334775e+03
3.220555e+02,2.331289e+03
3.249482e+02,2.334481e+03
3.278409e+02,2.342852e+03
3.307336e+02,2.343181e+03
3.336263e+02,2.341303e+03
3.365190e+02,2.332399e+03
3.394117e+02,2.334938e+03
3.423044e+02,2.338572e+03
3.451971e+02,2.354314e+03
3.480898e+02,2.330929e+03
3.509825e+02,2.334798e+03
3.538752e+02,2.335230e+03
3.567680e+02,2.338946e+03
3.596607e+02,2.340174e+03
3.625534e+02,2.338905e+03
3.654461e+02,2.344181e+03
3.683388e+02,2.335094e+03
3.712315e+02,2.345277e+03
3.741242e+02,2.350767e+03
3.770169e+02,2.368168e+03
3.799096e+02,2.366869e+03
3.828023e+02,2.349149e+03
3.856950e+02,2.343320e+03
3.885877e+02,2.337490e+03
3.914804e+02,2.340412e+03
3.943731e+02,2.322876e+03
3.972658e+02,2.309842e+03
4.001585e+02,2.319445e+03
4.030512e+02,2.336438e+03
4.059439e+02,2.320124e+03
4.088366e+02,2.338475e+03
4.117293e+02,2.326048e+03
4.146220e+02,2.317278e+03
4.175147e+02,2.321812e+03
4.204074e+02,2.339164e+03
4.233001e+02,2.324414e+03
4.261928e+02,2.325205e+03
4.290855e+02,2.325198e+03
4.319782e+02,2.325980e+03
4.348709e+02,2.333242e+03
4.377636e+02,2.319602e+03
4.406563e+02,2.329078e+03
4.435490e+02,2.318709e+03
4.464417e+02,2.318532e+03
4.493344e+02,2.317392e+03
4.522271e+02,2.327343e+03
4.551198e+02,2.331852e+03
4.580125e+02,2.322073e+03
4.609052e+02,2.314604e+03
4.637979e+02,2.311101e+03
4.666906e+02,2.309445e+03
4.695833e+02,2.311968e+03
4.724760e+02,2.300073e+03
4.753687e+02,2.299779e+03
4.782614e+02,2.293090e+03
4.811541e+02,2.303501e+03
4.840468e+02,2.307500e+03
4.869395e+02,2.285609e+03
4.898322e+02,2.291706e+03
4.927249e+02,2.297861e+03
4.956176e+02,2.292555e+03
4.985103e+02,2.299346e+03
5.014030e+02,2.296505e+03
5.042957e+02,2.284220e+03
5.071884e+02,2.278943e+03
5.100811e+02,2.282741e+03
5.129738e+02,2.303517e+03
5.158665e+02,2.290437e+03
5.187592e+02,2.287196e+03
5.216519e+02,2.285213e+03
5.245446e+02,2.280490e+03
5.274373e+02,2.280512e+03
5.303300e+02,2.284344e+03
5.332227e+02,2.260181e+03
5.361154e+02,2.258434e+03
5.390081e+02,2.265559e+03
5.419008e+02,2.270111e+03
5.447935e+02,2.278837e+03
5.476862e+02,2.267316e+03
5.505789e+02,2.262721e+03
5.534716e+02,2.252299e+03
5.563643e+02,2.262034e+03
5.592570e+02,2.259655e+03
5.621497e+02,2.252950e+03
5.650424e+02,2.256854e+03
5.679351e+02,2.249869e+03
5.708278e+02,2.235310e+03
5.737205e+02,2.248870e+03
5.766132e+02,2.248849e+03
5.795059e+02,2.239373e+03
5.823986e+02,2.242304e+03
5.852913e+02,2.242551e+03
5.881840e+02,2.228251e+03
5.910767e+02,2.228996e+03
5.939694e+02,2.243538e+03
5.968621e+02,2.243847e+03
5.997548e+02,2.227426e+03
6.026475e+02,2.219309e+03
6.055402e+02,2.244597e+03
6.084329e+02,2.230620e+03
6.113256e+02,2.220562e+03
6.142183e+02,2.216980e+03
6.171110e+02,2.226434e+03
6.200037e+02,2.219929e+03
6.228964e+02,2.210644e+03
6.257891e+02,2.214196e+03
6.286818e+02,2.218163e+03
6.315745e+02,2.207081e+03
6.344672e+02,2.195111e+03
6.373599e+02,2.214119e+03
6.402526e+02,2.199578e+03
6.431453e+02,2.200274e+03
6.460380e+02,2.205253e+03
6.489307e+02,2.192885e+03
6.518234e+02,2.198906e+03
6.547161e+02,2.193850e+03
6.576088e+02,2.182314e+03
6.605015e+02,2.188425e+03
6.633942e+02,2.178336e+03
6.662869e+02,2.174575e+03
6.691796e+02,2.179890e+03
6.720723e+02,2.175475e+03
6.749650e+02,2.165356e+03
6.778577e+02,2.167086e+03
6.807504e+02,2.154096e+03
6.836431e+02,2.161931e+03
6.865358e+02,2.147483e+03
6.894285e+02,2.150315e+03
6.923212e+02,2.151726e+03
6.952139e+02,2.156429e+03
6.981066e+02,2.144954e+03
7.009993e+02,2.146601e+03
7.038920e+02,2.137822e+03
7.067847e+02,2.138100e+03
7.096774e+02,2.125248e+03
7.125701e+02,2.140694e+03
7.154628e+02,2.142608e+03
7.183555e+02,2.146906e+03
7.212482e+02,2.129285e+03
7.241409e+02,2.129586e+03
7.270336e+02,2.133017e+03
7.299263e+02,2.128541e+03
7.328190e+02,2.113160e+03
7.357117e+02,2.123351e+03
7.386044e+02,2.112376e+03
7.414971e+02,2.117184e+03
7.443898e+02,2.114243e+03
7.472825e+02,2.106473e+03
7.501752e+02,2.109874e+03
7.530679e+02,2.099500e+03
7.559606e+02,2.094616e+03
7.588533e+02,2.108787e+03
7.617460e+02,2.104035e+03
7.646387e+02,2.098290e+03
7.675314e+02,2.091142e+03
7.704241e+02,2.092472e+03
7.733168e+02,2.079055e+03
7.762095e+02,2.074283e+03
7.791022e+02,2.095901e+03
7.819949e+02,2.083577e+03
7.848876e+02,2.072631e+03
7.877803e+02,2.069970e+03
7.906730e+02,2.072092e+03
7.935657e+02,2.076007e+03
7.964584e+02,2.046701e+03
7.993511e+02,2.074468e+03
8.022438e+02,2.047092e+03
8.051365e+02,2.051077e+03
8.080292e+02,2.051853e+03
8.109219e+02,2.063558e+03
8.138146e+02,2.025982e+03
8.167073e+02,2.039791e+03
8.196000e+02,2.022787e+03
8.224927e+02,2.037225e+03
8.253854e+02,2.046499e+03
8.282781e+02,2.017742e+03
8.311708e+02,2.033646e+03
8.340635e+02,2.028807e+03
8.369562e+02,2.008402e+03
8.398489e+02,2.029691e+03
8.427416e+02,2.009890e+03
8.456343e+02,2.013764e+03
8.485270e+02,1.996670e+03
8.514197e+02,2.004705e+03
8.543124e+02,2.008677e+03
8.572051e+02,2.012151e+03
8.600978e+02,2.002197e+03
8.629905e+02,2.004531e+03
8.658832e+02,1.995051e+03
8.687759e+02,1.991110e+03
8.716686e+02,1.989236e+03
8.745613e+02,1.971605e+03
8.774540e+02,1.990539e+03
8.803467e+02,1.993859e+03
8.832394e+02,1.990975e+03
8.861321e+02,1.992177e+03
8.890248e+02,1.987090e+03
8.919175e+02,1.991015e+03
8.948102e+02,1.983894e+03
8.977029e+02,1.976291e+03
9.005956e+02,1.974051e+03
9.034883e+02,1.963396e+03
9.063810e+02,1.966573e+03
9.092737e+02,1.950345e+03
9.121664e+02,1.948590e+03
9.150591e+02,1.955373e+03
9.179518e+02,1.944826e+03
9.208445e+02,1.931382e+03
9.237372e+02,1.925120e+03
9.266299e+02,1.934146e+03
9.295226e+02,1.934727e+03
9.324153e+02,1.925928e+03
9.353080e+02,1.926921e+03
9.382007e+02,1.909890e+03
9.410934e+02,1.921974e+03
9.439861e+02,1.902044e+03
9.468788e+02,1.914823e+03
9.497715e+02,1.906338e+03
9.526642e+02,1.903027e+03
9.555569e+02,1.909684e+03
9.584496e+02,1.908734e+03
9.613423e+02,1.904272e+03
9.642350e+02,1.905443e+03
9.671277e+02,1.899807e+03
9.700204e+02,1.905346e+03
9.729131e+02,1.887418e+03
9.758058e+02,1.886125e+03
9.786985e+02,1.889792e+03
9.815912e+02,1.889707e+03
9.844839e+02,1.876011e+03
9.873766e+02,1.871102e+03
9.902693e+02,1.879313e+03
9.931620e+02,1.878335e+03
9.960547e+02,1.873483e+03
9.989474e+02,1.870482e+03
1.001840e+03,1.862967e+03
1.004733e+03,1.854031e+03
1.007626e+03,1.848112e+03
1.010518e+03,1.860002e+03
1.013411e+03,1.850447e+03
1.016304e+03,1.832792e+03
1.019196e+03,1.840149e+03
1.022089e+03,1.841653e+03
1.024982e+03,1.836669e+03
1.027875e+03,1.842963e+03
1.030767e+03,1.829479e+03
1.033660e+03,1.840349e+03
1.036552e+03,1.831596e+03
1.039445e+03,1.841999e+03
1.042338e+03,1.837455e+03
1.045231e+03,1.826848e+03
1.048123e+03,1.827060e+03
1.051016e+03,1.820367e+03
1.053909e+03,1.823084e+03
1.056802e+03,1.822319e+03
1.059694e+03,1.822221e+03
1.062587e+03,1.810220e+03
1.065479e+03,1.821186e+03
1.068372e+03,1.817124e+03
1.071265e+03,1.826865e+03
1.074158e+03,1.809396e+03
1.077050e+03,1.811651e+03
1.079943e+03,1.808471e+03
1.082836e+03,1.810228e+03
1.085729e+03,1.822831e+03
1.088621e+03,1.827768e+03
1.091514e+03,1.835886e+03
1.094406e+03,1.832407e+03
1.097299e+03,1.824842e+03
1.100192e+03,1.819405e+03
1.103085e+03,1.803132e+03
1.105977e+03,1.796149e+03
1.108870e+03,1.788529e+03
1.111763e+03,1.802369e+03
1.114656e+03,1.789715e+03
1.117548e+03,1.807021e+03
1.120441e+03,1.797689e+03
1.123334e+03,1.788221e+03
1.126226e+03,1.782385e+03
1.129119e+03,1.760569e+03
1.132012e+03,1.763345e+03
1.134904e+03,1.763732e+03
1.137797e+03,1.744066e+03
1.140690e+03,1.753110e+03
1.143583e+03,1.752880e+03
1.146475e+03,1.755491e+03
1.149368e+03,1.754591e+03
1.152261e+03,1.761186e+03
1.155153e+03,1.740098e+03
1.158046e+03,1.733757e+03
1.160939e+03,1.725501e+03
1.163831e+03,1.718509e+03
1.166724e+03,1.730466e+03
1.169617e+03,1.721708e+03
1.172510e+03,1.718297e+03
1.175402e+03,1.705852e+03
1.178295e+03,1.713771e+03
1.181188e+03,1.718159e+03
1.184080e+03,1.705669e+03
1.186973e+03,1.710288e+03
1.189866e+03,1.703310e+03
1.192758e+03,1.692527e+03
1.195651e+03,1.702827e+03
1.198544e+03,1.702119e+03
1.201437e+03,1.687943e+03
1.204329e+03,1.692625e+03
1.207222e+03,1.696071e+03
1.210115e+03,1.690817e+03
1.213007e+03,1.686537e+03
1.215900e+03,1.688766e+03
1.218793e+03,1.671055e+03
1.221685e+03,1.674231e+03
1.224578e+03,1.679051e+03
1.227471e+03,1.679096e+03
1.230364e+03,1.680239e+03
1.233256e+03,1.670173e+03
1.236149e+03,1.664896e+03
1.239042e+03,1.669964e+03
1.241934e+03,1.662277e+03
1.244827e+03,1.662955e+03
1.247720e+03,1.653475e+03
1.250612e+03,1.661389e+03
1.253505e+03,1.657430e+03
1.256398e+03,1.656922e+03
1.259291e+03,1.654369e+03
1.262183e+03,1.655224e+03
1.265076e+03,1.647459e+03
1.267969e+03,1.653724e+03
1.270861e+03,1.650450e+03
1.273754e+03,1.647395e+03
1.276647e+03,1.655923e+03
1.279539e+03,1.634999e+03
1.282432e+03,1.635893e+03
1.285325e+03,1.649116e+03
1.288218e+03,1.649465e+03
1.291110e+03,1.641646e+03
1.294003e+03,1.627471e+03
1.296896e+03,1.631142e+03
1.299788e+03,1.628511e+03
1.302681e+03,1.622381e+03
1.305574e+03,1.622739e+03
1.308466e+03,1.618453e+03
1.311359e+03,1.613587e+03
1.314252e+03,1.611726e+03
1.317145e+03,1.611537e+03
1.320037e+03,1.624341e+03
1.322930e+03,1.617950e+03
1.325823e+03,1.625319e+03
1.328715e+03,1.614857e+03
1.331608e+03,1.623703e+03
1.334501e+03,1.616907e+03
1.337393e+03,1.606180e+03
1.340286e+03,1.602871e+03
1.343179e+03,1.608480e+03
1.346072e+03,1.606000e+03
1.348964e+03,1.608395e+03
1.351857e+03,1.607483e+03
1.354750e+03,1.598239e+03
1.357642e+03,1.594829e+03
1.360535e+03,1.595878e+03
1.363428e+03,1.593071e+03
1.366320e+03,1.598582e+03
1.369213e+03,1.582525e+03
1.372106e+03,1.587712e+03
1.374999e+03,1.586066e+03
1.377891e+03,1.584844e+03
1.380784e+03,1.581223e+03
1.383677e+03,1.583566e+03
1.386569e+03,1.566805e+03
1.389462e+03,1.571284e+03
1.392355e+03,1.570266e+03
1.395247e+03,1.551949e+03
1.398140e+03,1.565084e+03
1.401033e+03,1.574499e+03
1.403926e+03,1.556706e+03
1.406818e+03,1.555924e+03
1.409711e+03,1.562534e+03
1.412604e+03,1.557897e+03
1.415496e+03,1.548938e+03
1.418389e+03,1.541149e+03
1.421282e+03,1.537434e+03
1.424174e+03,1.537598e+03
1.427067e+03,1.529027e+03
1.429960e+03,1.529720e+03
1.432853e+03,1.522863e+03
1.435745e+03,1.522479e+03
1.438638e+03,1.518107e+03
1.441531e+03,1.511523e+03
1.444423e+03,1.513174e+03
1.447316e+03,1.514444e+03
1.450209e+03,1.495608e+03
1.453101e+03,1.515740e+03
1.455994e+03,1.509331e+03
1.458887e+03,1.509622e+03
1.461780e+03,1.503139e+03
1.464672e+03,1.518137e+03
1.467565e+03,1.508599e+03
1.470458e+03,1.508052e+03
1.473350e+03,1.506724e+03
1.476243e+03,1.494194e+03
1.479136e+03,1.482091e+03
1.482028e+03,1.486195e+03
1.484921e+03,1.471127e+03
1.487814e+03,1.474464e+03
1.490707e+03,1.482156e+03
1.493599e+03,1.471316e+03
1.496492e+03,1.472685e+03
1.499385e+03,1.461965e+03
1.502277e+03,1.466506e+03
1.505170e+03,1.464565e+03
1.508063e+03,1.463554e+03
1.510955e+03,1.454294e+03
1.513848e+03,1.454014e+03
1.516741e+03,1.452398e+03
1.519634e+03,1.451052e+03
1.522526e+03,1.449193e+03
1.525419e+03,1.448743e+03
1.528312e+03,1.442391e+03
1.531204e+03,1.430672e+03
1.534097e+03,1.447241e+03
1.536990e+03,1.437372e+03
1.539882e+03,1.440444e+03
1.542775e+03,1.426021e+03
1.545668e+03,1.433402e+03
1.548561e+03,1.439366e+03
1.551453e+03,1.437745e+03
1.554346e+03,1.428745e+03
1.557239e+03,1.438694e+03
1.560131e+03,1.421346e+03
1.563024e+03,1.436365e+03
1.565917e+03,1.428032e+03
1.568809e+03,1.430128e+03
1.571702e+03,1.421085e+03
1.574595e+03,1.416586e+03
1.577488e+03,1.417414e+03
1.580380e+03,1.418915e+03
1.583273e+03,1.423460e+03
1.586166e+03,1.410248e+03
1.589058e+03,1.404287e+03
1.591951e+03,1.403045e+03
1.594844e+03,1.417836e+03
1.597736e+03,1.403321e+03
1.600629e+03,1.406245e+03
1.603522e+03,1.405807e+03
1.606415e+03,1.386914e+03
1.609307e+03,1.384456e+03
1.612200e+03,1.385394e+03
1.615093e+03,1.388635e+03
1.617985e+03,1.391125e+03
1.620878e+03,1.380151e+03
1.623771e+03,1.368029e+03
1.626663e+03,1.380698e+03
1.629556e+03,1.378473e+03
1.632449e+03,1.374598e+03
1.635342e+03,1.367269e+03
1.638234e+03,1.364762e+03
1.641127e+03,1.357595e+03
1.644020e+03,1.359480e+03
1.646912e+03,1.358158e+03
1.649805e+03,1.359384e+03
1.652698e+03,1.343075e+03
1.655590e+03,1.357596e+03
1.658483e+03,1.341126e+03
1.661376e+03,1.352084e+03
1.664269e+03,1.337670e+03
1.667161e+03,1.338287e+03
1.670054e+03,1.340731e+03
1.672947e+03,1.324011e+03
1.675839e+03,1.329205e+03
1.678732e+03,1.328178e+03
1.681625e+03,1.328831e+03
1.684517e+03,1.314375e+03
1.687410e+03,1.320615e+03
1.690303e+03,1.332238e+03
1.693196e+03,1.311245e+03
1.696088e+03,1.316314e+03
1.698981e+03,1.317829e+03
1.701874e+03,1.299075e+03
1.704766e+03,1.312086e+03
1.707659e+03,1.295200e+03
1.710552e+03,1.300624e+03
1.713444e+03,1.284233e+03
1.716337e+03,1.301474e+03
1.719230e+03,1.291483e+03
1.722123e+03,1.293653e+03
1.725015e+03,1.284990e+03
1.727908e+03,1.276265e+03
1.730801e+03,1.277117e+03
1.733693e+03,1.276137e+03
1.736586e+03,1.276681e+03
1.739479e+03,1.276317e+03
1.742371e+03,1.261454e+03
1.745264e+03,1.261847e+03
1.748157e+03,1.271926e+03
1.751050e+03,1.268313e+03
1.753942e+03,1.258951e+03
1.756835e+03,1.255690e+03
1.759728e+03,1.250015e+03
1.762620e+03,1.268858e+03
1.765513e+03,1.256493e+03
1.768406e+03,1.236377e+03
1.771298e+03,1.233210e+03
1.774191e+03,1.251219e+03
1.777084e+03,1.238591e+03
1.779977e+03,1.242138e+03
1.782869e+03,1.239584e+03
1.785762e+03,1.229375e+03
1.788655e+03,1.233990e+03
1.791547e+03,1.228715e+03
1.794440e+03,1.229186e+03
1.797333e+03,1.219228e+03
1.800225e+03,1.239033e+03
1.803118e+03,1.203492e+03
1.806011e+03,1.201885e+03
1.808904e+03,1.216860e+03
1.811796e+03,1.215098e+03
1.814689e+03,1.201253e+03
1.817582e+03,1.203422e+03
1.820474e+03,1.197492e+03
1.823367e+03,1.197566e+03
1.826260e+03,1.194543e+03
1.829152e+03,1.194643e+03
1.832045e+03,1.198852e+03
1.834938e+03,1.191974e+03
1.837831e+03,1.181814e+03
1.840723e+03,1.174852e+03
1.843616e+03,1.179576e+03
1.846509e+03,1.184880e+03
1.849401e+03,1.176978e+03
1.852294e+03,1.166891e+03
1.855187e+03,1.176781e+03
1.858079e+03,1.169376e+03
1.860972e+03,1.170794e+03
1.863865e+03,1.159124e+03
1.866758e+03,1.152412e+03
1.869650e+03,1.147973e+03
1.872543e+03,1.149459e+03
1.875436e+03,1.158761e+03
1.878328e+03,1.143473e+03
1.881221e+03,1.151853e+03
1.884114e+03,1.130826e+03
1.887006e+03,1.133992e+03
1.889899e+03,1.147824e+03
1.892792e+03,1.136057e+03
1.895685e+03,1.143958e+03
1.898577e+03,1.126917e+03
1.901470e+03,1.136283e+03
1.904363e+03,1.111542e+03
1.907255e+03,1.131726e+03
1.910148e+03,1.125729e+03
1.913041e+03,1.121031e+03
1.915933e+03,1.115648e+03
1.918826e+03,1.105731e+03
1.921719e+03,1.107732e+03
1.924612e+03,1.118028e+03
1.927504e+03,1.097157e+03
1.930397e+03,1.102578e+03
1.933290e+03,1.104527e+03
1.936182e+03,1.097899e+03
1.939075e+03,1.096902e+03
1.941968e+03,1.107870e+03
1.944860e+03,1.096714e+03
1.947753e+03,1.083173e+03
1.950646e+03,1.084331e+03
1.953539e+03,1.089331e+03
1.956431e+03,1.073651e+03
1.959324e+03,1.079747e+03
1.962217e+03,1.081694e+03
1.965109e+03,1.065175e+03
1.968002e+03,1.069674e+03
1.970895e+03,1.056606e+03
1.973787e+03,1.072156e+03
1.976680e+03,1.051801e+03
1.979573e+03,1.059167e+03
1.982466e+03,1.056230e+03
1.985358e+03,1.062635e+03
1.988251e+03,1.046604e+03
1.991144e+03,1.045651e+03
1.994036e+03,1.045011e+03
1.996929e+03,1.042938e+03
1.999822e+03,1.042822e+03
2.002714e+03,1.033331e+03
2.005607e+03,1.033666e+03
2.008500e+03,1.027900e+03
2.011393e+03,1.032925e+03
2.014285e+03,1.030042e+03
2.017178e+03,1.028421e+03
2.020071e+03,1.018708e+03
2.022963e+03,1.014490e+03
2.025856e+03,1.018346e+03
2.028749e+03,1.008867e+03
2.031641e+03,1.007578e+03
2.034534e+03,1.003439e+03
2.037427e+03,1.025466e+03
2.040320e+03,1.005437e+03
2.043212e+03,9.939684e+02
2.046105e+03,9.919000e+02
2.048998e+03,1.005884e+03
2.051890e+03,9.848339e+02
2.054783e+03,9.936752e+02
2.057676e+03,9.837446e+02
2.060568e+03,9.870316e+02
2.063461e+03,9.898135e+02
2.066354e+03,9.730155e+02
2.069247e+03,9.817502e+02
2.072139e+03,9.671406e+02
2.075032e+03,9.802841e+02
2.077925e+03,9.665981e+02
2.080817e+03,9.602172e+02
2.083710e+03,9.557221e+02
2.086603e+03,9.528464e+02
2.089496e+03,9.561342e+02
2.092388e+03,9.396010e+02
2.095281e+03,9.602554e+02
2.098174e+03,9.538055e+02
2.101066e+03,9.546511e+02
2.103959e+03,9.442783e+02
2.106852e+03,9.412287e+02
2.109744e+03,9.632491e+02
2.112637e+03,9.377253e+02
2.115530e+03,9.262097e+02
2.118422e+03,9.214775e+02
2.121315e+03,9.447280e+02
2.124208e+03,9.383002e+02
2.127101e+03,9.191152e+02
2.129993e+03,9.159327e+02
2.132886e+03,9.145709e+02
2.135779e+03,9.205362e+02
2.138671e+03,9.068748e+02
2.141564e+03,9.200042e+02
2.144457e+03,9.049725e+02
2.147350e+03,8.946693e+02
2.150242e+03,9.144175e+02
2.153135e+03,8.879602e+02
2.156028e+03,9.094706e+02
2.158920e+03,9.007037e+02
2.161813e+03,9.074530e+02
2.164706e+03,8.957892e+02
2.167598e+03,8.897074e+02
2.170491e+03,8.953052e+02
2.173384e+03,8.664680e+02
2.176277e+03,8.849765e+02
2.179169e+03,8.774708e+02
2.182062e+03,8.785726e+02
2.184955e+03,8.699394e+02
2.187847e+03,8.634938e+02
2.190740e+03,8.793459e+02
2.193633e+03,8.660767e+02
2.196525e+03,8.697777e+02
2.199418e+03,8.552792e+02
2.202311e+03,8.672590e+02
2.205204e+03,8.594724e+02
2.208096e+03,8.536177e+02
2.210989e+03,8.513770e+02
2.213882e+03,8.365982e+02
2.216774e+03,8.592183e+02
2.219667e+03,8.447986e+02
2.222560e+03,8.458481e+02
2.225452e+03,8.262668e+02
2.228345e+03,8.314784e+02
2.231238e+03,8.351401e+02
2.234131e+03,8.334451e+02
2.237023e+03,8.379834e+02
2.239916e+03,8.291698e+02
2.242809e+03,8.139603e+02
2.245701e+03,8.264940e+02
2.248594e+03,8.023386e+02
2.251487e+03,8.213245e+02
2.254379e+03,8.185016e+02
2.257272e+03,8.123907e+02
2.260165e+03,8.028196e+02
2.263058e+03,8.095010e+02
2.265950e+03,8.038535e+02
2.268843e+03,7.887543e+02
2.271736e+03,7.905500e+02
2.274628e+03,7.929239e+02
2.277521e+03,7.947545e+02
2.280414e+03,7.935723e+02
2.283306e+03,7.959474e+02
2.286199e+03,7.918382e+02
2.289092e+03,7.935187e+02
2.291985e+03,7.785110e+02
2.294877e+03,7.910146e+02
2.297770e+03,7.745112e+02
2.300663e+03,7.710483e+02
2.303555e+03,7.590616e+02
2.306448e+03,7.669528e+02
2.309341e+03,7.614880e+02
2.312233e+03,7.568846e+02
2.315126e+03,7.655589e+02
2.318019e+03,7.602782e+02
2.320912e+03,7.711271e+02
2.323804e+03,7.540048e+02
2.326697e+03,7.683768e+02
2.329590e+03,7.523575e+02
2.332482e+03,7.470002e+02
2.335375e+03,7.447447e+02
2.338268e+03,7.388997e+02
2.341160e+03,7.547398e+02
2.344053e+03,7.515401e+02
2.346946e+03,7.443577e+02
2.349839e+03,7.425698e+02
2.352731e+03,7.407406e+02
2.355624e+03,7.377149e+02
2.358517e+03,7.325452e+02
2.361409e+03,7.213832e+02
2.364302e+03,7.351389e+02
2.367195e+03,7.226468e+02
2.370087e+03,7.310126e+02
2.372980e+03,7.198312e+02
2.375873e+03,7.222988e+02
2.378766e+03,7.173320e+02
2.381658e+03,7.034006e+02
2.384551e+03,7.098521e+02
2.387444e+03,7.127694e+02
2.390336e+03,7.078635e+02
2.393229e+03,7.052721e+02
2.396122e+03,6.978245e+02
2.399014e+03,7.062152e+02
2.401907e+03,7.107609e+02
2.404800e+03,7.033182e+02
2.407693e+03,7.008747e+02
2.410585e+03,6.876877e+02
2.413478e+03,6.909385e+02
2.416371e+03,6.933337e+02
2.419263e+03,6.778354e+02
2.422156e+03,6.827531e+02
2.425049e+03,6.843640e+02
2.427941e+03,6.941531e+02
2.430834e+03,6.800079e+02
2.433727e+03,6.864994e+02
2.436620e+03,6.707484e+02
2.439512e+03,6.804037e+02
2.442405e+03,6.669185e+02
2.445298e+03,6.731723e+02
2.448190e+03,6.657079e+02
2.451083e+03,6.743330e+02
2.453976e+03,6.763302e+02
2.456868e+03,6.563210e+02
2.459761e+03,6.552718e+02
2.462654e+03,6.621627e+02
2.465547e+03,6.617836e+02
2.468439e+03,6.585496e+02
2.471332e+03,6.475895e+02
2.474225e+03,6.472499e+02
2.477117e+03,6.468290e+02
2.480010e+03,6.555817e+02
2.482903e+03,6.605946e+02
2.485795e+03,6.556553e+02
2.488688e+03,6.446454e+02
2.491581e+03,6.511184e+02
2.494474e+03,6.400633e+02
2.497366e+03,6.488321e+02
2.500259e+03,6.376588e+02
2.503152e+03,6.463701e+02
2.506044e+03,6.461494e+02
2.508937e+03,6.392531e+02
2.511830e+03,6.347451e+02
2.514722e+03,6.331658e+02
2.517615e+03,6.351414e+02
2.520508e+03,6.283137e+02
2.523401e+03,6.194988e+02
2.526293e+03,6.305443e+02
2.529186e+03,6.224162e+02
2.532079e+03,6.263672e+02
2.534971e+03,6.215862e+02
2.537864e+03,6.184375e+02
2.540757e+03,6.181871e+02
2.543649e+03,6.153570e+02
2.546542e+03,6.284803e+02
2.549435e+03,6.141135e+02
2.552328e+03,6.343524e+02
2.555220e+03,6.182302e+02
2.558113e+03,6.083878e+02
2.561006e+03,6.216046e+02
2.563898e+03,6.333516e+02
2.566791e+03,5.991903e+02
2.569684e+03,6.175287e+02
2.572576e+03,6.073376e+02
2.575469e+03,6.188076e+02
2.578362e+03,6.069631e+02
2.581255e+03,6.039058e+02
2.584147e+03,6.077936e+02
2.587040e+03,5.861870e+02
2.589933e+03,5.906750e+02
2.592825e+03,5.791091e+02
2.595718e+03,6.010445e+02
2.598611e+03,6.056617e+02
2.601503e+03,6.028558e+02
2.604396e+03,5.793017e+02
2.607289e+03,5.890668e+02
2.610182e+03,5.863354e+02
2.613074e+03,5.868489e+02
2.615967e+03,5.852492e+02
2.618860e+03,5.782137e+02
2.621752e+03,5.863904e+02
2.624645e+03,5.889581e+02
2.627538e+03,5.897084e+02
2.630430e+03,5.675956e+02
2.633323e+03,5.680069e+02
2.636216e+03,5.800439e+02
2.639109e+03,5.884130e+02
2.642001e+03,5.657418e+02
2.644894e+03,5.620820e+02
2.647787e+03,5.699762e+02
2.650679e+03,5.639677e+02
2.653572e+03,5.784113e+02
2.656465e+03,5.713448e+02
2.659357e+03,5.696613e+02
2.662250e+03,5.671042e+02
2.665143e+03,5.645629e+02
2.668036e+03,5.699382e+02
2.670928e+03,5.502082e+02
2.673821e+03,5.653180e+02
2.676714e+03,5.551061e+02
2.679606e+03,5.544291e+02
2.682499e+03,5.580330e+02
2.685392e+03,5.432595e+02
2.688284e+03,5.642938e+02
2.691177e+03,5.551488e+02
2.694070e+03,5.545360e+02
2.696963e+03,5.391091e+02
2.699855e+03,5.492092e+02
2.702748e+03,5.408329e+02
2.705641e+03,5.559191e+02
2.708533e+03,5.380336e+02
2.711426e+03,5.564933e+02
2.714319e+03,5.373687e+02
2.717211e+03,5.425223e+02
2.720104e+03,5.409503e+02
2.722997e+03,5.573691e+02
2.725890e+03,5.310878e+02
2.728782e+03,5.552139e+02
2.731675e+03,5.287074e+02
2.734568e+03,5.373550e+02
2.737460e+03,5.454105e+02
2.740353e+03,5.211058e+02
2.743246e+03,5.226006e+02
2.746138e+03,5.298285e+02
2.749031e+03,5.346146e+02
2.751924e+03,5.441797e+02
2.754817e+03,5.395193e+02
2.757709e+03,5.276441e+02
2.760602e+03,5.245103e+02
2.763495e+03,5.261448e+02
2.766387e+03,5.354340e+02
2.769280e+03,5.135497e+02
2.772173e+03,5.280596e+02
2.775065e+03,5.232604e+02
2.777958e+03,5.234626e+02
2.780851e+03,5.113096e+02
2.783744e+03,5.419766e+02
2.786636e+03,5.271642e+02
2.789529e+03,5.336129e+02
2.792422e+03,5.196359e+02
2.795314e+03,5.213518e+02
2.798207e+03,5.053130e+02
2.801100e+03,5.340793e+02
2.803992e+03,5.190606e+02
2.806885e+03,5.135302e+02
2.809778e+03,5.178883e+02
2.812671e+03,5.057540e+02
2.815563e+03,5.124453e+02
2.818456e+03,5.046407e+02
2.821349e+03,5.195253e+02
2.824241e+03,5.081040e+02
2.827134e+03,5.058391e+02
2.830027e+03,5.208702e+02
2.832919e+03,5.137901e+02
2.835812e+03,5.257701e+02
2.838705e+03,5.156923e+02
2.841598e+03,5.112707e+02
2.844490e+03,5.144202e+02
2.847383e+03,5.229280e+02
2.850276e+03,5.231194e+02
2.853168e+03,5.212086e+02
2.856061e+03,5.319684e+02
2.858954e+03,5.095572e+02
2.861846e+03,5.271072e+02
2.864739e+03,5.252660e+02
2.867632e+03,5.282007e+02
2.870525e+03,5.281160e+02
2.873417e+03,5.400528e+02
2.876310e+03,5.079288e+02
2.879203e+03,5.308668e+02
2.882095e+03,5.457497e+02
2.884988e+03,5.407987e+02
2.887881e+03,5.461201e+02
2.890773e+03,5.383152e+02
2.893666e+03,5.431786e+02
2.896559e+03,5.452927e+02
2.899452e+03,5.517598e+02
2.902344e+03,5.347070e+02
2.905237e+03,5.325093e+02
2.908130e+03,5.399077e+02
2.911022e+03,5.376312e+02
2.913915e+03,5.249535e+02
2.916808e+03,5.058256e+02
2.919700e+03,5.212221e+02
2.922593e+03,5.106534e+02
2.925486e+03,5.076356e+02
2.928379e+03,5.189257e+02
2.931271e+03,5.047714e+02
2.934164e+03,5.205329e+02
2.937057e+03,5.070023e+02
2.939949e+03,5.067311e+02
2.942842e+03,4.815836e+02
2.945735e+03,5.201379e+02
2.948627e+03,4.981595e+02
2.951520e+03,4.965769e+02
2.954413e+03,5.001215e+02
2.957306e+03,5.277164e+02
2.960198e+03,5.007572e+02
2.963091e+03,4.865537e+02
2.965984e+03,4.974568e+02
2.968876e+03,4.726085e+02
2.971769e+03,4.831850e+02
2.974662e+03,4.871200e+02
2.977554e+03,4.837476e+02
2.980447e+03,4.851001e+02
2.983340e+03,4.819109e+02
2.986233e+03,4.624410e+02
2.989125e+03,4.571992e+02
2.992018e+03,4.612350e+02
2.994911e+03,4.766476e+02
2.997803e+03,4.471523e+02
3.000696e+03,4.614738e+02
3.003589e+03,4.474266e+02
3.006481e+03,4.534530e+02
3.009374e+03,4.649652e+02
3.012267e+03,4.831815e+02
3.015160e+03,4.430102e+02
3.018052e+03,4.363510e+02
3.020945e+03,4.579673e+02
3.023838e+03,4.644406e+02
3.026730e+03,4.499607e+02
3.029623e+03,4.303809e+02
3.032516e+03,4.549567e+02
3.035408e+03,4.310644e+02
3.038301e+03,4.571381e+02
3.041194e+03,4.343593e+02
3.044087e+03,4.414523e+02
3.046979e+03,4.320695e+02
3.049872e+03,4.776571e+02
3.052765e+03,4.383883e+02
3.055657e+03,4.350036e+02
3.058550e+03,4.385869e+02
3.061443e+03,4.292032e+02
3.064335e+03,4.117345e+02
3.067228e+03,4.212821e+02
3.070121e+03,4.510107e+02
3.073014e+03,4.295039e+02
3.075906e+03,4.320407e+02
3.078799e+03,4.378676e+02
3.081692e+03,4.528575e+02
3.084584e+03,4.406143e+02
3.087477e+03,4.221927e+02
3.090370e+03,4.497020e+02
3.093262e+03,4.348732e+02
3.096155e+03,4.559755e+02
3.099048e+03,4.464775e+02
3.101941e+03,4.421551e+02
3.104833e+03,4.484632e+02
3.107726e+03,4.450506e+02
3.110619e+03,4.391385e+02
3.113511e+03,4.108588e+02
3.116404e+03,4.607170e+02
3.119297e+03,4.372226e+02
3.122189e+03,4.366441e+02
3.125082e+03,4.665267e+02
3.127975e+03,4.472375e+02
3.130868e+03,4.631483e+02
3.133760e+03,4.697016e+02
3.136653e+03,4.157633e+02
3.139546e+03,4.610692e+02
3.142438e+03,4.517832e+02
3.145331e+03,4.159650e+02
3.148224e+03,4.518147e+02
3.151116e+03,4.401902e+02
3.154009e+03,4.713956e+02
3.156902e+03,4.564902e+02
3.159795e+03,3.977318e+02
3.162687e+03,4.638008e+02
3.165580e+03,4.381997e+02
3.168473e+03,4.752445e+02
3.171365e+03,4.736242e+02
3.174258e+03,4.580844e+02
3.177151e+03,4.364679e+02
3.180043e+03,4.447072e+02
3.182936e+03,4.678163e+02
3.185829e+03,4.420806e+02
3.188722e+03,4.230508e+02
3.191614e+03,4.638683e+02
3.194507e+03,4.694436e+02
3.197400e+03,4.046337e+02
3.200292e+03,4.619307e+02
3.203185e+03,0.000000e+00
3.206078e+03,0.000000e+00
3.208970e+03,0.000000e+00
3.211863e+03,0.000000e+00
3.214756e+03,0.000000e+00
3.217649e+03,0.000000e+00
3.220541e+03,0.000000e+00
3.223434e+03,0.000000e+00
3.226327e+03,0.000000e+00
3.229219e+03,0.000000e+00
3.232112e+03,0.000000e+00
3.235005e+03,0.000000e+00
3.237897e+03,0.000000e+00
3.240790e+03,0.000000e+00
3.243683e+03,0.000000e+00
3.246576e+03,0.000000e+00
3.249468e+03,0.000000e+00
3.252361e+03,0.000000e+00
3.255254e+03,0.000000e+00
3.258146e+03,0.000000e+00
3.261039e+03,0.000000e+00
3.263932e+03,0.000000e+00
3.266824e+03,0.000000e+00
3.269717e+03,0.000000e+00
3.272610e+03,0.000000e+00
3.275503e+03,0.000000e+00
3.278395e+03,0.000000e+00
3.281288e+03,0.000000e+00
3.284181e+03,0.000000e+00
3.287073e+03,0.000000e+00
3.289966e+03,0.000000e+00
3.292859e+03,0.000000e+00
3.295751e+03,0.000000e+00
3.298644e+03,0.000000e+00
3.301537e+03,0.000000e+00
3.304430e+03,0.000000e+00
3.307322e+03,0.000000e+00
3.310215e+03,0.000000e+00
3.313108e+03,0.000000e+00
3.316000e+03,0.000000e+00
3.318893e+03,0.000000e+00
3.321786e+03,0.000000e+00
3.324678e+03,0.000000e+00
3.327571e+03,0.000000e+00
3.330464e+03,0.000000e+00
3.333357e+03,0.000000e+00
3.336249e+03,0.000000e+00
3.339142e+03,0.000000e+00
3.342035e+03,0.000000e+00
3.344927e+03,0.000000e+00
3.347820e+03,0.000000e+00
3.350713e+03,0.000000e+00
3.353605e+03,0.000000e+00
3.356498e+03,0.000000e+00
3.359391e+03,0.000000e+00
3.362284e+03,0.000000e+00
3.365176e+03,0.000000e+00
3.368069e+03,0.000000e+00
3.370962e+03,0.000000e+00
3.373854e+03,0.000000e+00
3.376747e+03,0.000000e+00
3.379640e+03,0.000000e+00
3.382532e+03,0.000000e+00
3.385425e+03,0.000000e+00
3.388318e+03,0.000000e+00
3.391211e+03,0.000000e+00
3.394103e+03,0.000000e+00
3.396996e+03,0.000000e+00
3.399889e+03,0.000000e+00
3.402781e+03,0.000000e+00
3.405674e+03,0.000000e+00
3.408567e+03,0.000000e+00
3.411459e+03,0.000000e+00
3.414352e+03,0.000000e+00
3.417245e+03,0.000000e+00
3.420138e+03,0.000000e+00
3.423030e+03,0.000000e+00
3.425923e+03,0.000000e+00
3.428816e+03,0.000000e+00
3.431708e+03,0.000000e+00
3.434601e+03,0.000000e+00
3.437494e+03,0.000000e+00
3.440386e+03,0.000000e+00
3.443279e+03,0.000000e+00
3.446172e+03,0.000000e+00
3.449065e+03,0.000000e+00
3.451957e+03,0.000000e+00
3.454850e+03,0.000000e+00
3.457743e+03,0.000000e+00
3.460635e+03,0.000000e+00
3.463528e+03,0.000000e+00
3.466421e+03,0.000000e+00
3.469313e+03,0.000000e+00
3.472206e+03,0.000000e+00
3.475099e+03,0.000000e+00
3.477992e+03,0.000000e+00
3.480884e+03,0.000000e+00
3.483777e+03,0.000000e+00
3.486670e+03,0.000000e+00
3.489563e+03,0.000000e+00
3.492455e+03,0.000000e+00
3.495348e+03,0.000000e+00
3.498240e+03,0.000000e+00
3.500169e+03,0.000000e+00