File: RAMAN_data/12022024_r1/red fibre1.CSV
9.931763e+01,0.000000e+00
1.022103e+02,0.000000e+00
1.051030e+02,0.000000e+00
1.079957e+02,0.000000e+00
1.108884e+02,0.000000e+00
1.137811e+02,0.000000e+00
1.166738e+02,0.000000e+00
1.195665e+02,0.000000e+00
1.224592e+02,0.000000e+00
1.253519e+02,0.000000e+00
1.282446e+02,0.000000e+00
1.311373e+02,0.000000e+00
1.340300e+02,0.000000e+00
1.369227e+02,0.000000e+00
1.398154e+02,0.000000e+00
1.427081e+02,0.000000e+00
1.456008e+02,0.000000e+00
1.484935e+02,0.000000e+00
1.513862e+02,0.000000e+00
1.542789e+02,0.000000e+00
1.571716e+02,0.000000e+00
1.600643e+02,0.000000e+00
1.629570e+02,0.000000e+00
1.658497e+02,0.000000e+00
1.687424e+02,0.000000e+00
1.716351e+02,0.000000e+00
1.745278e+02,0.000000e+00
1.774205e+02,0.000000e+00
1.803132e+02,0.000000e+00
1.832059e+02,0.000000e+00
1.860986e+02,0.000000e+00
1.889913e+02,0.000000e+00
1.918840e+02,0.000000e+00
1.947767e+02,0.000000e+00
1.976694e+02,0.000000e+00
2.005621e+02,1.558160e+03
2.034548e+02,1.574844e+03
2.063475e+02,1.570426e+03
2.092402e+02,1.566961e+03
2.121329e+02,1.567992e+03
2.150256e+02,1.583542e+03
2.179183e+02,1.571205e+03
2.208110e+02,1.577395e+03
2.237037e+02,1.582217e+03
2.265964e+02,1.579243e+03
2.294892e+02,1.572051e+03
2.323819e+02,1.581803e+03
2.352746e+02,1.591446e+03
2.381673e+02,1.584643e+03
2.410600e+02,1.574386e+03
2.439527e+02,1.590787e+03
2.468454e+02,1.594336e+03
2.497381e+02,1.592563e+03
2.526308e+02,1.600412e+03
2.555235e+02,1.596469e+03
2.584161e+02,1.595440e+03
2.613088e+02,1.587797e+03
2.642015e+02,1.602486e+03
2.670942e+02,1.605926e+03
2.699869e+02,1.608283e+03
2.728796e+02,1.609987e+03
2.757723e+02,1.604915e+03
2.786650e+02,1.618355e+03
2.815577e+02,1.607157e+03
2.844504e+02,1.616381e+03
2.873431e+02,1.616029e+03
2.902358e+02,1.613042e+03
2.931285e+02,1.607836e+03
2.960212e+02,1.614685e+03
2.989139e+02,1.618441e+03
3.018066e+02,1.616525e+03
3.046993e+02,1.613700e+03
3.075920e+02,1.605717e+03
3.104847e+02,1.614073e+03
3.133774e+02,1.625736e+03
3.162701e+02,1.619132e+03
3.191628e+02,1.626717e+03
3.220555e+02,1.615542e+03
3.249482e+02,1.635661e+03
3.278409e+02,1.625924e+03
3.307336e+02,1.627365e+03
3.336263e+02,1.620867e+03
3.365190e+02,1.614996e+03
3.394117e+02,1.617189e+03
3.423044e+02,1.619716e+03
3.451971e+02,1.636650e+03
3.480898e+02,1.624611e+03
3.509825e+02,1.626828e+03
3.538752e+02,1.628289e+03
3.567680e+02,1.637580e+03
3.596607e+02,1.633623e+03
3.625534e+02,1.635983e+03
3.654461e+02,1.632457e+03
3.683388e+02,1.621667e+03
3.712315e+02,1.640939e+03
3.741242e+02,1.651985e+03
3.770169e+02,1.659422e+03
3.799096e+02,1.645864e+03
3.828023e+02,1.638096e+03
3.856950e+02,1.631175e+03
3.885877e+02,1.620206e+03
3.914804e+02,1.624195e+03
3.943731e+02,1.625867e+03
3.972658e+02,1.614190e+03
4.001585e+02,1.618607e+03
4.030512e+02,1.623781e+03
4.059439e+02,1.614087e+03
4.088366e+02,1.612966e+03
4.117293e+02,1.622443e+03
4.146220e+02,1.631353e+03
4.175147e+02,1.624764e+03
4.204074e+02,1.627911e+03
4.233001e+02,1.622468e+03
4.261928e+02,1.623100e+03
4.290855e+02,1.619387e+03
4.319782e+02,1.629295e+03
4.348709e+02,1.644931e+03
4.377636e+02,1.627087e+03
4.406563e+02,1.614928e+03
4.435490e+02,1.625920e+03
4.464417e+02,1.623958e+03
4.493344e+02,1.606076e+03
4.522271e+02,1.621930e+03
4.551198e+02,1.619574e+03
4.580125e+02,1.618342e+03
4.609052e+02,1.611249e+03
4.637979e+02,1.616146e+03
4.666906e+02,1.602819e+03
4.695833e+02,1.606254e+03
4.724760e+02,1.609074e+03
4.753687e+02,1.614125e+03
4.782614e+02,1.602625e+03
4.811541e+02,1.610815e+03
4.840468e+02,1.616143e+03
4.869395e+02,1.611290e+03
4.898322e+02,1.601428e+03
4.927249e+02,1.607511e+03
4.956176e+02,1.613666e+03
4.985103e+02,1.598364e+03
5.014030e+02,1.604931e+03
5.042957e+02,1.598380e+03
5.071884e+02,1.599610e+03
5.100811e+02,1.585005e+03
5.129738e+02,1.601745e+03
5.158665e+02,1.609827e+03
5.187592e+02,1.606220e+03
5.216519e+02,1.602565e+03
5.245446e+02,1.595834e+03
5.274373e+02,1.592355e+03
5.303300e+02,1.595121e+03
5.332227e+02,1.587858e+03
5.361154e+02,1.581233e+03
5.390081e+02,1.575258e+03
5.419008e+02,1.585555e+03
5.447935e+02,1.581617e+03
5.476862e+02,1.580176e+03
5.505789e+02,1.577737e+03
5.534716e+02,1.577090e+03
5.563643e+02,1.576194e+03
5.592570e+02,1.573291e+03
5.621497e+02,1.578750e+03
5.650424e+02,1.577061e+03
5.679351e+02,1.574325e+03
5.708278e+02,1.569917e+03
5.737205e+02,1.565820e+03
5.766132e+02,1.563072e+03
5.795059e+02,1.577823e+03
5.823986e+02,1.562841e+03
5.852913e+02,1.558688e+03
5.881840e+02,1.562097e+03
5.910767e+02,1.552925e+03
5.939694e+02,1.564146e+03
5.968621e+02,1.560393e+03
5.997548e+02,1.562459e+03
6.026475e+02,1.562075e+03
6.055402e+02,1.559503e+03
6.084329e+02,1.545756e+03
6.113256e+02,1.570167e+03
6.142183e+02,1.555036e+03
6.171110e+02,1.551915e+03
6.200037e+02,1.541204e+03
6.228964e+02,1.542877e+03
6.257891e+02,1.535481e+03
6.286818e+02,1.543392e+03
6.315745e+02,1.543260e+03
6.344672e+02,1.541634e+03
6.373599e+02,1.541314e+03
6.402526e+02,1.538259e+03
6.431453e+02,1.535891e+03
6.460380e+02,1.529143e+03
6.489307e+02,1.539671e+03
6.518234e+02,1.540980e+03
6.547161e+02,1.526881e+03
6.576088e+02,1.537453e+03
6.605015e+02,1.523499e+03
6.633942e+02,1.512809e+03
6.662869e+02,1.536066e+03
6.691796e+02,1.535348e+03
6.720723e+02,1.529359e+03
6.749650e+02,1.512203e+03
6.778577e+02,1.510084e+03
6.807504e+02,1.518885e+03
6.836431e+02,1.511393e+03
6.865358e+02,1.507021e+03
6.894285e+02,1.502730e+03
6.923212e+02,1.517680e+03
6.952139e+02,1.500947e+03
6.981066e+02,1.495207e+03
7.009993e+02,1.505915e+03
7.038920e+02,1.510294e+03
7.067847e+02,1.499843e+03
7.096774e+02,1.495374e+03
7.125701e+02,1.507157e+03
7.154628e+02,1.482232e+03
7.183555e+02,1.482406e+03
7.212482e+02,1.487666e+03
7.241409e+02,1.481521e+03
7.270336e+02,1.484328e+03
7.299263e+02,1.471516e+03
7.328190e+02,1.472653e+03
7.357117e+02,1.463918e+03
7.386044e+02,1.473318e+03
7.414971e+02,1.477615e+03
7.443898e+02,1.474149e+03
7.472825e+02,1.476701e+03
7.501752e+02,1.472362e+03
7.530679e+02,1.466419e+03
7.559606e+02,1.459724e+03
7.588533e+02,1.465983e+03
7.617460e+02,1.459210e+03
7.646387e+02,1.456572e+03
7.675314e+02,1.448499e+03
7.704241e+02,1.453516e+03
7.733168e+02,1.442164e+03
7.762095e+02,1.446998e+03
7.791022e+02,1.440557e+03
7.819949e+02,1.446669e+03
7.848876e+02,1.436851e+03
7.877803e+02,1.443407e+03
7.906730e+02,1.446368e+03
7.935657e+02,1.436752e+03
7.964584e+02,1.434719e+03
7.993511e+02,1.443621e+03
8.022438e+02,1.432387e+03
8.051365e+02,1.429029e+03
8.080292e+02,1.438375e+03
8.109219e+02,1.430828e+03
8.138146e+02,1.425110e+03
8.167073e+02,1.414713e+03
8.196000e+02,1.414852e+03
8.224927e+02,1.419629e+03
8.253854e+02,1.422031e+03
8.282781e+02,1.412923e+03
8.311708e+02,1.407995e+03
8.340635e+02,1.417780e+03
8.369562e+02,1.408761e+03
8.398489e+02,1.406787e+03
8.427416e+02,1.412803e+03
8.456343e+02,1.399210e+03
8.485270e+02,1.405967e+03
8.514197e+02,1.390884e+03
8.543124e+02,1.389277e+03
8.572051e+02,1.391052e+03
8.600978e+02,1.386848e+03
8.629905e+02,1.390872e+03
8.658832e+02,1.381463e+03
8.687759e+02,1.385962e+03
8.716686e+02,1.379632e+03
8.745613e+02,1.385351e+03
8.774540e+02,1.397464e+03
8.803467e+02,1.381083e+03
8.832394e+02,1.387060e+03
8.861321e+02,1.396237e+03
8.890248e+02,1.376568e+03
8.919175e+02,1.379377e+03
8.948102e+02,1.374488e+03
8.977029e+02,1.367039e+03
9.005956e+02,1.370889e+03
9.034883e+02,1.360093e+03
9.063810e+02,1.358778e+03
9.092737e+02,1.359242e+03
9.121664e+02,1.351141e+03
9.150591e+02,1.357422e+03
9.179518e+02,1.358362e+03
9.208445e+02,1.357078e+03
9.237372e+02,1.349353e+03
9.266299e+02,1.337897e+03
9.295226e+02,1.348557e+03
9.324153e+02,1.335257e+03
9.353080e+02,1.336336e+03
9.382007e+02,1.328504e+03
9.410934e+02,1.325006e+03
9.439861e+02,1.331644e+03
9.468788e+02,1.330435e+03
9.497715e+02,1.322139e+03
9.526642e+02,1.317931e+03
9.555569e+02,1.324353e+03
9.584496e+02,1.318578e+03
9.613423e+02,1.312616e+03
9.642350e+02,1.322466e+03
9.671277e+02,1.318867e+03
9.700204e+02,1.314565e+03
9.729131e+02,1.314045e+03
9.758058e+02,1.306859e+03
9.786985e+02,1.308341e+03
9.815912e+02,1.312666e+03
9.844839e+02,1.300572e+03
9.873766e+02,1.307945e+03
9.902693e+02,1.295664e+03
9.931620e+02,1.292593e+03
9.960547e+02,1.292141e+03
9.989474e+02,1.293982e+03
1.001840e+03,1.292074e+03
1.004733e+03,1.282719e+03
1.007626e+03,1.290129e+03
1.010518e+03,1.280812e+03
1.013411e+03,1.282836e+03
1.016304e+03,1.283809e+03
1.019196e+03,1.286391e+03
1.022089e+03,1.292073e+03
1.024982e+03,1.274667e+03
1.027875e+03,1.282172e+03
1.030767e+03,1.271809e+03
1.033660e+03,1.273459e+03
1.036552e+03,1.270474e+03
1.039445e+03,1.275199e+03
1.042338e+03,1.268263e+03
1.045231e+03,1.274944e+03
1.048123e+03,1.271907e+03
1.051016e+03,1.263157e+03
1.053909e+03,1.272146e+03
1.056802e+03,1.264373e+03
1.059694e+03,1.264739e+03
1.062587e+03,1.261262e+03
1.065479e+03,1.267389e+03
1.068372e+03,1.258746e+03
1.071265e+03,1.254822e+03
1.074158e+03,1.264976e+03
1.077050e+03,1.250482e+03
1.079943e+03,1.259859e+03
1.082836e+03,1.263174e+03
1.085729e+03,1.262156e+03
1.088621e+03,1.288983e+03
1.091514e+03,1.280021e+03
1.094406e+03,1.286198e+03
1.097299e+03,1.270653e+03
1.100192e+03,1.258375e+03
1.103085e+03,1.250282e+03
1.105977e+03,1.255281e+03
1.108870e+03,1.253313e+03
1.111763e+03,1.242914e+03
1.114656e+03,1.252397e+03
1.117548e+03,1.263564e+03
1.120441e+03,1.267318e+03
1.123334e+03,1.248084e+03
1.126226e+03,1.234051e+03
1.129119e+03,1.231682e+03
1.132012e+03,1.226462e+03
1.134904e+03,1.219972e+03
1.137797e+03,1.224664e+03
1.140690e+03,1.218029e+03
1.143583e+03,1.216845e+03
1.146475e+03,1.215088e+03
1.149368e+03,1.220406e+03
1.152261e+03,1.211446e+03
1.155153e+03,1.209915e+03
1.158046e+03,1.212253e+03
1.160939e+03,1.198793e+03
1.163831e+03,1.200388e+03
1.166724e+03,1.195344e+03
1.169617e+03,1.186425e+03
1.172510e+03,1.198287e+03
1.175402e+03,1.195382e+03
1.178295e+03,1.181490e+03
1.181188e+03,1.188850e+03
1.184080e+03,1.187038e+03
1.186973e+03,1.193373e+03
1.189866e+03,1.176739e+03
1.192758e+03,1.180455e+03
1.195651e+03,1.181904e+03
1.198544e+03,1.180248e+03
1.201437e+03,1.168045e+03
1.204329e+03,1.174958e+03
1.207222e+03,1.170523e+03
1.210115e+03,1.171145e+03
1.213007e+03,1.165823e+03
1.215900e+03,1.169062e+03
1.218793e+03,1.173448e+03
1.221685e+03,1.168461e+03
1.224578e+03,1.166193e+03
1.227471e+03,1.165577e+03
1.230364e+03,1.163835e+03
1.233256e+03,1.159418e+03
1.236149e+03,1.154827e+03
1.239042e+03,1.157665e+03
1.241934e+03,1.161298e+03
1.244827e+03,1.162945e+03
1.247720e+03,1.144296e+03
1.250612e+03,1.155232e+03
1.253505e+03,1.150138e+03
1.256398e+03,1.152628e+03
1.259291e+03,1.147990e+03
1.262183e+03,1.147337e+03
1.265076e+03,1.147908e+03
1.267969e+03,1.144783e+03
1.270861e+03,1.155402e+03
1.273754e+03,1.145789e+03
1.276647e+03,1.155009e+03
1.279539e+03,1.146874e+03
1.282432e+03,1.143468e+03
1.285325e+03,1.132804e+03
1.288218e+03,1.149790e+03
1.291110e+03,1.141587e+03
1.294003e+03,1.137366e+03
1.296896e+03,1.140382e+03
1.299788e+03,1.125125e+03
1.302681e+03,1.136867e+03
1.305574e+03,1.130235e+03
1.308466e+03,1.122401e+03
1.311359e+03,1.126247e+03
1.314252e+03,1.130328e+03
1.317145e+03,1.136160e+03
1.320037e+03,1.134910e+03
1.322930e+03,1.133481e+03
1.325823e+03,1.133099e+03
1.328715e+03,1.141573e+03
1.331608e+03,1.128018e+03
1.334501e+03,1.129546e+03
1.337393e+03,1.129310e+03
1.340286e+03,1.122661e+03
1.343179e+03,1.120741e+03
1.346072e+03,1.125081e+03
1.348964e+03,1.119067e+03
1.351857e+03,1.123132e+03
1.354750e+03,1.125134e+03
1.357642e+03,1.107533e+03
1.360535e+03,1.109576e+03
1.363428e+03,1.111145e+03
1.366320e+03,1.118234e+03
1.369213e+03,1.117953e+03
1.372106e+03,1.110414e+03
1.374999e+03,1.117156e+03
1.377891e+03,1.115375e+03
1.380784e+03,1.106354e+03
1.383677e+03,1.107531e+03
1.386569e+03,1.104168e+03
1.389462e+03,1.092210e+03
1.392355e+03,1.089104e+03
1.395247e+03,1.083151e+03
1.398140e+03,1.097034e+03
1.401033e+03,1.095000e+03
1.403926e+03,1.094998e+03
1.406818e+03,1.088584e+03
1.409711e+03,1.094796e+03
1.412604e+03,1.092231e+03
1.415496e+03,1.088152e+03
1.418389e+03,1.086420e+03
1.421282e+03,1.081908e+03
1.424174e+03,1.074883e+03
1.427067e+03,1.078052e+03
1.429960e+03,1.076062e+03
1.432853e+03,1.066369e+03
1.435745e+03,1.079658e+03
1.438638e+03,1.063384e+03
1.441531e+03,1.066711e+03
1.444423e+03,1.070274e+03
1.447316e+03,1.066582e+03
1.450209e+03,1.068510e+03
1.453101e+03,1.066835e+03
1.455994e+03,1.058499e+03
1.458887e+03,1.063699e+03
1.461780e+03,1.066772e+03
1.464672e+03,1.061159e+03
1.467565e+03,1.061248e+03
1.470458e+03,1.059647e+03
1.473350e+03,1.052350e+03
1.476243e+03,1.052784e+03
1.479136e+03,1.053097e+03
1.482028e+03,1.042929e+03
1.484921e+03,1.051842e+03
1.487814e+03,1.034239e+03
1.490707e+03,1.029534e+03
1.493599e+03,1.037643e+03
1.496492e+03,1.034027e+03
1.499385e+03,1.035787e+03
1.502277e+03,1.033275e+03
1.505170e+03,1.036203e+03
1.508063e+03,1.041606e+03
1.510955e+03,1.032255e+03
1.513848e+03,1.026458e+03
1.516741e+03,1.017450e+03
1.519634e+03,1.023297e+03
1.522526e+03,1.018903e+03
1.525419e+03,1.016225e+03
1.528312e+03,1.022551e+03
1.531204e+03,1.018953e+03
1.534097e+03,1.011958e+03
1.536990e+03,1.017121e+03
1.539882e+03,1.018084e+03
1.542775e+03,1.011081e+03
1.545668e+03,1.014852e+03
1.548561e+03,1.011451e+03
1.551453e+03,1.003416e+03
1.554346e+03,1.012363e+03
1.557239e+03,1.008067e+03
1.560131e+03,1.012944e+03
1.563024e+03,1.013395e+03
1.565917e+03,1.007160e+03
1.568809e+03,1.011588e+03
1.571702e+03,9.997448e+02
1.574595e+03,9.989360e+02
1.577488e+03,1.001054e+03
1.580380e+03,1.005617e+03
1.583273e+03,1.000403e+03
1.586166e+03,9.948773e+02
1.589058e+03,9.938320e+02
1.591951e+03,9.945328e+02
1.594844e+03,9.785860e+02
1.597736e+03,9.955381e+02
1.600629e+03,9.886824e+02
1.603522e+03,9.975651e+02
1.606415e+03,9.829013e+02
1.609307e+03,9.829280e+02
1.612200e+03,9.736002e+02
1.615093e+03,9.787565e+02
1.617985e+03,9.796136e+02
1.620878e+03,9.735214e+02
1.623771e+03,9.711679e+02
1.626663e+03,9.666174e+02
1.629556e+03,9.701531e+02
1.632449e+03,9.708712e+02
1.635342e+03,9.596896e+02
1.638234e+03,9.524783e+02
1.641127e+03,9.547084e+02
1.644020e+03,9.666732e+02
1.646912e+03,9.702879e+02
1.649805e+03,9.498507e+02
1.652698e+03,9.438942e+02
1.655590e+03,9.492781e+02
1.658483e+03,9.501315e+02
1.661376e+03,9.531656e+02
1.664269e+03,9.405666e+02
1.667161e+03,9.487035e+02
1.670054e+03,9.375591e+02
1.672947e+03,9.326023e+02
1.675839e+03,9.290697e+02
1.678732e+03,9.381635e+02
1.681625e+03,9.325974e+02
1.684517e+03,9.273168e+02
1.687410e+03,9.316635e+02
1.690303e+03,9.337966e+02
1.693196e+03,9.194883e+02
1.696088e+03,9.263531e+02
1.698981e+03,9.234284e+02
1.701874e+03,9.185497e+02
1.704766e+03,9.263148e+02
1.707659e+03,9.218915e+02
1.710552e+03,9.188914e+02
1.713444e+03,9.081487e+02
1.716337e+03,9.264726e+02
1.719230e+03,9.111418e+02
1.722123e+03,9.022324e+02
1.725015e+03,8.971863e+02
1.727908e+03,8.994650e+02
1.730801e+03,9.044502e+02
1.733693e+03,8.990159e+02
1.736586e+03,8.971896e+02
1.739479e+03,9.020742e+02
1.742371e+03,9.013269e+02
1.745264e+03,8.983113e+02
1.748157e+03,8.883422e+02
1.751050e+03,8.933353e+02
1.753942e+03,8.944029e+02
1.756835e+03,8.986880e+02
1.759728e+03,8.762102e+02
1.762620e+03,8.919152e+02
1.765513e+03,8.831999e+02
1.768406e+03,8.795610e+02
1.771298e+03,8.719684e+02
1.774191e+03,8.851676e+02
1.777084e+03,8.726430e+02
1.779977e+03,8.692227e+02
1.782869e+03,8.775443e+02
1.785762e+03,8.706766e+02
1.788655e+03,8.597782e+02
1.791547e+03,8.642232e+02
1.794440e+03,8.671847e+02
1.797333e+03,8.527523e+02
1.800225e+03,8.578755e+02
1.803118e+03,8.657429e+02
1.806011e+03,8.536990e+02
1.808904e+03,8.541664e+02
1.811796e+03,8.589739e+02
1.814689e+03,8.570387e+02
1.817582e+03,8.530202e+02
1.820474e+03,8.392459e+02
1.823367e+03,8.321160e+02
1.826260e+03,8.485560e+02
1.829152e+03,8.411828e+02
1.832045e+03,8.382792e+02
1.834938e+03,8.341296e+02
1.837831e+03,8.327240e+02
1.840723e+03,8.214995e+02
1.843616e+03,8.320762e+02
1.846509e+03,8.292185e+02
1.849401e+03,8.229882e+02
1.852294e+03,8.309650e+02
1.855187e+03,8.207828e+02
1.858079e+03,8.208496e+02
1.860972e+03,8.230201e+02
1.863865e+03,8.246016e+02
1.866758e+03,8.090600e+02
1.869650e+03,8.139280e+02
1.872543e+03,8.092211e+02
1.875436e+03,8.172512e+02
1.878328e+03,8.053516e+02
1.881221e+03,8.052138e+02
1.884114e+03,8.059617e+02
1.887006e+03,8.011853e+02
1.889899e+03,8.035527e+02
1.892792e+03,7.983660e+02
1.895685e+03,7.953293e+02
1.898577e+03,7.805018e+02
1.901470e+03,7.848031e+02
1.904363e+03,7.871795e+02
1.907255e+03,7.835435e+02
1.910148e+03,7.994270e+02
1.913041e+03,7.936937e+02
1.915933e+03,7.835548e+02
1.918826e+03,7.756215e+02
1.921719e+03,7.796765e+02
1.924612e+03,7.773345e+02
1.927504e+03,7.786682e+02
1.930397e+03,7.763352e+02
1.933290e+03,7.528471e+02
1.936182e+03,7.638239e+02
1.939075e+03,7.705361e+02
1.941968e+03,7.706837e+02
1.944860e+03,7.565285e+02
1.947753e+03,7.674453e+02
1.950646e+03,7.522629e+02
1.953539e+03,7.657830e+02
1.956431e+03,7.631956e+02
1.959324e+03,7.592836e+02
1.962217e+03,7.444454e+02
1.965109e+03,7.461456e+02
1.968002e+03,7.550788e+02
1.970895e+03,7.418962e+02
1.973787e+03,7.525145e+02
1.976680e+03,7.462064e+02
1.979573e+03,7.411687e+02
1.982466e+03,7.363351e+02
1.985358e+03,7.379571e+02
1.988251e+03,7.327458e+02
1.991144e+03,7.262592e+02
1.994036e+03,7.277662e+02
1.996929e+03,7.365042e+02
1.999822e+03,7.335127e+02
2.002714e+03,7.300717e+02
2.005607e+03,7.243428e+02
2.008500e+03,7.210959e+02
2.011393e+03,7.236904e+02
2.014285e+03,7.147616e+02
2.017178e+03,7.215896e+02
2.020071e+03,7.151635e+02
2.022963e+03,7.156642e+02
2.025856e+03,7.011078e+02
2.028749e+03,7.062794e+02
2.031641e+03,7.058012e+02
2.034534e+03,7.009219e+02
2.037427e+03,6.964439e+02
2.040320e+03,6.945866e+02
2.043212e+03,7.017566e+02
2.046105e+03,7.094893e+02
2.048998e+03,6.949836e+02
2.051890e+03,6.868445e+02
2.054783e+03,6.845673e+02
2.057676e+03,6.840571e+02
2.060568e+03,6.860799e+02
2.063461e+03,6.778293e+02
2.066354e+03,6.723777e+02
2.069247e+03,6.885307e+02
2.072139e+03,6.682747e+02
2.075032e+03,6.766514e+02
2.077925e+03,6.826951e+02
2.080817e+03,6.671306e+02
2.083710e+03,6.774963e+02
2.086603e+03,6.657215e+02
2.089496e+03,6.563893e+02
2.092388e+03,6.621709e+02
2.095281e+03,6.672554e+02
2.098174e+03,6.688516e+02
2.101066e+03,6.523314e+02
2.103959e+03,6.541571e+02
2.106852e+03,6.511464e+02
2.109744e+03,6.620886e+02
2.112637e+03,6.476207e+02
2.115530e+03,6.499171e+02
2.118422e+03,6.466821e+02
2.121315e+03,6.491945e+02
2.124208e+03,6.397839e+02
2.127101e+03,6.436927e+02
2.129993e+03,6.391514e+02
2.132886e+03,6.340235e+02
2.135779e+03,6.334128e+02
2.138671e+03,6.243717e+02
2.141564e+03,6.269069e+02
2.144457e+03,6.357800e+02
2.147350e+03,6.216847e+02
2.150242e+03,6.324871e+02
2.153135e+03,6.293177e+02
2.156028e+03,6.202693e+02
2.158920e+03,6.151851e+02
2.161813e+03,6.260906e+02
2.164706e+03,6.073557e+02
2.167598e+03,6.076080e+02
2.170491e+03,6.095965e+02
2.173384e+03,6.138338e+02
2.176277e+03,6.167055e+02
2.179169e+03,6.011800e+02
2.182062e+03,6.150187e+02
2.184955e+03,6.030324e+02
2.187847e+03,6.060626e+02
2.190740e+03,6.064273e+02
2.193633e+03,6.029844e+02
2.196525e+03,5.970446e+02
2.199418e+03,5.991746e+02
2.202311e+03,5.971003e+02
2.205204e+03,6.061531e+02
2.208096e+03,5.927908e+02
2.210989e+03,5.859053e+02
2.213882e+03,5.850013e+02
2.216774e+03,5.793241e+02
2.219667e+03,5.788812e+02
2.222560e+03,5.773285e+02
2.225452e+03,5.799774e+02
2.228345e+03,5.706992e+02
2.231238e+03,5.809310e+02
2.234131e+03,5.710533e+02
2.237023e+03,5.743090e+02
2.239916e+03,5.783815e+02
2.242809e+03,5.652639e+02
2.245701e+03,5.692771e+02
2.248594e+03,5.661503e+02
2.251487e+03,5.671522e+02
2.254379e+03,5.521567e+02
2.257272e+03,5.671398e+02
2.260165e+03,5.658738e+02
2.263058e+03,5.631384e+02
2.265950e+03,5.559028e+02
2.268843e+03,5.573953e+02
2.271736e+03,5.473649e+02
2.274628e+03,5.459367e+02
2.277521e+03,5.488744e+02
2.280414e+03,5.525410e+02
2.283306e+03,5.563271e+02
2.286199e+03,5.306496e+02
2.289092e+03,5.458642e+02
2.291985e+03,5.285416e+02
2.294877e+03,5.341582e+02
2.297770e+03,5.440923e+02
2.300663e+03,5.324354e+02
2.303555e+03,5.390222e+02
2.306448e+03,5.275634e+02
2.309341e+03,5.333155e+02
2.312233e+03,5.336214e+02
2.315126e+03,5.261995e+02
2.318019e+03,5.146532e+02
2.320912e+03,5.178167e+02
2.323804e+03,5.243046e+02
2.326697e+03,5.254700e+02
2.329590e+03,5.365663e+02
2.332482e+03,5.227555e+02
2.335375e+03,5.146003e+02
2.338268e+03,5.275468e+02
2.341160e+03,5.157162e+02
2.344053e+03,5.248388e+02
2.346946e+03,5.070176e+02
2.349839e+03,5.192957e+02
2.352731e+03,5.120901e+02
2.355624e+03,4.992902e+02
2.358517e+03,5.107985e+02
2.361409e+03,5.097304e+02
2.364302e+03,5.009682e+02
2.367195e+03,4.979731e+02
2.370087e+03,5.012186e+02
2.372980e+03,4.975585e+02
2.375873e+03,4.922965e+02
2.378766e+03,4.981898e+02
2.381658e+03,4.763377e+02
2.384551e+03,4.966666e+02
2.387444e+03,4.979530e+02
2.390336e+03,4.927700e+02
2.393229e+03,4.918565e+02
2.396122e+03,4.842923e+02
2.399014e+03,4.843297e+02
2.401907e+03,4.945672e+02
2.404800e+03,4.823651e+02
2.407693e+03,4.765984e+02
2.410585e+03,4.848022e+02
2.413478e+03,4.824111e+02
2.416371e+03,4.864006e+02
2.419263e+03,4.751769e+02
2.422156e+03,4.881616e+02
2.425049e+03,4.750299e+02
2.427941e+03,4.760624e+02
2.430834e+03,4.660166e+02
2.433727e+03,4.747012e+02
2.436620e+03,4.700560e+02
2.439512e+03,4.697818e+02
2.442405e+03,4.689428e+02
2.445298e+03,4.578875e+02
2.448190e+03,4.613349e+02
2.451083e+03,4.628188e+02
2.453976e+03,4.600110e+02
2.456868e+03,4.579368e+02
2.459761e+03,4.658725e+02
2.462654e+03,4.557319e+02
2.465547e+03,4.490598e+02
2.468439e+03,4.544576e+02
2.471332e+03,4.535735e+02
2.474225e+03,4.433454e+02
2.477117e+03,4.581944e+02
2.480010e+03,4.542316e+02
2.482903e+03,4.582855e+02
2.485795e+03,4.506905e+02
2.488688e+03,4.530513e+02
2.491581e+03,4.502124e+02
2.494474e+03,4.491619e+02
2.497366e+03,4.470988e+02
2.500259e+03,4.500592e+02
2.503152e+03,4.509265e+02
2.506044e+03,4.365685e+02
2.508937e+03,4.434800e+02
2.511830e+03,4.442470e+02
2.514722e+03,4.380055e+02
2.517615e+03,4.389908e+02
2.520508e+03,4.480914e+02
2.523401e+03,4.346652e+02
2.526293e+03,4.345307e+02
2.529186e+03,4.342058e+02
2.532079e+03,4.372916e+02
2.534971e+03,4.248587e+02
2.537864e+03,4.288073e+02
2.540757e+03,4.379428e+02
2.543649e+03,4.423104e+02
2.546542e+03,4.515963e+02
2.549435e+03,4.422541e+02
2.552328e+03,4.286182e+02
2.555220e+03,4.369951e+02
2.558113e+03,4.244111e+02
2.561006e+03,4.357859e+02
2.563898e+03,4.249067e+02
2.566791e+03,4.178141e+02
2.569684e+03,4.274694e+02
2.572576e+03,4.228820e+02
2.575469e+03,4.345511e+02
2.578362e+03,4.229919e+02
2.581255e+03,4.160951e+02
2.584147e+03,4.116424e+02
2.587040e+03,4.162688e+02
2.589933e+03,4.214550e+02
2.592825e+03,4.037451e+02
2.595718e+03,4.084588e+02
2.598611e+03,4.068511e+02
2.601503e+03,4.103447e+02
2.604396e+03,4.130804e+02
2.607289e+03,4.112076e+02
2.610182e+03,3.992278e+02
2.613074e+03,3.946246e+02
2.615967e+03,4.064058e+02
2.618860e+03,4.059217e+02
2.621752e+03,4.046770e+02
2.624645e+03,4.053472e+02
2.627538e+03,4.080593e+02
2.630430e+03,4.056381e+02
2.633323e+03,4.102430e+02
2.636216e+03,3.912508e+02
2.639109e+03,3.966162e+02
2.642001e+03,4.106297e+02
2.644894e+03,3.949995e+02
2.647787e+03,4.074014e+02
2.650679e+03,3.939888e+02
2.653572e+03,4.085877e+02
2.656465e+03,3.982608e+02
2.659357e+03,3.830444e+02
2.662250e+03,3.922690e+02
2.665143e+03,3.879172e+02
2.668036e+03,3.878826e+02
2.670928e+03,4.058841e+02
2.673821e+03,3.964839e+02
2.676714e+03,3.741483e+02
2.679606e+03,3.883774e+02
2.682499e+03,3.946850e+02
2.685392e+03,3.813293e+02
2.688284e+03,3.897800e+02
2.691177e+03,3.871447e+02
2.694070e+03,3.833830e+02
2.696963e+03,3.826470e+02
2.699855e+03,3.958534e+02
2.702748e+03,3.739058e+02
2.705641e+03,3.928340e+02
2.708533e+03,3.806342e+02
2.711426e+03,3.739959e+02
2.714319e+03,3.869767e+02
2.717211e+03,3.873468e+02
2.720104e+03,3.797899e+02
2.722997e+03,3.837877e+02
2.725890e+03,3.722498e+02
2.728782e+03,3.837864e+02
2.731675e+03,3.631329e+02
2.734568e+03,3.767023e+02
2.737460e+03,3.671287e+02
2.740353e+03,3.704337e+02
2.743246e+03,3.761693e+02
2.746138e+03,3.767635e+02
2.749031e+03,3.669289e+02
2.751924e+03,3.678730e+02
2.754817e+03,3.632453e+02
2.757709e+03,3.669420e+02
2.760602e+03,3.676251e+02
2.763495e+03,3.561223e+02
2.766387e+03,3.684172e+02
2.769280e+03,3.675840e+02
2.772173e+03,3.633004e+02
2.775065e+03,3.620913e+02
2.777958e+03,3.531919e+02
2.780851e+03,3.606945e+02
2.783744e+03,3.639357e+02
2.786636e+03,3.689084e+02
2.789529e+03,3.681802e+02
2.792422e+03,3.700341e+02
2.795314e+03,3.396719e+02
2.798207e+03,3.706777e+02
2.801100e+03,3.667378e+02
2.803992e+03,3.454741e+02
2.806885e+03,3.642487e+02
2.809778e+03,3.577678e+02
2.812671e+03,3.779377e+02
2.815563e+03,3.530287e+02
2.818456e+03,3.393959e+02
2.821349e+03,3.471469e+02
2.824241e+03,3.470038e+02
2.827134e+03,3.562910e+02
2.830027e+03,3.608415e+02
2.832919e+03,3.495244e+02
2.835812e+03,3.558652e+02
2.838705e+03,3.672494e+02
2.841598e+03,3.599132e+02
2.844490e+03,3.591476e+02
2.847383e+03,3.500916e+02
2.850276e+03,3.738212e+02
2.853168e+03,3.592704e+02
2.856061e+03,3.761107e+02
2.858954e+03,3.764638e+02
2.861846e+03,3.571323e+02
2.864739e+03,3.730939e+02
2.867632e+03,3.768811e+02
2.870525e+03,3.627870e+02
2.873417e+03,3.720140e+02
2.876310e+03,3.630391e+02
2.879203e+03,3.767502e+02
2.882095e+03,3.712690e+02
2.884988e+03,3.781331e+02
2.887881e+03,3.944588e+02
2.890773e+03,3.753000e+02
2.893666e+03,3.815884e+02
2.896559e+03,3.701469e+02
2.899452e+03,3.973013e+02
2.902344e+03,3.860970e+02
2.905237e+03,3.731984e+02
2.908130e+03,3.795235e+02
2.911022e+03,3.747736e+02
2.913915e+03,3.609264e+02
2.916808e+03,3.635533e+02
2.919700e+03,3.660253e+02
2.922593e+03,3.550935e+02
2.925486e+03,3.622673e+02
2.928379e+03,3.619261e+02
2.931271e+03,3.434964e+02
2.934164e+03,3.560916e+02
2.937057e+03,3.518829e+02
2.939949e+03,3.467056e+02
2.942842e+03,3.348418e+02
2.945735e+03,3.389489e+02
2.948627e+03,3.366037e+02
2.951520e+03,3.567060e+02
2.954413e+03,3.286146e+02
2.957306e+03,3.700240e+02
2.960198e+03,3.655868e+02
2.963091e+03,3.313721e+02
2.965984e+03,3.481266e+02
2.968876e+03,3.444065e+02
2.971769e+03,3.414279e+02
2.974662e+03,3.359989e+02
2.977554e+03,3.388054e+02
2.980447e+03,3.295150e+02
2.983340e+03,3.330204e+02
2.986233e+03,3.348658e+02
2.989125e+03,3.313508e+02
2.992018e+03,3.278678e+02
2.994911e+03,3.150585e+02
2.997803e+03,3.179152e+02
3.000696e+03,3.414487e+02
3.003589e+03,3.014066e+02
3.006481e+03,3.308678e+02
3.009374e+03,3.111415e+02
3.012267e+03,3.138315e+02
3.015160e+03,3.206145e+02
3.018052e+03,3.073269e+02
3.020945e+03,3.147474e+02
3.023838e+03,3.000089e+02
3.026730e+03,3.119034e+02
3.029623e+03,3.186170e+02
3.032516e+03,3.118341e+02
3.035408e+03,2.847343e+02
3.038301e+03,3.256314e+02
3.041194e+03,2.840509e+02
3.044087e+03,3.219067e+02
3.046979e+03,3.134272e+02
3.049872e+03,3.078841e+02
3.052765e+03,3.010739e+02
3.055657e+03,3.139775e+02
3.058550e+03,3.132812e+02
3.061443e+03,3.026673e+02
3.064335e+03,3.083624e+02
3.067228e+03,3.000982e+02
3.070121e+03,3.112283e+02
3.073014e+03,2.820168e+02
3.075906e+03,3.119105e+02
3.078799e+03,3.070166e+02
3.081692e+03,3.070945e+02
3.084584e+03,2.815952e+02
3.087477e+03,2.918824e+02
3.090370e+03,3.331877e+02
3.093262e+03,2.757494e+02
3.096155e+03,3.365629e+02
3.099048e+03,3.186814e+02
3.101941e+03,3.048273e+02
3.104833e+03,2.992953e+02
3.107726e+03,2.794958e+02
3.110619e+03,3.127580e+02
3.113511e+03,3.094146e+02
3.116404e+03,3.274508e+02
3.119297e+03,3.149557e+02
3.122189e+03,3.028931e+02
3.125082e+03,3.238109e+02
3.127975e+03,3.211854e+02
3.130868e+03,3.334420e+02
3.133760e+03,3.117368e+02
3.136653e+03,2.932785e+02
3.139546e+03,2.934678e+02
3.142438e+03,3.295062e+02
3.145331e+03,2.929780e+02
3.148224e+03,3.294286e+02
3.151116e+03,2.861518e+02
3.154009e+03,3.180763e+02
3.156902e+03,3.025691e+02
3.159795e+03,2.652404e+02
3.162687e+03,2.957543e+02
3.165580e+03,3.334127e+02
3.168473e+03,3.027052e+02
3.171365e+03,3.053040e+02
3.174258e+03,3.278776e+02
3.177151e+03,3.080642e+02
3.180043e+03,3.346070e+02
3.182936e+03,3.253509e+02
3.185829e+03,3.139092e+02
3.188722e+03,3.186545e+02
3.191614e+03,3.305249e+02
3.194507e+03,3.381564e+02
3.197400e+03,2.962675e+02
3.200292e+03,3.645653e+02
3.203185e+03,0.000000e+00
3.206078e+03,0.000000e+00
3.208970e+03,0.000000e+00
3.211863e+03,0.000000e+00
3.214756e+03,0.000000e+00
3.217649e+03,0.000000e+00
3.220541e+03,0.000000e+00
3.223434e+03,0.000000e+00
3.226327e+03,0.000000e+00
3.229219e+03,0.000000e+00
3.232112e+03,0.000000e+00
3.235005e+03,0.000000e+00
3.237897e+03,0.000000e+00
3.240790e+03,0.000000e+00
3.243683e+03,0.000000e+00
3.246576e+03,0.000000e+00
3.249468e+03,0.000000e+00
3.252361e+03,0.000000e+00
3.255254e+03,0.000000e+00
3.258146e+03,0.000000e+00
3.261039e+03,0.000000e+00
3.263932e+03,0.000000e+00
3.266824e+03,0.000000e+00
3.269717e+03,0.000000e+00
3.272610e+03,0.000000e+00
3.275503e+03,0.000000e+00
3.278395e+03,0.000000e+00
3.281288e+03,0.000000e+00
3.284181e+03,0.000000e+00
3.287073e+03,0.000000e+00
3.289966e+03,0.000000e+00
3.292859e+03,0.000000e+00
3.295751e+03,0.000000e+00
3.298644e+03,0.000000e+00
3.301537e+03,0.000000e+00
3.304430e+03,0.000000e+00
3.307322e+03,0.000000e+00
3.310215e+03,0.000000e+00
3.313108e+03,0.000000e+00
3.316000e+03,0.000000e+00
3.318893e+03,0.000000e+00
3.321786e+03,0.000000e+00
3.324678e+03,0.000000e+00
3.327571e+03,0.000000e+00
3.330464e+03,0.000000e+00
3.333357e+03,0.000000e+00
3.336249e+03,0.000000e+00
3.339142e+03,0.000000e+00
3.342035e+03,0.000000e+00
3.344927e+03,0.000000e+00
3.347820e+03,0.000000e+00
3.350713e+03,0.000000e+00
3.353605e+03,0.000000e+00
3.356498e+03,0.000000e+00
3.359391e+03,0.000000e+00
3.362284e+03,0.000000e+00
3.365176e+03,0.000000e+00
3.368069e+03,0.000000e+00
3.370962e+03,0.000000e+00
3.373854e+03,0.000000e+00
3.376747e+03,0.000000e+00
3.379640e+03,0.000000e+00
3.382532e+03,0.000000e+00
3.385425e+03,0.000000e+00
3.388318e+03,0.000000e+00
3.391211e+03,0.000000e+00
3.394103e+03,0.000000e+00
3.396996e+03,0.000000e+00
3.399889e+03,0.000000e+00
3.402781e+03,0.000000e+00
3.405674e+03,0.000000e+00
3.408567e+03,0.000000e+00
3.411459e+03,0.000000e+00
3.414352e+03,0.000000e+00
3.417245e+03,0.000000e+00
3.420138e+03,0.000000e+00
3.423030e+03,0.000000e+00
3.425923e+03,0.000000e+00
3.428816e+03,0.000000e+00
3.431708e+03,0.000000e+00
3.434601e+03,0.000000e+00
3.437494e+03,0.000000e+00
3.440386e+03,0.000000e+00
3.443279e+03,0.000000e+00
3.446172e+03,0.000000e+00
3.449065e+03,0.000000e+00
3.451957e+03,0.000000e+00
3.454850e+03,0.000000e+00
3.457743e+03,0.000000e+00
3.460635e+03,0.000000e+00
3.463528e+03,0.000000e+00
3.466421e+03,0.000000e+00
3.469313e+03,0.000000e+00
3.472206e+03,0.000000e+00
3.475099e+03,0.000000e+00
3.477992e+03,0.000000e+00
3.480884e+03,0.000000e+00
3.483777e+03,0.000000e+00
3.486670e+03,0.000000e+00
3.489563e+03,0.000000e+00
3.492455e+03,0.000000e+00
3.495348e+03,0.000000e+00
3.498240e+03,0.000000e+00
3.500169e+03,0.000000e+00