File: RAMAN_data/14032024_r1/black fibre2.CSV
9.931763e+01,0.000000e+00
1.022103e+02,0.000000e+00
1.051030e+02,0.000000e+00
1.079957e+02,0.000000e+00
1.108884e+02,0.000000e+00
1.137811e+02,0.000000e+00
1.166738e+02,0.000000e+00
1.195665e+02,0.000000e+00
1.224592e+02,0.000000e+00
1.253519e+02,0.000000e+00
1.282446e+02,0.000000e+00
1.311373e+02,0.000000e+00
1.340300e+02,0.000000e+00
1.369227e+02,0.000000e+00
1.398154e+02,0.000000e+00
1.427081e+02,0.000000e+00
1.456008e+02,0.000000e+00
1.484935e+02,0.000000e+00
1.513862e+02,0.000000e+00
1.542789e+02,0.000000e+00
1.571716e+02,0.000000e+00
1.600643e+02,0.000000e+00
1.629570e+02,0.000000e+00
1.658497e+02,0.000000e+00
1.687424e+02,0.000000e+00
1.716351e+02,0.000000e+00
1.745278e+02,0.000000e+00
1.774205e+02,0.000000e+00
1.803132e+02,0.000000e+00
1.832059e+02,0.000000e+00
1.860986e+02,0.000000e+00
1.889913e+02,0.000000e+00
1.918840e+02,0.000000e+00
1.947767e+02,0.000000e+00
1.976694e+02,0.000000e+00
2.005621e+02,4.090015e+03
2.034548e+02,4.107752e+03
2.063475e+02,4.109879e+03
2.092402e+02,4.110763e+03
2.121329e+02,4.101132e+03
2.150256e+02,4.102411e+03
2.179183e+02,4.120410e+03
2.208110e+02,4.139912e+03
2.237037e+02,4.142592e+03
2.265964e+02,4.142580e+03
2.294892e+02,4.151674e+03
2.323819e+02,4.156929e+03
2.352746e+02,4.164587e+03
2.381673e+02,4.175166e+03
2.410600e+02,4.162132e+03
2.439527e+02,4.173453e+03
2.468454e+02,4.178049e+03
2.497381e+02,4.194596e+03
2.526308e+02,4.215517e+03
2.555235e+02,4.230601e+03
2.584161e+02,4.221213e+03
2.613088e+02,4.220656e+03
2.642015e+02,4.234426e+03
2.670942e+02,4.241755e+03
2.699869e+02,4.249276e+03
2.728796e+02,4.248626e+03
2.757723e+02,4.247511e+03
2.786650e+02,4.263722e+03
2.815577e+02,4.283044e+03
2.844504e+02,4.288180e+03
2.873431e+02,4.287770e+03
2.902358e+02,4.285048e+03
2.931285e+02,4.277934e+03
2.960212e+02,4.284309e+03
2.989139e+02,4.301951e+03
3.018066e+02,4.307498e+03
3.046993e+02,4.316004e+03
3.075920e+02,4.306122e+03
3.104847e+02,4.304991e+03
3.133774e+02,4.322023e+03
3.162701e+02,4.328004e+03
3.191628e+02,4.326917e+03
3.220555e+02,4.345682e+03
3.249482e+02,4.346563e+03
3.278409e+02,4.361703e+03
3.307336e+02,4.370679e+03
3.336263e+02,4.376108e+03
3.365190e+02,4.362276e+03
3.394117e+02,4.375381e+03
3.423044e+02,4.378930e+03
3.451971e+02,4.378506e+03
3.480898e+02,4.402121e+03
3.509825e+02,4.358768e+03
3.538752e+02,4.377925e+03
3.567680e+02,4.415761e+03
3.596607e+02,4.428545e+03
3.625534e+02,4.435615e+03
3.654461e+02,4.433141e+03
3.683388e+02,4.407583e+03
3.712315e+02,4.455153e+03
3.741242e+02,4.451857e+03
3.770169e+02,4.465185e+03
3.799096e+02,4.449552e+03
3.828023e+02,4.454861e+03
3.856950e+02,4.455670e+03
3.885877e+02,4.472530e+03
3.914804e+02,4.459819e+03
3.943731e+02,4.449622e+03
3.972658e+02,4.445110e+03
4.001585e+02,4.471203e+03
4.030512e+02,4.483255e+03
4.059439e+02,4.487795e+03
4.088366e+02,4.483606e+03
4.117293e+02,4.479292e+03
4.146220e+02,4.480958e+03
4.175147e+02,4.472295e+03
4.204074e+02,4.496358e+03
4.233001e+02,4.481405e+03
4.261928e+02,4.507450e+03
4.290855e+02,4.505140e+03
4.319782e+02,4.521939e+03
4.348709e+02,4.524266e+03
4.377636e+02,4.524085e+03
4.406563e+02,4.510812e+03
4.435490e+02,4.518921e+03
4.464417e+02,4.519671e+03
4.493344e+02,4.541665e+03
4.522271e+02,4.544037e+03
4.551198e+02,4.540381e+03
4.580125e+02,4.536850e+03
4.609052e+02,4.555087e+03
4.637979e+02,4.547862e+03
4.666906e+02,4.564740e+03
4.695833e+02,4.554175e+03
4.724760e+02,4.559747e+03
4.753687e+02,4.549704e+03
4.782614e+02,4.572287e+03
4.811541e+02,4.587596e+03
4.840468e+02,4.632037e+03
4.869395e+02,4.655902e+03
4.898322e+02,4.664034e+03
4.927249e+02,4.641545e+03
4.956176e+02,4.606877e+03
4.985103e+02,4.623690e+03
5.014030e+02,4.601404e+03
5.042957e+02,4.597883e+03
5.071884e+02,4.610430e+03
5.100811e+02,4.598973e+03
5.129738e+02,4.622292e+03
5.158665e+02,4.595750e+03
5.187592e+02,4.593577e+03
5.216519e+02,4.582219e+03
5.245446e+02,4.592007e+03
5.274373e+02,4.603024e+03
5.303300e+02,4.605115e+03
5.332227e+02,4.591145e+03
5.361154e+02,4.581312e+03
5.390081e+02,4.583750e+03
5.419008e+02,4.595226e+03
5.447935e+02,4.615415e+03
5.476862e+02,4.614591e+03
5.505789e+02,4.604850e+03
5.534716e+02,4.600004e+03
5.563643e+02,4.603768e+03
5.592570e+02,4.619249e+03
5.621497e+02,4.609510e+03
5.650424e+02,4.628393e+03
5.679351e+02,4.608562e+03
5.708278e+02,4.608099e+03
5.737205e+02,4.627175e+03
5.766132e+02,4.646556e+03
5.795059e+02,4.637124e+03
5.823986e+02,4.639585e+03
5.852913e+02,4.650796e+03
5.881840e+02,4.612360e+03
5.910767e+02,4.640328e+03
5.939694e+02,4.638891e+03
5.968621e+02,4.658948e+03
5.997548e+02,4.649462e+03
6.026475e+02,4.657876e+03
6.055402e+02,4.641919e+03
6.084329e+02,4.659817e+03
6.113256e+02,4.650349e+03
6.142183e+02,4.644291e+03
6.171110e+02,4.631698e+03
6.200037e+02,4.633341e+03
6.228964e+02,4.645559e+03
6.257891e+02,4.638807e+03
6.286818e+02,4.651003e+03
6.315745e+02,4.662980e+03
6.344672e+02,4.658833e+03
6.373599e+02,4.651722e+03
6.402526e+02,4.650617e+03
6.431453e+02,4.635977e+03
6.460380e+02,4.638842e+03
6.489307e+02,4.650465e+03
6.518234e+02,4.648447e+03
6.547161e+02,4.657417e+03
6.576088e+02,4.639391e+03
6.605015e+02,4.627942e+03
6.633942e+02,4.643335e+03
6.662869e+02,4.656561e+03
6.691796e+02,4.639218e+03
6.720723e+02,4.662750e+03
6.749650e+02,4.651663e+03
6.778577e+02,4.646991e+03
6.807504e+02,4.632998e+03
6.836431e+02,4.634452e+03
6.865358e+02,4.636280e+03
6.894285e+02,4.633681e+03
6.923212e+02,4.645998e+03
6.952139e+02,4.633903e+03
6.981066e+02,4.659200e+03
7.009993e+02,4.648686e+03
7.038920e+02,4.644873e+03
7.067847e+02,4.647725e+03
7.096774e+02,4.628086e+03
7.125701e+02,4.637796e+03
7.154628e+02,4.627104e+03
7.183555e+02,4.657627e+03
7.212482e+02,4.634979e+03
7.241409e+02,4.620153e+03
7.270336e+02,4.644993e+03
7.299263e+02,4.633475e+03
7.328190e+02,4.628137e+03
7.357117e+02,4.628057e+03
7.386044e+02,4.629899e+03
7.414971e+02,4.625207e+03
7.443898e+02,4.629374e+03
7.472825e+02,4.661917e+03
7.501752e+02,4.640436e+03
7.530679e+02,4.619431e+03
7.559606e+02,4.622564e+03
7.588533e+02,4.632211e+03
7.617460e+02,4.608714e+03
7.646387e+02,4.639793e+03
7.675314e+02,4.619793e+03
7.704241e+02,4.593367e+03
7.733168e+02,4.618744e+03
7.762095e+02,4.619465e+03
7.791022e+02,4.636114e+03
7.819949e+02,4.608743e+03
7.848876e+02,4.604480e+03
7.877803e+02,4.613374e+03
7.906730e+02,4.615782e+03
7.935657e+02,4.621330e+03
7.964584e+02,4.612420e+03
7.993511e+02,4.578907e+03
8.022438e+02,4.593339e+03
8.051365e+02,4.593649e+03
8.080292e+02,4.599756e+03
8.109219e+02,4.601435e+03
8.138146e+02,4.586111e+03
8.167073e+02,4.590375e+03
8.196000e+02,4.597579e+03
8.224927e+02,4.599376e+03
8.253854e+02,4.596343e+03
8.282781e+02,4.584771e+03
8.311708e+02,4.594362e+03
8.340635e+02,4.597638e+03
8.369562e+02,4.582852e+03
8.398489e+02,4.575434e+03
8.427416e+02,4.598122e+03
8.456343e+02,4.568209e+03
8.485270e+02,4.581248e+03
8.514197e+02,4.557397e+03
8.543124e+02,4.564141e+03
8.572051e+02,4.565081e+03
8.600978e+02,4.568318e+03
8.629905e+02,4.580187e+03
8.658832e+02,4.552174e+03
8.687759e+02,4.554183e+03
8.716686e+02,4.553504e+03
8.745613e+02,4.569398e+03
8.774540e+02,4.562635e+03
8.803467e+02,4.555821e+03
8.832394e+02,4.552479e+03
8.861321e+02,4.557780e+03
8.890248e+02,4.563487e+03
8.919175e+02,4.533399e+03
8.948102e+02,4.536196e+03
8.977029e+02,4.545146e+03
9.005956e+02,4.541297e+03
9.034883e+02,4.538077e+03
9.063810e+02,4.520928e+03
9.092737e+02,4.520008e+03
9.121664e+02,4.528727e+03
9.150591e+02,4.529237e+03
9.179518e+02,4.518824e+03
9.208445e+02,4.522183e+03
9.237372e+02,4.486534e+03
9.266299e+02,4.495061e+03
9.295226e+02,4.495635e+03
9.324153e+02,4.482503e+03
9.353080e+02,4.498805e+03
9.382007e+02,4.475724e+03
9.410934e+02,4.484884e+03
9.439861e+02,4.482132e+03
9.468788e+02,4.467240e+03
9.497715e+02,4.465766e+03
9.526642e+02,4.465065e+03
9.555569e+02,4.453588e+03
9.584496e+02,4.461104e+03
9.613423e+02,4.460881e+03
9.642350e+02,4.457676e+03
9.671277e+02,4.444332e+03
9.700204e+02,4.440405e+03
9.729131e+02,4.414361e+03
9.758058e+02,4.421302e+03
9.786985e+02,4.430555e+03
9.815912e+02,4.410083e+03
9.844839e+02,4.416376e+03
9.873766e+02,4.422444e+03
9.902693e+02,4.407128e+03
9.931620e+02,4.418439e+03
9.960547e+02,4.408468e+03
9.989474e+02,4.399265e+03
1.001840e+03,4.393606e+03
1.004733e+03,4.404859e+03
1.007626e+03,4.394759e+03
1.010518e+03,4.389886e+03
1.013411e+03,4.380761e+03
1.016304e+03,4.379612e+03
1.019196e+03,4.367054e+03
1.022089e+03,4.357731e+03
1.024982e+03,4.368075e+03
1.027875e+03,4.364323e+03
1.030767e+03,4.372598e+03
1.033660e+03,4.370782e+03
1.036552e+03,4.383917e+03
1.039445e+03,4.365717e+03
1.042338e+03,4.339542e+03
1.045231e+03,4.362798e+03
1.048123e+03,4.341845e+03
1.051016e+03,4.340490e+03
1.053909e+03,4.343985e+03
1.056802e+03,4.342291e+03
1.059694e+03,4.311670e+03
1.062587e+03,4.330463e+03
1.065479e+03,4.308042e+03
1.068372e+03,4.327838e+03
1.071265e+03,4.339071e+03
1.074158e+03,4.340765e+03
1.077050e+03,4.303875e+03
1.079943e+03,4.310100e+03
1.082836e+03,4.315081e+03
1.085729e+03,4.324220e+03
1.088621e+03,4.334248e+03
1.091514e+03,4.341364e+03
1.094406e+03,4.319562e+03
1.097299e+03,4.309706e+03
1.100192e+03,4.292876e+03
1.103085e+03,4.293949e+03
1.105977e+03,4.291544e+03
1.108870e+03,4.272622e+03
1.111763e+03,4.294024e+03
1.114656e+03,4.300448e+03
1.117548e+03,4.327577e+03
1.120441e+03,4.309146e+03
1.123334e+03,4.337174e+03
1.126226e+03,4.300044e+03
1.129119e+03,4.303833e+03
1.132012e+03,4.322695e+03
1.134904e+03,4.318861e+03
1.137797e+03,4.306069e+03
1.140690e+03,4.285357e+03
1.143583e+03,4.265243e+03
1.146475e+03,4.285121e+03
1.149368e+03,4.288838e+03
1.152261e+03,4.300864e+03
1.155153e+03,4.280187e+03
1.158046e+03,4.269287e+03
1.160939e+03,4.238935e+03
1.163831e+03,4.227829e+03
1.166724e+03,4.197615e+03
1.169617e+03,4.196412e+03
1.172510e+03,4.186745e+03
1.175402e+03,4.190199e+03
1.178295e+03,4.214556e+03
1.181188e+03,4.215683e+03
1.184080e+03,4.198210e+03
1.186973e+03,4.186571e+03
1.189866e+03,4.185559e+03
1.192758e+03,4.195263e+03
1.195651e+03,4.188976e+03
1.198544e+03,4.181351e+03
1.201437e+03,4.151766e+03
1.204329e+03,4.132021e+03
1.207222e+03,4.143328e+03
1.210115e+03,4.162660e+03
1.213007e+03,4.153205e+03
1.215900e+03,4.145737e+03
1.218793e+03,4.116547e+03
1.221685e+03,4.134817e+03
1.224578e+03,4.120432e+03
1.227471e+03,4.121980e+03
1.230364e+03,4.108147e+03
1.233256e+03,4.076751e+03
1.236149e+03,4.089257e+03
1.239042e+03,4.091273e+03
1.241934e+03,4.084484e+03
1.244827e+03,4.087149e+03
1.247720e+03,4.061621e+03
1.250612e+03,4.066167e+03
1.253505e+03,4.061749e+03
1.256398e+03,4.052695e+03
1.259291e+03,4.058402e+03
1.262183e+03,4.026820e+03
1.265076e+03,4.046599e+03
1.267969e+03,4.070881e+03
1.270861e+03,4.086536e+03
1.273754e+03,4.090673e+03
1.276647e+03,4.101745e+03
1.279539e+03,4.088003e+03
1.282432e+03,4.087594e+03
1.285325e+03,4.082219e+03
1.288218e+03,4.070233e+03
1.291110e+03,4.048785e+03
1.294003e+03,4.037989e+03
1.296896e+03,3.999429e+03
1.299788e+03,3.993283e+03
1.302681e+03,4.001048e+03
1.305574e+03,3.995148e+03
1.308466e+03,4.001125e+03
1.311359e+03,3.985877e+03
1.314252e+03,3.980809e+03
1.317145e+03,3.966094e+03
1.320037e+03,3.989763e+03
1.322930e+03,3.962606e+03
1.325823e+03,3.955992e+03
1.328715e+03,3.975356e+03
1.331608e+03,3.947745e+03
1.334501e+03,3.981799e+03
1.337393e+03,4.003219e+03
1.340286e+03,3.969305e+03
1.343179e+03,3.963713e+03
1.346072e+03,3.971807e+03
1.348964e+03,3.973705e+03
1.351857e+03,3.953487e+03
1.354750e+03,3.927329e+03
1.357642e+03,3.924841e+03
1.360535e+03,3.896626e+03
1.363428e+03,3.925730e+03
1.366320e+03,3.929700e+03
1.369213e+03,3.919465e+03
1.372106e+03,3.904078e+03
1.374999e+03,3.894025e+03
1.377891e+03,3.887634e+03
1.380784e+03,3.887692e+03
1.383677e+03,3.863254e+03
1.386569e+03,3.840049e+03
1.389462e+03,3.840715e+03
1.392355e+03,3.825581e+03
1.395247e+03,3.819885e+03
1.398140e+03,3.821311e+03
1.401033e+03,3.823042e+03
1.403926e+03,3.811621e+03
1.406818e+03,3.787045e+03
1.409711e+03,3.815738e+03
1.412604e+03,3.822490e+03
1.415496e+03,3.796625e+03
1.418389e+03,3.808645e+03
1.421282e+03,3.765647e+03
1.424174e+03,3.761215e+03
1.427067e+03,3.764738e+03
1.429960e+03,3.770864e+03
1.432853e+03,3.742044e+03
1.435745e+03,3.743375e+03
1.438638e+03,3.722299e+03
1.441531e+03,3.726706e+03
1.444423e+03,3.713651e+03
1.447316e+03,3.701359e+03
1.450209e+03,3.696550e+03
1.453101e+03,3.695405e+03
1.455994e+03,3.695210e+03
1.458887e+03,3.691585e+03
1.461780e+03,3.678013e+03
1.464672e+03,3.660717e+03
1.467565e+03,3.638590e+03
1.470458e+03,3.673628e+03
1.473350e+03,3.674078e+03
1.476243e+03,3.665297e+03
1.479136e+03,3.644885e+03
1.482028e+03,3.658816e+03
1.484921e+03,3.635009e+03
1.487814e+03,3.647161e+03
1.490707e+03,3.650927e+03
1.493599e+03,3.634649e+03
1.496492e+03,3.626954e+03
1.499385e+03,3.621589e+03
1.502277e+03,3.621738e+03
1.505170e+03,3.621495e+03
1.508063e+03,3.619827e+03
1.510955e+03,3.587833e+03
1.513848e+03,3.589377e+03
1.516741e+03,3.580159e+03
1.519634e+03,3.594604e+03
1.522526e+03,3.569871e+03
1.525419e+03,3.587033e+03
1.528312e+03,3.562741e+03
1.531204e+03,3.570190e+03
1.534097e+03,3.556030e+03
1.536990e+03,3.555790e+03
1.539882e+03,3.569469e+03
1.542775e+03,3.525233e+03
1.545668e+03,3.537216e+03
1.548561e+03,3.550074e+03
1.551453e+03,3.545872e+03
1.554346e+03,3.550464e+03
1.557239e+03,3.550693e+03
1.560131e+03,3.542803e+03
1.563024e+03,3.539806e+03
1.565917e+03,3.527804e+03
1.568809e+03,3.567167e+03
1.571702e+03,3.540792e+03
1.574595e+03,3.526912e+03
1.577488e+03,3.554193e+03
1.580380e+03,3.575969e+03
1.583273e+03,3.538105e+03
1.586166e+03,3.539158e+03
1.589058e+03,3.542709e+03
1.591951e+03,3.518406e+03
1.594844e+03,3.511488e+03
1.597736e+03,3.488410e+03
1.600629e+03,3.484739e+03
1.603522e+03,3.477422e+03
1.606415e+03,3.426558e+03
1.609307e+03,3.446072e+03
1.612200e+03,3.455833e+03
1.615093e+03,3.451391e+03
1.617985e+03,3.443737e+03
1.620878e+03,3.442110e+03
1.623771e+03,3.398039e+03
1.626663e+03,3.409124e+03
1.629556e+03,3.395786e+03
1.632449e+03,3.375526e+03
1.635342e+03,3.372318e+03
1.638234e+03,3.382437e+03
1.641127e+03,3.356062e+03
1.644020e+03,3.370823e+03
1.646912e+03,3.356551e+03
1.649805e+03,3.350677e+03
1.652698e+03,3.358487e+03
1.655590e+03,3.339029e+03
1.658483e+03,3.346777e+03
1.661376e+03,3.317956e+03
1.664269e+03,3.322619e+03
1.667161e+03,3.306008e+03
1.670054e+03,3.296615e+03
1.672947e+03,3.292906e+03
1.675839e+03,3.305515e+03
1.678732e+03,3.298635e+03
1.681625e+03,3.257741e+03
1.684517e+03,3.279499e+03
1.687410e+03,3.299654e+03
1.690303e+03,3.278657e+03
1.693196e+03,3.282477e+03
1.696088e+03,3.251948e+03
1.698981e+03,3.260289e+03
1.701874e+03,3.259726e+03
1.704766e+03,3.261249e+03
1.707659e+03,3.234909e+03
1.710552e+03,3.249555e+03
1.713444e+03,3.252721e+03
1.716337e+03,3.222573e+03
1.719230e+03,3.210325e+03
1.722123e+03,3.220825e+03
1.725015e+03,3.212706e+03
1.727908e+03,3.205993e+03
1.730801e+03,3.211915e+03
1.733693e+03,3.212700e+03
1.736586e+03,3.201655e+03
1.739479e+03,3.191285e+03
1.742371e+03,3.198202e+03
1.745264e+03,3.163694e+03
1.748157e+03,3.166914e+03
1.751050e+03,3.165875e+03
1.753942e+03,3.174110e+03
1.756835e+03,3.168298e+03
1.759728e+03,3.150165e+03
1.762620e+03,3.141171e+03
1.765513e+03,3.146904e+03
1.768406e+03,3.149679e+03
1.771298e+03,3.136578e+03
1.774191e+03,3.132384e+03
1.777084e+03,3.136699e+03
1.779977e+03,3.125292e+03
1.782869e+03,3.118816e+03
1.785762e+03,3.117575e+03
1.788655e+03,3.117338e+03
1.791547e+03,3.115496e+03
1.794440e+03,3.114880e+03
1.797333e+03,3.082030e+03
1.800225e+03,3.068059e+03
1.803118e+03,3.090138e+03
1.806011e+03,3.059216e+03
1.808904e+03,3.065421e+03
1.811796e+03,3.164810e+03
1.814689e+03,3.056380e+03
1.817582e+03,3.047828e+03
1.820474e+03,3.057026e+03
1.823367e+03,3.065298e+03
1.826260e+03,3.026895e+03
1.829152e+03,3.049869e+03
1.832045e+03,3.048263e+03
1.834938e+03,3.044855e+03
1.837831e+03,3.025710e+03
1.840723e+03,3.024646e+03
1.843616e+03,3.000635e+03
1.846509e+03,2.999440e+03
1.849401e+03,3.010076e+03
1.852294e+03,2.981015e+03
1.855187e+03,2.976884e+03
1.858079e+03,2.982899e+03
1.860972e+03,2.966982e+03
1.863865e+03,2.976514e+03
1.866758e+03,2.945952e+03
1.869650e+03,2.950176e+03
1.872543e+03,2.941625e+03
1.875436e+03,2.944924e+03
1.878328e+03,2.933135e+03
1.881221e+03,2.932571e+03
1.884114e+03,2.908369e+03
1.887006e+03,2.938188e+03
1.889899e+03,2.928735e+03
1.892792e+03,2.933454e+03
1.895685e+03,2.910811e+03
1.898577e+03,2.910072e+03
1.901470e+03,2.901200e+03
1.904363e+03,2.889415e+03
1.907255e+03,2.906616e+03
1.910148e+03,2.884071e+03
1.913041e+03,2.898756e+03
1.915933e+03,2.878560e+03
1.918826e+03,2.841673e+03
1.921719e+03,2.872585e+03
1.924612e+03,2.829968e+03
1.927504e+03,2.843415e+03
1.930397e+03,2.844196e+03
1.933290e+03,2.835768e+03
1.936182e+03,2.846829e+03
1.939075e+03,2.833898e+03
1.941968e+03,2.833490e+03
1.944860e+03,2.831837e+03
1.947753e+03,2.822221e+03
1.950646e+03,2.814787e+03
1.953539e+03,2.814316e+03
1.956431e+03,2.791884e+03
1.959324e+03,2.800429e+03
1.962217e+03,2.787522e+03
1.965109e+03,2.779913e+03
1.968002e+03,2.770471e+03
1.970895e+03,2.762490e+03
1.973787e+03,2.773571e+03
1.976680e+03,2.787859e+03
1.979573e+03,2.745927e+03
1.982466e+03,2.773570e+03
1.985358e+03,2.753416e+03
1.988251e+03,2.730294e+03
1.991144e+03,2.730889e+03
1.994036e+03,2.723169e+03
1.996929e+03,2.712762e+03
1.999822e+03,2.720477e+03
2.002714e+03,2.709339e+03
2.005607e+03,2.701363e+03
2.008500e+03,2.701282e+03
2.011393e+03,2.695444e+03
2.014285e+03,2.698771e+03
2.017178e+03,2.703473e+03
2.020071e+03,2.682736e+03
2.022963e+03,2.681958e+03
2.025856e+03,2.656560e+03
2.028749e+03,2.648228e+03
2.031641e+03,2.647428e+03
2.034534e+03,2.647483e+03
2.037427e+03,2.635799e+03
2.040320e+03,2.627168e+03
2.043212e+03,2.632947e+03
2.046105e+03,2.629348e+03
2.048998e+03,2.614133e+03
2.051890e+03,2.589565e+03
2.054783e+03,2.600585e+03
2.057676e+03,2.587575e+03
2.060568e+03,2.579442e+03
2.063461e+03,2.593181e+03
2.066354e+03,2.569825e+03
2.069247e+03,2.557988e+03
2.072139e+03,2.565863e+03
2.075032e+03,2.558224e+03
2.077925e+03,2.550310e+03
2.080817e+03,2.566200e+03
2.083710e+03,2.545780e+03
2.086603e+03,2.530917e+03
2.089496e+03,2.536328e+03
2.092388e+03,2.523956e+03
2.095281e+03,2.532638e+03
2.098174e+03,2.524274e+03
2.101066e+03,2.537038e+03
2.103959e+03,2.514276e+03
2.106852e+03,2.485138e+03
2.109744e+03,2.519320e+03
2.112637e+03,2.482763e+03
2.115530e+03,2.471650e+03
2.118422e+03,2.459904e+03
2.121315e+03,2.503606e+03
2.124208e+03,2.476179e+03
2.127101e+03,2.467494e+03
2.129993e+03,2.441246e+03
2.132886e+03,2.464157e+03
2.135779e+03,2.451282e+03
2.138671e+03,2.440053e+03
2.141564e+03,2.432626e+03
2.144457e+03,2.426529e+03
2.147350e+03,2.422159e+03
2.150242e+03,2.407239e+03
2.153135e+03,2.424492e+03
2.156028e+03,2.399313e+03
2.158920e+03,2.386233e+03
2.161813e+03,2.400940e+03
2.164706e+03,2.394250e+03
2.167598e+03,2.365612e+03
2.170491e+03,2.380643e+03
2.173384e+03,2.363133e+03
2.176277e+03,2.368411e+03
2.179169e+03,2.366343e+03
2.182062e+03,2.367128e+03
2.184955e+03,2.352119e+03
2.187847e+03,2.327913e+03
2.190740e+03,2.347254e+03
2.193633e+03,2.324399e+03
2.196525e+03,2.321134e+03
2.199418e+03,2.317462e+03
2.202311e+03,2.322216e+03
2.205204e+03,2.304815e+03
2.208096e+03,2.293240e+03
2.210989e+03,2.283181e+03
2.213882e+03,2.289660e+03
2.216774e+03,2.289086e+03
2.219667e+03,2.274761e+03
2.222560e+03,2.280267e+03
2.225452e+03,2.246997e+03
2.228345e+03,2.257812e+03
2.231238e+03,2.254609e+03
2.234131e+03,2.249182e+03
2.237023e+03,2.244488e+03
2.239916e+03,2.236704e+03
2.242809e+03,2.206007e+03
2.245701e+03,2.238720e+03
2.248594e+03,2.215765e+03
2.251487e+03,2.217117e+03
2.254379e+03,2.206562e+03
2.257272e+03,2.217225e+03
2.260165e+03,2.184502e+03
2.263058e+03,2.189177e+03
2.265950e+03,2.195230e+03
2.268843e+03,2.184137e+03
2.271736e+03,2.170446e+03
2.274628e+03,2.169501e+03
2.277521e+03,2.181494e+03
2.280414e+03,2.163208e+03
2.283306e+03,2.140977e+03
2.286199e+03,2.141156e+03
2.289092e+03,2.135633e+03
2.291985e+03,2.127890e+03
2.294877e+03,2.133169e+03
2.297770e+03,2.123001e+03
2.300663e+03,2.131987e+03
2.303555e+03,2.133265e+03
2.306448e+03,2.118051e+03
2.309341e+03,2.092028e+03
2.312233e+03,2.099864e+03
2.315126e+03,2.090510e+03
2.318019e+03,2.095793e+03
2.320912e+03,2.100251e+03
2.323804e+03,2.076353e+03
2.326697e+03,2.089372e+03
2.329590e+03,2.086857e+03
2.332482e+03,2.056499e+03
2.335375e+03,2.055988e+03
2.338268e+03,2.040029e+03
2.341160e+03,2.039340e+03
2.344053e+03,2.053031e+03
2.346946e+03,2.044168e+03
2.349839e+03,2.030877e+03
2.352731e+03,2.026153e+03
2.355624e+03,2.024682e+03
2.358517e+03,2.032980e+03
2.361409e+03,2.019269e+03
2.364302e+03,2.011500e+03
2.367195e+03,2.000247e+03
2.370087e+03,2.000880e+03
2.372980e+03,1.999136e+03
2.375873e+03,1.999428e+03
2.378766e+03,1.980383e+03
2.381658e+03,1.986513e+03
2.384551e+03,1.970589e+03
2.387444e+03,1.958772e+03
2.390336e+03,1.970747e+03
2.393229e+03,1.968510e+03
2.396122e+03,1.954410e+03
2.399014e+03,1.935499e+03
2.401907e+03,1.949763e+03
2.404800e+03,1.926624e+03
2.407693e+03,1.936692e+03
2.410585e+03,1.916555e+03
2.413478e+03,1.925400e+03
2.416371e+03,1.919993e+03
2.419263e+03,1.916274e+03
2.422156e+03,1.917992e+03
2.425049e+03,1.902084e+03
2.427941e+03,1.897540e+03
2.430834e+03,1.903314e+03
2.433727e+03,1.887819e+03
2.436620e+03,1.864928e+03
2.439512e+03,1.868343e+03
2.442405e+03,1.880745e+03
2.445298e+03,1.859548e+03
2.448190e+03,1.879591e+03
2.451083e+03,1.857187e+03
2.453976e+03,1.844435e+03
2.456868e+03,1.849045e+03
2.459761e+03,1.852329e+03
2.462654e+03,1.842040e+03
2.465547e+03,1.842149e+03
2.468439e+03,1.827707e+03
2.471332e+03,1.826952e+03
2.474225e+03,1.821373e+03
2.477117e+03,1.822134e+03
2.480010e+03,1.823248e+03
2.482903e+03,1.817717e+03
2.485795e+03,1.798179e+03
2.488688e+03,1.787683e+03
2.491581e+03,1.800068e+03
2.494474e+03,1.794474e+03
2.497366e+03,1.803083e+03
2.500259e+03,1.781824e+03
2.503152e+03,1.789367e+03
2.506044e+03,1.783111e+03
2.508937e+03,1.766656e+03
2.511830e+03,1.756534e+03
2.514722e+03,1.754463e+03
2.517615e+03,1.759976e+03
2.520508e+03,1.763578e+03
2.523401e+03,1.755690e+03
2.526293e+03,1.744453e+03
2.529186e+03,1.744327e+03
2.532079e+03,1.729710e+03
2.534971e+03,1.727122e+03
2.537864e+03,1.739184e+03
2.540757e+03,1.727051e+03
2.543649e+03,1.738506e+03
2.546542e+03,1.722717e+03
2.549435e+03,1.721753e+03
2.552328e+03,1.702536e+03
2.555220e+03,1.710287e+03
2.558113e+03,1.702941e+03
2.561006e+03,1.697761e+03
2.563898e+03,1.714964e+03
2.566791e+03,1.693761e+03
2.569684e+03,1.701849e+03
2.572576e+03,1.674341e+03
2.575469e+03,1.678922e+03
2.578362e+03,1.690500e+03
2.581255e+03,1.689568e+03
2.584147e+03,1.653818e+03
2.587040e+03,1.661701e+03
2.589933e+03,1.663002e+03
2.592825e+03,1.657868e+03
2.595718e+03,1.676667e+03
2.598611e+03,1.646046e+03
2.601503e+03,1.673453e+03
2.604396e+03,1.637543e+03
2.607289e+03,1.637829e+03
2.610182e+03,1.634796e+03
2.613074e+03,1.613790e+03
2.615967e+03,1.620777e+03
2.618860e+03,1.611909e+03
2.621752e+03,1.627268e+03
2.624645e+03,1.624125e+03
2.627538e+03,1.617888e+03
2.630430e+03,1.599330e+03
2.633323e+03,1.615852e+03
2.636216e+03,1.604146e+03
2.639109e+03,1.596268e+03
2.642001e+03,1.591473e+03
2.644894e+03,1.575793e+03
2.647787e+03,1.588146e+03
2.650679e+03,1.585527e+03
2.653572e+03,1.588192e+03
2.656465e+03,1.576683e+03
2.659357e+03,1.572462e+03
2.662250e+03,1.565310e+03
2.665143e+03,1.558055e+03
2.668036e+03,1.570281e+03
2.670928e+03,1.569540e+03
2.673821e+03,1.560764e+03
2.676714e+03,1.542469e+03
2.679606e+03,1.534464e+03
2.682499e+03,1.567506e+03
2.685392e+03,1.543328e+03
2.688284e+03,1.528468e+03
2.691177e+03,1.534340e+03
2.694070e+03,1.532302e+03
2.696963e+03,1.532600e+03
2.699855e+03,1.546003e+03
2.702748e+03,1.525920e+03
2.705641e+03,1.493125e+03
2.708533e+03,1.526302e+03
2.711426e+03,1.479611e+03
2.714319e+03,1.535679e+03
2.717211e+03,1.514463e+03
2.720104e+03,1.493281e+03
2.722997e+03,1.500433e+03
2.725890e+03,1.503057e+03
2.728782e+03,1.504068e+03
2.731675e+03,1.485451e+03
2.734568e+03,1.484649e+03
2.737460e+03,1.485567e+03
2.740353e+03,1.480141e+03
2.743246e+03,1.483297e+03
2.746138e+03,1.472950e+03
2.749031e+03,1.493516e+03
2.751924e+03,1.467541e+03
2.754817e+03,1.459994e+03
2.757709e+03,1.440622e+03
2.760602e+03,1.454782e+03
2.763495e+03,1.462411e+03
2.766387e+03,1.459062e+03
2.769280e+03,1.432122e+03
2.772173e+03,1.453195e+03
2.775065e+03,1.435195e+03
2.777958e+03,1.461449e+03
2.780851e+03,1.430214e+03
2.783744e+03,1.439070e+03
2.786636e+03,1.412291e+03
2.789529e+03,1.429689e+03
2.792422e+03,1.416856e+03
2.795314e+03,1.427922e+03
2.798207e+03,1.424864e+03
2.801100e+03,1.421139e+03
2.803992e+03,1.405502e+03
2.806885e+03,1.404383e+03
2.809778e+03,1.406906e+03
2.812671e+03,1.400006e+03
2.815563e+03,1.361738e+03
2.818456e+03,1.411007e+03
2.821349e+03,1.382323e+03
2.824241e+03,1.357834e+03
2.827134e+03,1.408870e+03
2.830027e+03,1.393744e+03
2.832919e+03,1.408924e+03
2.835812e+03,1.397672e+03
2.838705e+03,1.395579e+03
2.841598e+03,1.403204e+03
2.844490e+03,1.367600e+03
2.847383e+03,1.360214e+03
2.850276e+03,1.398635e+03
2.853168e+03,1.397335e+03
2.856061e+03,1.390860e+03
2.858954e+03,1.354968e+03
2.861846e+03,1.352511e+03
2.864739e+03,1.386101e+03
2.867632e+03,1.400385e+03
2.870525e+03,1.384478e+03
2.873417e+03,1.390889e+03
2.876310e+03,1.367568e+03
2.879203e+03,1.375923e+03
2.882095e+03,1.377166e+03
2.884988e+03,1.371092e+03
2.887881e+03,1.390092e+03
2.890773e+03,1.363844e+03
2.893666e+03,1.362376e+03
2.896559e+03,1.378890e+03
2.899452e+03,1.368476e+03
2.902344e+03,1.379958e+03
2.905237e+03,1.365515e+03
2.908130e+03,1.381584e+03
2.911022e+03,1.367355e+03
2.913915e+03,1.343207e+03
2.916808e+03,1.328397e+03
2.919700e+03,1.304266e+03
2.922593e+03,1.337664e+03
2.925486e+03,1.319401e+03
2.928379e+03,1.326821e+03
2.931271e+03,1.324536e+03
2.934164e+03,1.328303e+03
2.937057e+03,1.316063e+03
2.939949e+03,1.294738e+03
2.942842e+03,1.288751e+03
2.945735e+03,1.304835e+03
2.948627e+03,1.320752e+03
2.951520e+03,1.297268e+03
2.954413e+03,1.264407e+03
2.957306e+03,1.328563e+03
2.960198e+03,1.316954e+03
2.963091e+03,1.267770e+03
2.965984e+03,1.272715e+03
2.968876e+03,1.260802e+03
2.971769e+03,1.257003e+03
2.974662e+03,1.255358e+03
2.977554e+03,1.279191e+03
2.980447e+03,1.233081e+03
2.983340e+03,1.277989e+03
2.986233e+03,1.262542e+03
2.989125e+03,1.237410e+03
2.992018e+03,1.256162e+03
2.994911e+03,1.247472e+03
2.997803e+03,1.266542e+03
3.000696e+03,1.275752e+03
3.003589e+03,1.210975e+03
3.006481e+03,1.241646e+03
3.009374e+03,1.214597e+03
3.012267e+03,1.221112e+03
3.015160e+03,1.226279e+03
3.018052e+03,1.230394e+03
3.020945e+03,1.255472e+03
3.023838e+03,1.213870e+03
3.026730e+03,1.212375e+03
3.029623e+03,1.216884e+03
3.032516e+03,1.202115e+03
3.035408e+03,1.213000e+03
3.038301e+03,1.214239e+03
3.041194e+03,1.221006e+03
3.044087e+03,1.182744e+03
3.046979e+03,1.206469e+03
3.049872e+03,1.200800e+03
3.052765e+03,1.228328e+03
3.055657e+03,1.216554e+03
3.058550e+03,1.235089e+03
3.061443e+03,1.217465e+03
3.064335e+03,1.207216e+03
3.067228e+03,1.166379e+03
3.070121e+03,1.193631e+03
3.073014e+03,1.188986e+03
3.075906e+03,1.197780e+03
3.078799e+03,1.172391e+03
3.081692e+03,1.217612e+03
3.084584e+03,1.188893e+03
3.087477e+03,1.175224e+03
3.090370e+03,1.186411e+03
3.093262e+03,1.203521e+03
3.096155e+03,1.185244e+03
3.099048e+03,1.160086e+03
3.101941e+03,1.192680e+03
3.104833e+03,1.173052e+03
3.107726e+03,1.234929e+03
3.110619e+03,1.197791e+03
3.113511e+03,1.193078e+03
3.116404e+03,1.195814e+03
3.119297e+03,1.199245e+03
3.122189e+03,1.186424e+03
3.125082e+03,1.192879e+03
3.127975e+03,1.141570e+03
3.130868e+03,1.161091e+03
3.133760e+03,1.204658e+03
3.136653e+03,1.163773e+03
3.139546e+03,1.190303e+03
3.142438e+03,1.145379e+03
3.145331e+03,1.111522e+03
3.148224e+03,1.198211e+03
3.151116e+03,1.196082e+03
3.154009e+03,1.171043e+03
3.156902e+03,1.161281e+03
3.159795e+03,1.171068e+03
3.162687e+03,1.201972e+03
3.165580e+03,1.192541e+03
3.168473e+03,1.195733e+03
3.171365e+03,1.173110e+03
3.174258e+03,1.153083e+03
3.177151e+03,1.121505e+03
3.180043e+03,1.185462e+03
3.182936e+03,1.192304e+03
3.185829e+03,1.160224e+03
3.188722e+03,1.159868e+03
3.191614e+03,1.181718e+03
3.194507e+03,1.143350e+03
3.197400e+03,1.152843e+03
3.200292e+03,1.176570e+03
3.203185e+03,0.000000e+00
3.206078e+03,0.000000e+00
3.208970e+03,0.000000e+00
3.211863e+03,0.000000e+00
3.214756e+03,0.000000e+00
3.217649e+03,0.000000e+00
3.220541e+03,0.000000e+00
3.223434e+03,0.000000e+00
3.226327e+03,0.000000e+00
3.229219e+03,0.000000e+00
3.232112e+03,0.000000e+00
3.235005e+03,0.000000e+00
3.237897e+03,0.000000e+00
3.240790e+03,0.000000e+00
3.243683e+03,0.000000e+00
3.246576e+03,0.000000e+00
3.249468e+03,0.000000e+00
3.252361e+03,0.000000e+00
3.255254e+03,0.000000e+00
3.258146e+03,0.000000e+00
3.261039e+03,0.000000e+00
3.263932e+03,0.000000e+00
3.266824e+03,0.000000e+00
3.269717e+03,0.000000e+00
3.272610e+03,0.000000e+00
3.275503e+03,0.000000e+00
3.278395e+03,0.000000e+00
3.281288e+03,0.000000e+00
3.284181e+03,0.000000e+00
3.287073e+03,0.000000e+00
3.289966e+03,0.000000e+00
3.292859e+03,0.000000e+00
3.295751e+03,0.000000e+00
3.298644e+03,0.000000e+00
3.301537e+03,0.000000e+00
3.304430e+03,0.000000e+00
3.307322e+03,0.000000e+00
3.310215e+03,0.000000e+00
3.313108e+03,0.000000e+00
3.316000e+03,0.000000e+00
3.318893e+03,0.000000e+00
3.321786e+03,0.000000e+00
3.324678e+03,0.000000e+00
3.327571e+03,0.000000e+00
3.330464e+03,0.000000e+00
3.333357e+03,0.000000e+00
3.336249e+03,0.000000e+00
3.339142e+03,0.000000e+00
3.342035e+03,0.000000e+00
3.344927e+03,0.000000e+00
3.347820e+03,0.000000e+00
3.350713e+03,0.000000e+00
3.353605e+03,0.000000e+00
3.356498e+03,0.000000e+00
3.359391e+03,0.000000e+00
3.362284e+03,0.000000e+00
3.365176e+03,0.000000e+00
3.368069e+03,0.000000e+00
3.370962e+03,0.000000e+00
3.373854e+03,0.000000e+00
3.376747e+03,0.000000e+00
3.379640e+03,0.000000e+00
3.382532e+03,0.000000e+00
3.385425e+03,0.000000e+00
3.388318e+03,0.000000e+00
3.391211e+03,0.000000e+00
3.394103e+03,0.000000e+00
3.396996e+03,0.000000e+00
3.399889e+03,0.000000e+00
3.402781e+03,0.000000e+00
3.405674e+03,0.000000e+00
3.408567e+03,0.000000e+00
3.411459e+03,0.000000e+00
3.414352e+03,0.000000e+00
3.417245e+03,0.000000e+00
3.420138e+03,0.000000e+00
3.423030e+03,0.000000e+00
3.425923e+03,0.000000e+00
3.428816e+03,0.000000e+00
3.431708e+03,0.000000e+00
3.434601e+03,0.000000e+00
3.437494e+03,0.000000e+00
3.440386e+03,0.000000e+00
3.443279e+03,0.000000e+00
3.446172e+03,0.000000e+00
3.449065e+03,0.000000e+00
3.451957e+03,0.000000e+00
3.454850e+03,0.000000e+00
3.457743e+03,0.000000e+00
3.460635e+03,0.000000e+00
3.463528e+03,0.000000e+00
3.466421e+03,0.000000e+00
3.469313e+03,0.000000e+00
3.472206e+03,0.000000e+00
3.475099e+03,0.000000e+00
3.477992e+03,0.000000e+00
3.480884e+03,0.000000e+00
3.483777e+03,0.000000e+00
3.486670e+03,0.000000e+00
3.489563e+03,0.000000e+00
3.492455e+03,0.000000e+00
3.495348e+03,0.000000e+00
3.498240e+03,0.000000e+00
3.500169e+03,0.000000e+00