File: RAMAN_data/14032024_r1/black fibre13.CSV
9.931763e+01,0.000000e+00
1.022103e+02,0.000000e+00
1.051030e+02,0.000000e+00
1.079957e+02,0.000000e+00
1.108884e+02,0.000000e+00
1.137811e+02,0.000000e+00
1.166738e+02,0.000000e+00
1.195665e+02,0.000000e+00
1.224592e+02,0.000000e+00
1.253519e+02,0.000000e+00
1.282446e+02,0.000000e+00
1.311373e+02,0.000000e+00
1.340300e+02,0.000000e+00
1.369227e+02,0.000000e+00
1.398154e+02,0.000000e+00
1.427081e+02,0.000000e+00
1.456008e+02,0.000000e+00
1.484935e+02,0.000000e+00
1.513862e+02,0.000000e+00
1.542789e+02,0.000000e+00
1.571716e+02,0.000000e+00
1.600643e+02,0.000000e+00
1.629570e+02,0.000000e+00
1.658497e+02,0.000000e+00
1.687424e+02,0.000000e+00
1.716351e+02,0.000000e+00
1.745278e+02,0.000000e+00
1.774205e+02,0.000000e+00
1.803132e+02,0.000000e+00
1.832059e+02,0.000000e+00
1.860986e+02,0.000000e+00
1.889913e+02,0.000000e+00
1.918840e+02,0.000000e+00
1.947767e+02,0.000000e+00
1.976694e+02,0.000000e+00
2.005621e+02,1.464281e+03
2.034548e+02,1.471074e+03
2.063475e+02,1.477222e+03
2.092402e+02,1.466183e+03
2.121329e+02,1.469823e+03
2.150256e+02,1.479775e+03
2.179183e+02,1.482746e+03
2.208110e+02,1.484749e+03
2.237037e+02,1.484685e+03
2.265964e+02,1.480510e+03
2.294892e+02,1.474981e+03
2.323819e+02,1.481889e+03
2.352746e+02,1.499803e+03
2.381673e+02,1.493164e+03
2.410600e+02,1.491809e+03
2.439527e+02,1.500068e+03
2.468454e+02,1.514548e+03
2.497381e+02,1.500301e+03
2.526308e+02,1.510340e+03
2.555235e+02,1.510668e+03
2.584161e+02,1.507206e+03
2.613088e+02,1.509884e+03
2.642015e+02,1.520311e+03
2.670942e+02,1.516541e+03
2.699869e+02,1.526564e+03
2.728796e+02,1.526345e+03
2.757723e+02,1.520021e+03
2.786650e+02,1.525127e+03
2.815577e+02,1.527969e+03
2.844504e+02,1.534703e+03
2.873431e+02,1.527565e+03
2.902358e+02,1.528323e+03
2.931285e+02,1.531427e+03
2.960212e+02,1.537585e+03
2.989139e+02,1.536066e+03
3.018066e+02,1.546096e+03
3.046993e+02,1.544783e+03
3.075920e+02,1.536344e+03
3.104847e+02,1.543948e+03
3.133774e+02,1.551464e+03
3.162701e+02,1.558820e+03
3.191628e+02,1.552946e+03
3.220555e+02,1.558313e+03
3.249482e+02,1.564393e+03
3.278409e+02,1.568859e+03
3.307336e+02,1.567144e+03
3.336263e+02,1.554692e+03
3.365190e+02,1.560408e+03
3.394117e+02,1.572077e+03
3.423044e+02,1.575249e+03
3.451971e+02,1.568367e+03
3.480898e+02,1.583777e+03
3.509825e+02,1.572273e+03
3.538752e+02,1.571370e+03
3.567680e+02,1.577089e+03
3.596607e+02,1.582137e+03
3.625534e+02,1.589308e+03
3.654461e+02,1.578750e+03
3.683388e+02,1.581002e+03
3.712315e+02,1.592590e+03
3.741242e+02,1.609697e+03
3.770169e+02,1.611489e+03
3.799096e+02,1.615391e+03
3.828023e+02,1.607580e+03
3.856950e+02,1.590127e+03
3.885877e+02,1.588842e+03
3.914804e+02,1.591786e+03
3.943731e+02,1.596695e+03
3.972658e+02,1.589667e+03
4.001585e+02,1.593099e+03
4.030512e+02,1.587069e+03
4.059439e+02,1.599712e+03
4.088366e+02,1.603268e+03
4.117293e+02,1.602276e+03
4.146220e+02,1.597758e+03
4.175147e+02,1.611789e+03
4.204074e+02,1.608934e+03
4.233001e+02,1.603680e+03
4.261928e+02,1.604055e+03
4.290855e+02,1.612151e+03
4.319782e+02,1.622324e+03
4.348709e+02,1.620129e+03
4.377636e+02,1.620663e+03
4.406563e+02,1.620998e+03
4.435490e+02,1.613406e+03
4.464417e+02,1.614366e+03
4.493344e+02,1.615618e+03
4.522271e+02,1.618656e+03
4.551198e+02,1.626689e+03
4.580125e+02,1.622919e+03
4.609052e+02,1.615783e+03
4.637979e+02,1.615046e+03
4.666906e+02,1.610329e+03
4.695833e+02,1.607554e+03
4.724760e+02,1.617677e+03
4.753687e+02,1.633673e+03
4.782614e+02,1.621371e+03
4.811541e+02,1.632067e+03
4.840468e+02,1.663005e+03
4.869395e+02,1.664518e+03
4.898322e+02,1.670386e+03
4.927249e+02,1.661000e+03
4.956176e+02,1.649138e+03
4.985103e+02,1.637268e+03
5.014030e+02,1.635421e+03
5.042957e+02,1.624816e+03
5.071884e+02,1.624383e+03
5.100811e+02,1.632327e+03
5.129738e+02,1.631897e+03
5.158665e+02,1.639203e+03
5.187592e+02,1.636762e+03
5.216519e+02,1.629760e+03
5.245446e+02,1.621536e+03
5.274373e+02,1.624676e+03
5.303300e+02,1.624659e+03
5.332227e+02,1.614520e+03
5.361154e+02,1.610919e+03
5.390081e+02,1.614239e+03
5.419008e+02,1.616294e+03
5.447935e+02,1.624737e+03
5.476862e+02,1.624368e+03
5.505789e+02,1.621419e+03
5.534716e+02,1.611281e+03
5.563643e+02,1.617512e+03
5.592570e+02,1.615284e+03
5.621497e+02,1.613740e+03
5.650424e+02,1.635071e+03
5.679351e+02,1.616180e+03
5.708278e+02,1.615821e+03
5.737205e+02,1.621892e+03
5.766132e+02,1.631123e+03
5.795059e+02,1.635283e+03
5.823986e+02,1.632700e+03
5.852913e+02,1.630929e+03
5.881840e+02,1.638479e+03
5.910767e+02,1.632024e+03
5.939694e+02,1.634957e+03
5.968621e+02,1.622699e+03
5.997548e+02,1.622588e+03
6.026475e+02,1.649160e+03
6.055402e+02,1.655313e+03
6.084329e+02,1.641678e+03
6.113256e+02,1.633995e+03
6.142183e+02,1.630596e+03
6.171110e+02,1.632637e+03
6.200037e+02,1.626337e+03
6.228964e+02,1.631708e+03
6.257891e+02,1.620512e+03
6.286818e+02,1.625023e+03
6.315745e+02,1.632918e+03
6.344672e+02,1.634006e+03
6.373599e+02,1.640693e+03
6.402526e+02,1.630391e+03
6.431453e+02,1.624888e+03
6.460380e+02,1.614613e+03
6.489307e+02,1.622836e+03
6.518234e+02,1.626187e+03
6.547161e+02,1.629073e+03
6.576088e+02,1.619442e+03
6.605015e+02,1.628963e+03
6.633942e+02,1.627609e+03
6.662869e+02,1.618025e+03
6.691796e+02,1.625283e+03
6.720723e+02,1.618018e+03
6.749650e+02,1.629219e+03
6.778577e+02,1.630234e+03
6.807504e+02,1.626345e+03
6.836431e+02,1.626675e+03
6.865358e+02,1.627375e+03
6.894285e+02,1.615559e+03
6.923212e+02,1.617064e+03
6.952139e+02,1.622019e+03
6.981066e+02,1.617293e+03
7.009993e+02,1.627375e+03
7.038920e+02,1.624814e+03
7.067847e+02,1.617967e+03
7.096774e+02,1.606214e+03
7.125701e+02,1.625598e+03
7.154628e+02,1.622111e+03
7.183555e+02,1.605102e+03
7.212482e+02,1.612221e+03
7.241409e+02,1.621489e+03
7.270336e+02,1.609833e+03
7.299263e+02,1.609298e+03
7.328190e+02,1.609856e+03
7.357117e+02,1.617080e+03
7.386044e+02,1.606178e+03
7.414971e+02,1.595658e+03
7.443898e+02,1.605709e+03
7.472825e+02,1.615999e+03
7.501752e+02,1.610824e+03
7.530679e+02,1.615680e+03
7.559606e+02,1.606765e+03
7.588533e+02,1.597402e+03
7.617460e+02,1.596862e+03
7.646387e+02,1.603961e+03
7.675314e+02,1.594726e+03
7.704241e+02,1.587131e+03
7.733168e+02,1.580909e+03
7.762095e+02,1.599560e+03
7.791022e+02,1.613132e+03
7.819949e+02,1.593020e+03
7.848876e+02,1.589875e+03
7.877803e+02,1.586252e+03
7.906730e+02,1.590651e+03
7.935657e+02,1.612160e+03
7.964584e+02,1.587315e+03
7.993511e+02,1.589997e+03
8.022438e+02,1.580301e+03
8.051365e+02,1.581567e+03
8.080292e+02,1.594544e+03
8.109219e+02,1.589057e+03
8.138146e+02,1.585379e+03
8.167073e+02,1.580020e+03
8.196000e+02,1.589416e+03
8.224927e+02,1.583016e+03
8.253854e+02,1.575417e+03
8.282781e+02,1.586109e+03
8.311708e+02,1.583809e+03
8.340635e+02,1.575168e+03
8.369562e+02,1.569674e+03
8.398489e+02,1.585091e+03
8.427416e+02,1.575935e+03
8.456343e+02,1.576136e+03
8.485270e+02,1.574071e+03
8.514197e+02,1.579236e+03
8.543124e+02,1.573854e+03
8.572051e+02,1.560751e+03
8.600978e+02,1.566681e+03
8.629905e+02,1.573411e+03
8.658832e+02,1.557943e+03
8.687759e+02,1.558633e+03
8.716686e+02,1.572033e+03
8.745613e+02,1.560359e+03
8.774540e+02,1.563907e+03
8.803467e+02,1.568043e+03
8.832394e+02,1.584223e+03
8.861321e+02,1.580330e+03
8.890248e+02,1.569486e+03
8.919175e+02,1.559974e+03
8.948102e+02,1.566966e+03
8.977029e+02,1.563780e+03
9.005956e+02,1.562493e+03
9.034883e+02,1.559888e+03
9.063810e+02,1.547555e+03
9.092737e+02,1.550230e+03
9.121664e+02,1.543340e+03
9.150591e+02,1.548238e+03
9.179518e+02,1.545664e+03
9.208445e+02,1.543582e+03
9.237372e+02,1.542560e+03
9.266299e+02,1.532145e+03
9.295226e+02,1.547931e+03
9.324153e+02,1.547708e+03
9.353080e+02,1.536484e+03
9.382007e+02,1.536798e+03
9.410934e+02,1.535210e+03
9.439861e+02,1.536288e+03
9.468788e+02,1.515732e+03
9.497715e+02,1.527787e+03
9.526642e+02,1.522362e+03
9.555569e+02,1.517013e+03
9.584496e+02,1.509529e+03
9.613423e+02,1.519437e+03
9.642350e+02,1.519998e+03
9.671277e+02,1.516722e+03
9.700204e+02,1.515586e+03
9.729131e+02,1.520258e+03
9.758058e+02,1.505308e+03
9.786985e+02,1.495731e+03
9.815912e+02,1.507579e+03
9.844839e+02,1.514498e+03
9.873766e+02,1.506934e+03
9.902693e+02,1.512331e+03
9.931620e+02,1.512036e+03
9.960547e+02,1.503586e+03
9.989474e+02,1.504374e+03
1.001840e+03,1.496035e+03
1.004733e+03,1.510886e+03
1.007626e+03,1.515224e+03
1.010518e+03,1.499509e+03
1.013411e+03,1.491202e+03
1.016304e+03,1.494936e+03
1.019196e+03,1.493586e+03
1.022089e+03,1.484967e+03
1.024982e+03,1.495189e+03
1.027875e+03,1.498958e+03
1.030767e+03,1.497014e+03
1.033660e+03,1.495011e+03
1.036552e+03,1.488141e+03
1.039445e+03,1.492335e+03
1.042338e+03,1.483389e+03
1.045231e+03,1.486823e+03
1.048123e+03,1.487288e+03
1.051016e+03,1.479215e+03
1.053909e+03,1.494880e+03
1.056802e+03,1.481534e+03
1.059694e+03,1.465616e+03
1.062587e+03,1.477533e+03
1.065479e+03,1.465081e+03
1.068372e+03,1.478949e+03
1.071265e+03,1.479710e+03
1.074158e+03,1.490501e+03
1.077050e+03,1.478361e+03
1.079943e+03,1.477357e+03
1.082836e+03,1.491487e+03
1.085729e+03,1.485014e+03
1.088621e+03,1.488538e+03
1.091514e+03,1.506020e+03
1.094406e+03,1.511664e+03
1.097299e+03,1.502180e+03
1.100192e+03,1.505145e+03
1.103085e+03,1.478523e+03
1.105977e+03,1.480074e+03
1.108870e+03,1.481658e+03
1.111763e+03,1.498544e+03
1.114656e+03,1.496656e+03
1.117548e+03,1.503094e+03
1.120441e+03,1.507472e+03
1.123334e+03,1.507430e+03
1.126226e+03,1.489887e+03
1.129119e+03,1.500575e+03
1.132012e+03,1.491075e+03
1.134904e+03,1.487839e+03
1.137797e+03,1.488186e+03
1.140690e+03,1.491348e+03
1.143583e+03,1.477701e+03
1.146475e+03,1.479122e+03
1.149368e+03,1.482358e+03
1.152261e+03,1.503180e+03
1.155153e+03,1.491971e+03
1.158046e+03,1.466701e+03
1.160939e+03,1.459988e+03
1.163831e+03,1.451743e+03
1.166724e+03,1.438658e+03
1.169617e+03,1.426471e+03
1.172510e+03,1.435351e+03
1.175402e+03,1.438158e+03
1.178295e+03,1.444137e+03
1.181188e+03,1.447789e+03
1.184080e+03,1.437697e+03
1.186973e+03,1.431797e+03
1.189866e+03,1.434770e+03
1.192758e+03,1.427292e+03
1.195651e+03,1.426113e+03
1.198544e+03,1.430141e+03
1.201437e+03,1.411066e+03
1.204329e+03,1.421591e+03
1.207222e+03,1.420576e+03
1.210115e+03,1.423776e+03
1.213007e+03,1.424448e+03
1.215900e+03,1.433250e+03
1.218793e+03,1.415918e+03
1.221685e+03,1.413136e+03
1.224578e+03,1.417478e+03
1.227471e+03,1.397172e+03
1.230364e+03,1.400867e+03
1.233256e+03,1.396302e+03
1.236149e+03,1.398180e+03
1.239042e+03,1.394027e+03
1.241934e+03,1.391532e+03
1.244827e+03,1.380643e+03
1.247720e+03,1.389816e+03
1.250612e+03,1.397080e+03
1.253505e+03,1.378369e+03
1.256398e+03,1.377315e+03
1.259291e+03,1.387510e+03
1.262183e+03,1.385683e+03
1.265076e+03,1.383056e+03
1.267969e+03,1.390500e+03
1.270861e+03,1.387443e+03
1.273754e+03,1.405339e+03
1.276647e+03,1.415906e+03
1.279539e+03,1.420177e+03
1.282432e+03,1.412514e+03
1.285325e+03,1.424176e+03
1.288218e+03,1.408010e+03
1.291110e+03,1.414115e+03
1.294003e+03,1.395514e+03
1.296896e+03,1.384624e+03
1.299788e+03,1.379258e+03
1.302681e+03,1.373469e+03
1.305574e+03,1.370728e+03
1.308466e+03,1.366720e+03
1.311359e+03,1.356281e+03
1.314252e+03,1.356427e+03
1.317145e+03,1.351985e+03
1.320037e+03,1.369354e+03
1.322930e+03,1.360395e+03
1.325823e+03,1.357920e+03
1.328715e+03,1.358624e+03
1.331608e+03,1.365313e+03
1.334501e+03,1.374095e+03
1.337393e+03,1.381657e+03
1.340286e+03,1.378787e+03
1.343179e+03,1.376929e+03
1.346072e+03,1.369174e+03
1.348964e+03,1.366010e+03
1.351857e+03,1.357002e+03
1.354750e+03,1.361395e+03
1.357642e+03,1.345990e+03
1.360535e+03,1.348041e+03
1.363428e+03,1.360173e+03
1.366320e+03,1.348368e+03
1.369213e+03,1.341462e+03
1.372106e+03,1.347471e+03
1.374999e+03,1.345828e+03
1.377891e+03,1.338305e+03
1.380784e+03,1.337071e+03
1.383677e+03,1.336675e+03
1.386569e+03,1.324177e+03
1.389462e+03,1.329027e+03
1.392355e+03,1.314259e+03
1.395247e+03,1.298929e+03
1.398140e+03,1.299758e+03
1.401033e+03,1.301893e+03
1.403926e+03,1.306373e+03
1.406818e+03,1.320219e+03
1.409711e+03,1.309546e+03
1.412604e+03,1.306749e+03
1.415496e+03,1.305321e+03
1.418389e+03,1.292814e+03
1.421282e+03,1.287628e+03
1.424174e+03,1.291193e+03
1.427067e+03,1.289826e+03
1.429960e+03,1.288593e+03
1.432853e+03,1.277090e+03
1.435745e+03,1.266714e+03
1.438638e+03,1.265887e+03
1.441531e+03,1.267681e+03
1.444423e+03,1.252990e+03
1.447316e+03,1.260425e+03
1.450209e+03,1.252770e+03
1.453101e+03,1.254453e+03
1.455994e+03,1.249010e+03
1.458887e+03,1.258933e+03
1.461780e+03,1.255471e+03
1.464672e+03,1.243685e+03
1.467565e+03,1.244654e+03
1.470458e+03,1.250650e+03
1.473350e+03,1.243319e+03
1.476243e+03,1.244399e+03
1.479136e+03,1.254662e+03
1.482028e+03,1.239005e+03
1.484921e+03,1.241649e+03
1.487814e+03,1.239169e+03
1.490707e+03,1.239216e+03
1.493599e+03,1.232175e+03
1.496492e+03,1.243068e+03
1.499385e+03,1.221490e+03
1.502277e+03,1.228039e+03
1.505170e+03,1.229516e+03
1.508063e+03,1.220520e+03
1.510955e+03,1.220904e+03
1.513848e+03,1.219003e+03
1.516741e+03,1.213138e+03
1.519634e+03,1.206625e+03
1.522526e+03,1.218399e+03
1.525419e+03,1.215741e+03
1.528312e+03,1.198126e+03
1.531204e+03,1.202154e+03
1.534097e+03,1.187860e+03
1.536990e+03,1.198482e+03
1.539882e+03,1.203460e+03
1.542775e+03,1.201002e+03
1.545668e+03,1.203757e+03
1.548561e+03,1.207656e+03
1.551453e+03,1.215717e+03
1.554346e+03,1.204773e+03
1.557239e+03,1.203553e+03
1.560131e+03,1.190825e+03
1.563024e+03,1.202295e+03
1.565917e+03,1.203996e+03
1.568809e+03,1.213770e+03
1.571702e+03,1.217016e+03
1.574595e+03,1.212735e+03
1.577488e+03,1.216008e+03
1.580380e+03,1.209960e+03
1.583273e+03,1.214746e+03
1.586166e+03,1.222410e+03
1.589058e+03,1.212531e+03
1.591951e+03,1.200844e+03
1.594844e+03,1.197451e+03
1.597736e+03,1.194343e+03
1.600629e+03,1.189718e+03
1.603522e+03,1.166904e+03
1.606415e+03,1.166076e+03
1.609307e+03,1.172175e+03
1.612200e+03,1.168963e+03
1.615093e+03,1.163044e+03
1.617985e+03,1.160755e+03
1.620878e+03,1.162241e+03
1.623771e+03,1.147705e+03
1.626663e+03,1.144956e+03
1.629556e+03,1.156286e+03
1.632449e+03,1.141454e+03
1.635342e+03,1.146494e+03
1.638234e+03,1.144079e+03
1.641127e+03,1.139595e+03
1.644020e+03,1.127862e+03
1.646912e+03,1.137687e+03
1.649805e+03,1.134252e+03
1.652698e+03,1.132558e+03
1.655590e+03,1.130382e+03
1.658483e+03,1.124042e+03
1.661376e+03,1.126196e+03
1.664269e+03,1.113392e+03
1.667161e+03,1.122708e+03
1.670054e+03,1.127723e+03
1.672947e+03,1.120242e+03
1.675839e+03,1.104829e+03
1.678732e+03,1.118556e+03
1.681625e+03,1.115584e+03
1.684517e+03,1.120067e+03
1.687410e+03,1.112628e+03
1.690303e+03,1.095979e+03
1.693196e+03,1.110776e+03
1.696088e+03,1.115867e+03
1.698981e+03,1.098360e+03
1.701874e+03,1.106719e+03
1.704766e+03,1.109425e+03
1.707659e+03,1.112419e+03
1.710552e+03,1.100501e+03
1.713444e+03,1.102204e+03
1.716337e+03,1.092863e+03
1.719230e+03,1.094883e+03
1.722123e+03,1.086973e+03
1.725015e+03,1.097862e+03
1.727908e+03,1.083997e+03
1.730801e+03,1.091918e+03
1.733693e+03,1.080241e+03
1.736586e+03,1.090966e+03
1.739479e+03,1.079479e+03
1.742371e+03,1.072311e+03
1.745264e+03,1.072501e+03
1.748157e+03,1.064370e+03
1.751050e+03,1.051394e+03
1.753942e+03,1.068303e+03
1.756835e+03,1.082484e+03
1.759728e+03,1.045822e+03
1.762620e+03,1.058016e+03
1.765513e+03,1.070520e+03
1.768406e+03,1.051312e+03
1.771298e+03,1.057668e+03
1.774191e+03,1.051934e+03
1.777084e+03,1.060621e+03
1.779977e+03,1.046976e+03
1.782869e+03,1.063290e+03
1.785762e+03,1.051672e+03
1.788655e+03,1.041247e+03
1.791547e+03,1.041582e+03
1.794440e+03,1.041927e+03
1.797333e+03,1.040847e+03
1.800225e+03,1.043248e+03
1.803118e+03,1.040443e+03
1.806011e+03,1.028936e+03
1.808904e+03,1.031405e+03
1.811796e+03,1.022983e+03
1.814689e+03,1.014916e+03
1.817582e+03,1.031014e+03
1.820474e+03,1.026506e+03
1.823367e+03,1.023609e+03
1.826260e+03,1.024810e+03
1.829152e+03,1.017830e+03
1.832045e+03,1.006670e+03
1.834938e+03,1.017619e+03
1.837831e+03,1.009971e+03
1.840723e+03,1.010765e+03
1.843616e+03,1.006956e+03
1.846509e+03,1.018326e+03
1.849401e+03,9.970772e+02
1.852294e+03,9.992501e+02
1.855187e+03,9.923039e+02
1.858079e+03,9.978824e+02
1.860972e+03,9.980793e+02
1.863865e+03,9.968564e+02
1.866758e+03,9.842565e+02
1.869650e+03,9.809081e+02
1.872543e+03,9.805612e+02
1.875436e+03,1.003112e+03
1.878328e+03,9.900869e+02
1.881221e+03,9.807386e+02
1.884114e+03,9.883073e+02
1.887006e+03,9.778544e+02
1.889899e+03,9.765787e+02
1.892792e+03,9.697753e+02
1.895685e+03,9.675600e+02
1.898577e+03,9.703669e+02
1.901470e+03,9.644456e+02
1.904363e+03,9.538685e+02
1.907255e+03,9.712515e+02
1.910148e+03,9.707574e+02
1.913041e+03,9.513283e+02
1.915933e+03,9.502218e+02
1.918826e+03,9.499473e+02
1.921719e+03,9.519011e+02
1.924612e+03,9.514828e+02
1.927504e+03,9.507276e+02
1.930397e+03,9.441249e+02
1.933290e+03,9.441316e+02
1.936182e+03,9.427205e+02
1.939075e+03,9.388584e+02
1.941968e+03,9.393279e+02
1.944860e+03,9.347889e+02
1.947753e+03,9.344357e+02
1.950646e+03,9.344201e+02
1.953539e+03,9.289991e+02
1.956431e+03,9.377888e+02
1.959324e+03,9.311430e+02
1.962217e+03,9.313016e+02
1.965109e+03,9.255439e+02
1.968002e+03,9.281177e+02
1.970895e+03,9.322667e+02
1.973787e+03,9.180567e+02
1.976680e+03,9.141700e+02
1.979573e+03,9.125511e+02
1.982466e+03,9.132882e+02
1.985358e+03,9.060929e+02
1.988251e+03,9.143006e+02
1.991144e+03,9.002607e+02
1.994036e+03,9.051401e+02
1.996929e+03,9.059302e+02
1.999822e+03,9.098363e+02
2.002714e+03,8.985637e+02
2.005607e+03,8.886016e+02
2.008500e+03,8.958316e+02
2.011393e+03,8.957592e+02
2.014285e+03,8.913406e+02
2.017178e+03,8.846180e+02
2.020071e+03,8.759953e+02
2.022963e+03,8.848045e+02
2.025856e+03,8.868929e+02
2.028749e+03,8.833966e+02
2.031641e+03,8.804092e+02
2.034534e+03,8.864009e+02
2.037427e+03,8.833771e+02
2.040320e+03,8.756741e+02
2.043212e+03,8.660001e+02
2.046105e+03,8.728786e+02
2.048998e+03,8.729121e+02
2.051890e+03,8.551597e+02
2.054783e+03,8.542795e+02
2.057676e+03,8.617531e+02
2.060568e+03,8.685537e+02
2.063461e+03,8.512419e+02
2.066354e+03,8.448166e+02
2.069247e+03,8.521150e+02
2.072139e+03,8.290656e+02
2.075032e+03,8.469969e+02
2.077925e+03,8.506008e+02
2.080817e+03,8.357761e+02
2.083710e+03,8.382745e+02
2.086603e+03,8.436118e+02
2.089496e+03,8.356887e+02
2.092388e+03,8.283672e+02
2.095281e+03,8.352529e+02
2.098174e+03,8.338934e+02
2.101066e+03,8.358876e+02
2.103959e+03,8.190184e+02
2.106852e+03,8.315007e+02
2.109744e+03,8.269792e+02
2.112637e+03,8.224689e+02
2.115530e+03,8.223762e+02
2.118422e+03,8.088882e+02
2.121315e+03,8.098419e+02
2.124208e+03,8.281374e+02
2.127101e+03,8.080906e+02
2.129993e+03,8.042256e+02
2.132886e+03,8.156691e+02
2.135779e+03,8.039200e+02
2.138671e+03,7.925280e+02
2.141564e+03,7.986526e+02
2.144457e+03,7.957079e+02
2.147350e+03,7.969857e+02
2.150242e+03,7.859682e+02
2.153135e+03,8.031555e+02
2.156028e+03,7.926836e+02
2.158920e+03,7.940136e+02
2.161813e+03,7.820151e+02
2.164706e+03,7.834700e+02
2.167598e+03,7.820108e+02
2.170491e+03,7.843361e+02
2.173384e+03,7.875276e+02
2.176277e+03,7.945748e+02
2.179169e+03,7.678430e+02
2.182062e+03,7.682108e+02
2.184955e+03,7.779711e+02
2.187847e+03,7.752002e+02
2.190740e+03,7.771971e+02
2.193633e+03,7.739469e+02
2.196525e+03,7.604779e+02
2.199418e+03,7.552200e+02
2.202311e+03,7.627371e+02
2.205204e+03,7.424267e+02
2.208096e+03,7.506246e+02
2.210989e+03,7.469413e+02
2.213882e+03,7.439080e+02
2.216774e+03,7.571945e+02
2.219667e+03,7.506663e+02
2.222560e+03,7.437751e+02
2.225452e+03,7.397488e+02
2.228345e+03,7.333099e+02
2.231238e+03,7.396841e+02
2.234131e+03,7.314801e+02
2.237023e+03,7.326221e+02
2.239916e+03,7.253076e+02
2.242809e+03,7.186993e+02
2.245701e+03,7.327678e+02
2.248594e+03,7.259241e+02
2.251487e+03,7.316275e+02
2.254379e+03,7.175695e+02
2.257272e+03,7.100400e+02
2.260165e+03,7.113107e+02
2.263058e+03,7.165226e+02
2.265950e+03,7.137529e+02
2.268843e+03,7.062112e+02
2.271736e+03,7.060220e+02
2.274628e+03,7.124467e+02
2.277521e+03,7.158408e+02
2.280414e+03,7.084733e+02
2.283306e+03,6.962596e+02
2.286199e+03,7.064667e+02
2.289092e+03,6.958512e+02
2.291985e+03,6.915826e+02
2.294877e+03,6.890105e+02
2.297770e+03,6.943300e+02
2.300663e+03,6.927314e+02
2.303555e+03,6.934320e+02
2.306448e+03,6.878970e+02
2.309341e+03,6.893847e+02
2.312233e+03,6.935414e+02
2.315126e+03,6.888636e+02
2.318019e+03,6.836025e+02
2.320912e+03,6.810179e+02
2.323804e+03,6.888864e+02
2.326697e+03,6.799835e+02
2.329590e+03,6.795570e+02
2.332482e+03,6.795638e+02
2.335375e+03,6.687820e+02
2.338268e+03,6.660869e+02
2.341160e+03,6.680115e+02
2.344053e+03,6.728953e+02
2.346946e+03,6.716725e+02
2.349839e+03,6.624334e+02
2.352731e+03,6.672522e+02
2.355624e+03,6.528881e+02
2.358517e+03,6.542742e+02
2.361409e+03,6.547282e+02
2.364302e+03,6.476200e+02
2.367195e+03,6.507386e+02
2.370087e+03,6.542137e+02
2.372980e+03,6.585128e+02
2.375873e+03,6.496238e+02
2.378766e+03,6.603849e+02
2.381658e+03,6.312697e+02
2.384551e+03,6.299836e+02
2.387444e+03,6.481473e+02
2.390336e+03,6.383184e+02
2.393229e+03,6.448611e+02
2.396122e+03,6.340852e+02
2.399014e+03,6.216700e+02
2.401907e+03,6.426956e+02
2.404800e+03,6.383210e+02
2.407693e+03,6.391410e+02
2.410585e+03,6.351791e+02
2.413478e+03,6.204114e+02
2.416371e+03,6.310261e+02
2.419263e+03,6.181931e+02
2.422156e+03,6.243333e+02
2.425049e+03,6.171202e+02
2.427941e+03,6.264563e+02
2.430834e+03,6.248665e+02
2.433727e+03,6.217255e+02
2.436620e+03,6.219404e+02
2.439512e+03,6.179756e+02
2.442405e+03,5.983571e+02
2.445298e+03,6.123525e+02
2.448190e+03,6.072206e+02
2.451083e+03,6.086514e+02
2.453976e+03,6.167628e+02
2.456868e+03,6.031537e+02
2.459761e+03,6.016818e+02
2.462654e+03,5.993112e+02
2.465547e+03,5.890417e+02
2.468439e+03,5.923281e+02
2.471332e+03,5.823712e+02
2.474225e+03,5.924584e+02
2.477117e+03,6.013159e+02
2.480010e+03,6.014000e+02
2.482903e+03,5.922887e+02
2.485795e+03,6.033534e+02
2.488688e+03,5.914031e+02
2.491581e+03,5.939876e+02
2.494474e+03,5.792122e+02
2.497366e+03,5.898820e+02
2.500259e+03,5.755021e+02
2.503152e+03,5.832985e+02
2.506044e+03,5.913931e+02
2.508937e+03,5.772011e+02
2.511830e+03,5.783889e+02
2.514722e+03,5.758680e+02
2.517615e+03,5.800225e+02
2.520508e+03,5.730860e+02
2.523401e+03,5.749325e+02
2.526293e+03,5.719066e+02
2.529186e+03,5.643829e+02
2.532079e+03,5.710361e+02
2.534971e+03,5.738351e+02
2.537864e+03,5.561311e+02
2.540757e+03,5.591273e+02
2.543649e+03,5.673654e+02
2.546542e+03,5.775556e+02
2.549435e+03,5.567661e+02
2.552328e+03,5.603398e+02
2.555220e+03,5.602382e+02
2.558113e+03,5.579864e+02
2.561006e+03,5.638793e+02
2.563898e+03,5.679093e+02
2.566791e+03,5.513288e+02
2.569684e+03,5.514955e+02
2.572576e+03,5.479766e+02
2.575469e+03,5.521191e+02
2.578362e+03,5.418157e+02
2.581255e+03,5.461554e+02
2.584147e+03,5.375239e+02
2.587040e+03,5.420789e+02
2.589933e+03,5.544578e+02
2.592825e+03,5.414420e+02
2.595718e+03,5.322462e+02
2.598611e+03,5.266592e+02
2.601503e+03,5.373190e+02
2.604396e+03,5.253500e+02
2.607289e+03,5.320078e+02
2.610182e+03,5.216937e+02
2.613074e+03,5.312924e+02
2.615967e+03,5.137828e+02
2.618860e+03,5.266955e+02
2.621752e+03,5.175731e+02
2.624645e+03,5.357635e+02
2.627538e+03,5.226974e+02
2.630430e+03,5.230274e+02
2.633323e+03,5.229909e+02
2.636216e+03,5.177580e+02
2.639109e+03,5.282908e+02
2.642001e+03,5.197161e+02
2.644894e+03,5.159361e+02
2.647787e+03,5.016750e+02
2.650679e+03,5.171974e+02
2.653572e+03,5.101432e+02
2.656465e+03,5.105331e+02
2.659357e+03,5.214921e+02
2.662250e+03,5.102507e+02
2.665143e+03,4.991381e+02
2.668036e+03,5.280118e+02
2.670928e+03,5.102872e+02
2.673821e+03,5.017925e+02
2.676714e+03,5.003599e+02
2.679606e+03,4.986012e+02
2.682499e+03,5.045287e+02
2.685392e+03,4.894371e+02
2.688284e+03,4.969100e+02
2.691177e+03,4.971632e+02
2.694070e+03,4.921617e+02
2.696963e+03,5.009023e+02
2.699855e+03,5.005313e+02
2.702748e+03,4.873421e+02
2.705641e+03,4.958043e+02
2.708533e+03,4.850309e+02
2.711426e+03,4.894654e+02
2.714319e+03,4.983137e+02
2.717211e+03,4.950306e+02
2.720104e+03,4.929260e+02
2.722997e+03,4.923160e+02
2.725890e+03,4.908030e+02
2.728782e+03,4.914777e+02
2.731675e+03,4.867655e+02
2.734568e+03,4.894070e+02
2.737460e+03,4.889832e+02
2.740353e+03,4.773623e+02
2.743246e+03,4.685650e+02
2.746138e+03,4.657747e+02
2.749031e+03,4.954995e+02
2.751924e+03,4.536307e+02
2.754817e+03,4.682429e+02
2.757709e+03,4.722276e+02
2.760602e+03,4.772730e+02
2.763495e+03,4.640687e+02
2.766387e+03,4.782186e+02
2.769280e+03,4.731696e+02
2.772173e+03,4.642954e+02
2.775065e+03,4.850143e+02
2.777958e+03,4.638525e+02
2.780851e+03,4.611776e+02
2.783744e+03,4.811773e+02
2.786636e+03,4.648217e+02
2.789529e+03,4.822913e+02
2.792422e+03,4.773677e+02
2.795314e+03,4.575891e+02
2.798207e+03,4.704542e+02
2.801100e+03,4.715116e+02
2.803992e+03,4.600880e+02
2.806885e+03,4.393827e+02
2.809778e+03,4.611216e+02
2.812671e+03,4.760599e+02
2.815563e+03,4.581728e+02
2.818456e+03,4.512850e+02
2.821349e+03,4.598029e+02
2.824241e+03,4.576214e+02
2.827134e+03,4.668068e+02
2.830027e+03,4.542115e+02
2.832919e+03,4.577053e+02
2.835812e+03,4.642648e+02
2.838705e+03,4.625200e+02
2.841598e+03,4.581443e+02
2.844490e+03,4.545107e+02
2.847383e+03,4.529887e+02
2.850276e+03,4.754779e+02
2.853168e+03,4.605827e+02
2.856061e+03,4.714430e+02
2.858954e+03,4.482408e+02
2.861846e+03,4.691163e+02
2.864739e+03,4.504450e+02
2.867632e+03,4.657377e+02
2.870525e+03,4.741693e+02
2.873417e+03,4.691900e+02
2.876310e+03,4.660586e+02
2.879203e+03,4.620049e+02
2.882095e+03,4.587380e+02
2.884988e+03,4.777640e+02
2.887881e+03,4.865636e+02
2.890773e+03,4.729465e+02
2.893666e+03,4.651656e+02
2.896559e+03,4.816053e+02
2.899452e+03,4.885153e+02
2.902344e+03,4.703986e+02
2.905237e+03,4.865782e+02
2.908130e+03,4.746351e+02
2.911022e+03,4.734961e+02
2.913915e+03,4.615508e+02
2.916808e+03,4.618535e+02
2.919700e+03,4.537483e+02
2.922593e+03,4.531946e+02
2.925486e+03,4.615891e+02
2.928379e+03,4.391974e+02
2.931271e+03,4.422813e+02
2.934164e+03,4.441266e+02
2.937057e+03,4.210427e+02
2.939949e+03,4.447713e+02
2.942842e+03,4.358785e+02
2.945735e+03,4.498661e+02
2.948627e+03,4.392561e+02
2.951520e+03,4.401550e+02
2.954413e+03,4.268656e+02
2.957306e+03,4.955538e+02
2.960198e+03,4.458168e+02
2.963091e+03,4.173148e+02
2.965984e+03,4.395420e+02
2.968876e+03,4.265944e+02
2.971769e+03,4.259814e+02
2.974662e+03,4.332335e+02
2.977554e+03,4.119308e+02
2.980447e+03,3.856754e+02
2.983340e+03,4.233817e+02
2.986233e+03,4.097648e+02
2.989125e+03,4.006717e+02
2.992018e+03,4.006717e+02
2.994911e+03,4.022799e+02
2.997803e+03,4.285486e+02
3.000696e+03,4.062214e+02
3.003589e+03,4.091664e+02
3.006481e+03,4.154687e+02
3.009374e+03,4.019760e+02
3.012267e+03,3.989171e+02
3.015160e+03,3.934019e+02
3.018052e+03,3.965298e+02
3.020945e+03,4.050757e+02
3.023838e+03,3.881537e+02
3.026730e+03,3.916926e+02
3.029623e+03,3.790343e+02
3.032516e+03,4.209067e+02
3.035408e+03,3.720622e+02
3.038301e+03,4.047009e+02
3.041194e+03,3.799164e+02
3.044087e+03,3.932758e+02
3.046979e+03,4.001740e+02
3.049872e+03,3.863300e+02
3.052765e+03,3.838871e+02
3.055657e+03,3.957174e+02
3.058550e+03,3.911855e+02
3.061443e+03,3.964804e+02
3.064335e+03,3.942149e+02
3.067228e+03,3.631172e+02
3.070121e+03,3.932706e+02
3.073014e+03,3.791552e+02
3.075906e+03,3.997838e+02
3.078799e+03,3.818976e+02
3.081692e+03,3.810607e+02
3.084584e+03,3.886300e+02
3.087477e+03,3.843327e+02
3.090370e+03,3.977252e+02
3.093262e+03,3.518700e+02
3.096155e+03,3.835191e+02
3.099048e+03,3.750406e+02
3.101941e+03,3.689846e+02
3.104833e+03,3.729141e+02
3.107726e+03,3.955381e+02
3.110619e+03,4.001812e+02
3.113511e+03,3.708201e+02
3.116404e+03,3.729095e+02
3.119297e+03,3.907959e+02
3.122189e+03,4.030041e+02
3.125082e+03,4.075096e+02
3.127975e+03,3.931418e+02
3.130868e+03,4.018458e+02
3.133760e+03,3.920023e+02
3.136653e+03,3.515027e+02
3.139546e+03,3.815989e+02
3.142438e+03,3.949805e+02
3.145331e+03,3.692176e+02
3.148224e+03,3.832365e+02
3.151116e+03,3.810464e+02
3.154009e+03,3.890517e+02
3.156902e+03,3.795141e+02
3.159795e+03,3.515905e+02
3.162687e+03,3.822393e+02
3.165580e+03,3.888955e+02
3.168473e+03,4.210141e+02
3.171365e+03,3.831836e+02
3.174258e+03,4.041699e+02
3.177151e+03,3.566219e+02
3.180043e+03,3.843374e+02
3.182936e+03,4.008139e+02
3.185829e+03,4.304232e+02
3.188722e+03,3.839003e+02
3.191614e+03,3.922347e+02
3.194507e+03,3.924891e+02
3.197400e+03,3.910067e+02
3.200292e+03,4.220110e+02
3.203185e+03,0.000000e+00
3.206078e+03,0.000000e+00
3.208970e+03,0.000000e+00
3.211863e+03,0.000000e+00
3.214756e+03,0.000000e+00
3.217649e+03,0.000000e+00
3.220541e+03,0.000000e+00
3.223434e+03,0.000000e+00
3.226327e+03,0.000000e+00
3.229219e+03,0.000000e+00
3.232112e+03,0.000000e+00
3.235005e+03,0.000000e+00
3.237897e+03,0.000000e+00
3.240790e+03,0.000000e+00
3.243683e+03,0.000000e+00
3.246576e+03,0.000000e+00
3.249468e+03,0.000000e+00
3.252361e+03,0.000000e+00
3.255254e+03,0.000000e+00
3.258146e+03,0.000000e+00
3.261039e+03,0.000000e+00
3.263932e+03,0.000000e+00
3.266824e+03,0.000000e+00
3.269717e+03,0.000000e+00
3.272610e+03,0.000000e+00
3.275503e+03,0.000000e+00
3.278395e+03,0.000000e+00
3.281288e+03,0.000000e+00
3.284181e+03,0.000000e+00
3.287073e+03,0.000000e+00
3.289966e+03,0.000000e+00
3.292859e+03,0.000000e+00
3.295751e+03,0.000000e+00
3.298644e+03,0.000000e+00
3.301537e+03,0.000000e+00
3.304430e+03,0.000000e+00
3.307322e+03,0.000000e+00
3.310215e+03,0.000000e+00
3.313108e+03,0.000000e+00
3.316000e+03,0.000000e+00
3.318893e+03,0.000000e+00
3.321786e+03,0.000000e+00
3.324678e+03,0.000000e+00
3.327571e+03,0.000000e+00
3.330464e+03,0.000000e+00
3.333357e+03,0.000000e+00
3.336249e+03,0.000000e+00
3.339142e+03,0.000000e+00
3.342035e+03,0.000000e+00
3.344927e+03,0.000000e+00
3.347820e+03,0.000000e+00
3.350713e+03,0.000000e+00
3.353605e+03,0.000000e+00
3.356498e+03,0.000000e+00
3.359391e+03,0.000000e+00
3.362284e+03,0.000000e+00
3.365176e+03,0.000000e+00
3.368069e+03,0.000000e+00
3.370962e+03,0.000000e+00
3.373854e+03,0.000000e+00
3.376747e+03,0.000000e+00
3.379640e+03,0.000000e+00
3.382532e+03,0.000000e+00
3.385425e+03,0.000000e+00
3.388318e+03,0.000000e+00
3.391211e+03,0.000000e+00
3.394103e+03,0.000000e+00
3.396996e+03,0.000000e+00
3.399889e+03,0.000000e+00
3.402781e+03,0.000000e+00
3.405674e+03,0.000000e+00
3.408567e+03,0.000000e+00
3.411459e+03,0.000000e+00
3.414352e+03,0.000000e+00
3.417245e+03,0.000000e+00
3.420138e+03,0.000000e+00
3.423030e+03,0.000000e+00
3.425923e+03,0.000000e+00
3.428816e+03,0.000000e+00
3.431708e+03,0.000000e+00
3.434601e+03,0.000000e+00
3.437494e+03,0.000000e+00
3.440386e+03,0.000000e+00
3.443279e+03,0.000000e+00
3.446172e+03,0.000000e+00
3.449065e+03,0.000000e+00
3.451957e+03,0.000000e+00
3.454850e+03,0.000000e+00
3.457743e+03,0.000000e+00
3.460635e+03,0.000000e+00
3.463528e+03,0.000000e+00
3.466421e+03,0.000000e+00
3.469313e+03,0.000000e+00
3.472206e+03,0.000000e+00
3.475099e+03,0.000000e+00
3.477992e+03,0.000000e+00
3.480884e+03,0.000000e+00
3.483777e+03,0.000000e+00
3.486670e+03,0.000000e+00
3.489563e+03,0.000000e+00
3.492455e+03,0.000000e+00
3.495348e+03,0.000000e+00
3.498240e+03,0.000000e+00
3.500169e+03,0.000000e+00