File: RAMAN_data/14032024_r1/black fibre1.CSV
9.931763e+01,0.000000e+00
1.022103e+02,0.000000e+00
1.051030e+02,0.000000e+00
1.079957e+02,0.000000e+00
1.108884e+02,0.000000e+00
1.137811e+02,0.000000e+00
1.166738e+02,0.000000e+00
1.195665e+02,0.000000e+00
1.224592e+02,0.000000e+00
1.253519e+02,0.000000e+00
1.282446e+02,0.000000e+00
1.311373e+02,0.000000e+00
1.340300e+02,0.000000e+00
1.369227e+02,0.000000e+00
1.398154e+02,0.000000e+00
1.427081e+02,0.000000e+00
1.456008e+02,0.000000e+00
1.484935e+02,0.000000e+00
1.513862e+02,0.000000e+00
1.542789e+02,0.000000e+00
1.571716e+02,0.000000e+00
1.600643e+02,0.000000e+00
1.629570e+02,0.000000e+00
1.658497e+02,0.000000e+00
1.687424e+02,0.000000e+00
1.716351e+02,0.000000e+00
1.745278e+02,0.000000e+00
1.774205e+02,0.000000e+00
1.803132e+02,0.000000e+00
1.832059e+02,0.000000e+00
1.860986e+02,0.000000e+00
1.889913e+02,0.000000e+00
1.918840e+02,0.000000e+00
1.947767e+02,0.000000e+00
1.976694e+02,0.000000e+00
2.005621e+02,7.197752e+03
2.034548e+02,7.236904e+03
2.063475e+02,7.247185e+03
2.092402e+02,7.232103e+03
2.121329e+02,7.265920e+03
2.150256e+02,7.295139e+03
2.179183e+02,7.266869e+03
2.208110e+02,7.294672e+03
2.237037e+02,7.311552e+03
2.265964e+02,7.290187e+03
2.294892e+02,7.330086e+03
2.323819e+02,7.337608e+03
2.352746e+02,7.350505e+03
2.381673e+02,7.381936e+03
2.410600e+02,7.335273e+03
2.439527e+02,7.371419e+03
2.468454e+02,7.385730e+03
2.497381e+02,7.391780e+03
2.526308e+02,7.456901e+03
2.555235e+02,7.423142e+03
2.584161e+02,7.414484e+03
2.613088e+02,7.436562e+03
2.642015e+02,7.447241e+03
2.670942e+02,7.462368e+03
2.699869e+02,7.462935e+03
2.728796e+02,7.467629e+03
2.757723e+02,7.497439e+03
2.786650e+02,7.499068e+03
2.815577e+02,7.522011e+03
2.844504e+02,7.508408e+03
2.873431e+02,7.535405e+03
2.902358e+02,7.519280e+03
2.931285e+02,7.536162e+03
2.960212e+02,7.554420e+03
2.989139e+02,7.568330e+03
3.018066e+02,7.575375e+03
3.046993e+02,7.574535e+03
3.075920e+02,7.573136e+03
3.104847e+02,7.565010e+03
3.133774e+02,7.580692e+03
3.162701e+02,7.606570e+03
3.191628e+02,7.609525e+03
3.220555e+02,7.633719e+03
3.249482e+02,7.631953e+03
3.278409e+02,7.627771e+03
3.307336e+02,7.637408e+03
3.336263e+02,7.639389e+03
3.365190e+02,7.616727e+03
3.394117e+02,7.653055e+03
3.423044e+02,7.679110e+03
3.451971e+02,7.652975e+03
3.480898e+02,7.671701e+03
3.509825e+02,7.644400e+03
3.538752e+02,7.678402e+03
3.567680e+02,7.682548e+03
3.596607e+02,7.700157e+03
3.625534e+02,7.715051e+03
3.654461e+02,7.684870e+03
3.683388e+02,7.676145e+03
3.712315e+02,7.718837e+03
3.741242e+02,7.732112e+03
3.770169e+02,7.743822e+03
3.799096e+02,7.736128e+03
3.828023e+02,7.724642e+03
3.856950e+02,7.737110e+03
3.885877e+02,7.725570e+03
3.914804e+02,7.741771e+03
3.943731e+02,7.740817e+03
3.972658e+02,7.724575e+03
4.001585e+02,7.736924e+03
4.030512e+02,7.759225e+03
4.059439e+02,7.738308e+03
4.088366e+02,7.749615e+03
4.117293e+02,7.752342e+03
4.146220e+02,7.756177e+03
4.175147e+02,7.765146e+03
4.204074e+02,7.764998e+03
4.233001e+02,7.769136e+03
4.261928e+02,7.765784e+03
4.290855e+02,7.790437e+03
4.319782e+02,7.770532e+03
4.348709e+02,7.778085e+03
4.377636e+02,7.783355e+03
4.406563e+02,7.778058e+03
4.435490e+02,7.769822e+03
4.464417e+02,7.816183e+03
4.493344e+02,7.775643e+03
4.522271e+02,7.792385e+03
4.551198e+02,7.798946e+03
4.580125e+02,7.782827e+03
4.609052e+02,7.773357e+03
4.637979e+02,7.742927e+03
4.666906e+02,7.762264e+03
4.695833e+02,7.772063e+03
4.724760e+02,7.791726e+03
4.753687e+02,7.758321e+03
4.782614e+02,7.791996e+03
4.811541e+02,7.759114e+03
4.840468e+02,7.778067e+03
4.869395e+02,7.795207e+03
4.898322e+02,7.787191e+03
4.927249e+02,7.839782e+03
4.956176e+02,7.798563e+03
4.985103e+02,7.786472e+03
5.014030e+02,7.790491e+03
5.042957e+02,7.773989e+03
5.071884e+02,7.765520e+03
5.100811e+02,7.774315e+03
5.129738e+02,7.797164e+03
5.158665e+02,7.817093e+03
5.187592e+02,7.778626e+03
5.216519e+02,7.772167e+03
5.245446e+02,7.783326e+03
5.274373e+02,7.824025e+03
5.303300e+02,7.806202e+03
5.332227e+02,7.780587e+03
5.361154e+02,7.761870e+03
5.390081e+02,7.782470e+03
5.419008e+02,7.791065e+03
5.447935e+02,7.799396e+03
5.476862e+02,7.786893e+03
5.505789e+02,7.787577e+03
5.534716e+02,7.778252e+03
5.563643e+02,7.776843e+03
5.592570e+02,7.794752e+03
5.621497e+02,7.830950e+03
5.650424e+02,7.772786e+03
5.679351e+02,7.755952e+03
5.708278e+02,7.733443e+03
5.737205e+02,7.757485e+03
5.766132e+02,7.786039e+03
5.795059e+02,7.770626e+03
5.823986e+02,7.754320e+03
5.852913e+02,7.760857e+03
5.881840e+02,7.756563e+03
5.910767e+02,7.763879e+03
5.939694e+02,7.761033e+03
5.968621e+02,7.735097e+03
5.997548e+02,7.725298e+03
6.026475e+02,7.753904e+03
6.055402e+02,7.761119e+03
6.084329e+02,7.749160e+03
6.113256e+02,7.739392e+03
6.142183e+02,7.731341e+03
6.171110e+02,7.746992e+03
6.200037e+02,7.719905e+03
6.228964e+02,7.726813e+03
6.257891e+02,7.760295e+03
6.286818e+02,7.715856e+03
6.315745e+02,7.708952e+03
6.344672e+02,7.711810e+03
6.373599e+02,7.708413e+03
6.402526e+02,7.712138e+03
6.431453e+02,7.692576e+03
6.460380e+02,7.665369e+03
6.489307e+02,7.671273e+03
6.518234e+02,7.701696e+03
6.547161e+02,7.679561e+03
6.576088e+02,7.660585e+03
6.605015e+02,7.655294e+03
6.633942e+02,7.658099e+03
6.662869e+02,7.664477e+03
6.691796e+02,7.686517e+03
6.720723e+02,7.686547e+03
6.749650e+02,7.653959e+03
6.778577e+02,7.674897e+03
6.807504e+02,7.635632e+03
6.836431e+02,7.669115e+03
6.865358e+02,7.646952e+03
6.894285e+02,7.631862e+03
6.923212e+02,7.593992e+03
6.952139e+02,7.638929e+03
6.981066e+02,7.640439e+03
7.009993e+02,7.591308e+03
7.038920e+02,7.603563e+03
7.067847e+02,7.587611e+03
7.096774e+02,7.622429e+03
7.125701e+02,7.583697e+03
7.154628e+02,7.619563e+03
7.183555e+02,7.585656e+03
7.212482e+02,7.575213e+03
7.241409e+02,7.575705e+03
7.270336e+02,7.559744e+03
7.299263e+02,7.560619e+03
7.328190e+02,7.568029e+03
7.357117e+02,7.530454e+03
7.386044e+02,7.549485e+03
7.414971e+02,7.537279e+03
7.443898e+02,7.531970e+03
7.472825e+02,7.571718e+03
7.501752e+02,7.536973e+03
7.530679e+02,7.539417e+03
7.559606e+02,7.544327e+03
7.588533e+02,7.520702e+03
7.617460e+02,7.499356e+03
7.646387e+02,7.509418e+03
7.675314e+02,7.488579e+03
7.704241e+02,7.468177e+03
7.733168e+02,7.469772e+03
7.762095e+02,7.475922e+03
7.791022e+02,7.490677e+03
7.819949e+02,7.470789e+03
7.848876e+02,7.465649e+03
7.877803e+02,7.476420e+03
7.906730e+02,7.458973e+03
7.935657e+02,7.453688e+03
7.964584e+02,7.437247e+03
7.993511e+02,7.436017e+03
8.022438e+02,7.426734e+03
8.051365e+02,7.391282e+03
8.080292e+02,7.411838e+03
8.109219e+02,7.412163e+03
8.138146e+02,7.398081e+03
8.167073e+02,7.413686e+03
8.196000e+02,7.372188e+03
8.224927e+02,7.386720e+03
8.253854e+02,7.381778e+03
8.282781e+02,7.336130e+03
8.311708e+02,7.347363e+03
8.340635e+02,7.374647e+03
8.369562e+02,7.360946e+03
8.398489e+02,7.347959e+03
8.427416e+02,7.349719e+03
8.456343e+02,7.306761e+03
8.485270e+02,7.292738e+03
8.514197e+02,7.313117e+03
8.543124e+02,7.311750e+03
8.572051e+02,7.294678e+03
8.600978e+02,7.306005e+03
8.629905e+02,7.261693e+03
8.658832e+02,7.272427e+03
8.687759e+02,7.280156e+03
8.716686e+02,7.273433e+03
8.745613e+02,7.267500e+03
8.774540e+02,7.243626e+03
8.803467e+02,7.259320e+03
8.832394e+02,7.253862e+03
8.861321e+02,7.259085e+03
8.890248e+02,7.232899e+03
8.919175e+02,7.229711e+03
8.948102e+02,7.185529e+03
8.977029e+02,7.215985e+03
9.005956e+02,7.189979e+03
9.034883e+02,7.218364e+03
9.063810e+02,7.168099e+03
9.092737e+02,7.163888e+03
9.121664e+02,7.151707e+03
9.150591e+02,7.154086e+03
9.179518e+02,7.187857e+03
9.208445e+02,7.128513e+03
9.237372e+02,7.114669e+03
9.266299e+02,7.096173e+03
9.295226e+02,7.104923e+03
9.324153e+02,7.105230e+03
9.353080e+02,7.105211e+03
9.382007e+02,7.084961e+03
9.410934e+02,7.067133e+03
9.439861e+02,7.081675e+03
9.468788e+02,7.062396e+03
9.497715e+02,7.078089e+03
9.526642e+02,7.056982e+03
9.555569e+02,7.035268e+03
9.584496e+02,7.037344e+03
9.613423e+02,7.057786e+03
9.642350e+02,7.026326e+03
9.671277e+02,7.018576e+03
9.700204e+02,7.010554e+03
9.729131e+02,6.978034e+03
9.758058e+02,6.995276e+03
9.786985e+02,6.990439e+03
9.815912e+02,6.969657e+03
9.844839e+02,6.925392e+03
9.873766e+02,6.940032e+03
9.902693e+02,6.938633e+03
9.931620e+02,6.948221e+03
9.960547e+02,6.938705e+03
9.989474e+02,6.942657e+03
1.001840e+03,6.909429e+03
1.004733e+03,6.901572e+03
1.007626e+03,6.913943e+03
1.010518e+03,6.899792e+03
1.013411e+03,6.894391e+03
1.016304e+03,6.871047e+03
1.019196e+03,6.847720e+03
1.022089e+03,6.852858e+03
1.024982e+03,6.858572e+03
1.027875e+03,6.856733e+03
1.030767e+03,6.817903e+03
1.033660e+03,6.840563e+03
1.036552e+03,6.848313e+03
1.039445e+03,6.851925e+03
1.042338e+03,6.835347e+03
1.045231e+03,6.806338e+03
1.048123e+03,6.779875e+03
1.051016e+03,6.803846e+03
1.053909e+03,6.815799e+03
1.056802e+03,6.766857e+03
1.059694e+03,6.779866e+03
1.062587e+03,6.736356e+03
1.065479e+03,6.736583e+03
1.068372e+03,6.741970e+03
1.071265e+03,6.744787e+03
1.074158e+03,6.738280e+03
1.077050e+03,6.706922e+03
1.079943e+03,6.724947e+03
1.082836e+03,6.730647e+03
1.085729e+03,6.715119e+03
1.088621e+03,6.732507e+03
1.091514e+03,6.696542e+03
1.094406e+03,6.681674e+03
1.097299e+03,6.680569e+03
1.100192e+03,6.696330e+03
1.103085e+03,6.680439e+03
1.105977e+03,6.684321e+03
1.108870e+03,6.647152e+03
1.111763e+03,6.647582e+03
1.114656e+03,6.649776e+03
1.117548e+03,6.645427e+03
1.120441e+03,6.661990e+03
1.123334e+03,6.640934e+03
1.126226e+03,6.599276e+03
1.129119e+03,6.599384e+03
1.132012e+03,6.621521e+03
1.134904e+03,6.582633e+03
1.137797e+03,6.547313e+03
1.140690e+03,6.544271e+03
1.143583e+03,6.563437e+03
1.146475e+03,6.530689e+03
1.149368e+03,6.556000e+03
1.152261e+03,6.556622e+03
1.155153e+03,6.502561e+03
1.158046e+03,6.502641e+03
1.160939e+03,6.495084e+03
1.163831e+03,6.491010e+03
1.166724e+03,6.480902e+03
1.169617e+03,6.453958e+03
1.172510e+03,6.441410e+03
1.175402e+03,6.449444e+03
1.178295e+03,6.454342e+03
1.181188e+03,6.455575e+03
1.184080e+03,6.433700e+03
1.186973e+03,6.402640e+03
1.189866e+03,6.384865e+03
1.192758e+03,6.395259e+03
1.195651e+03,6.407244e+03
1.198544e+03,6.404537e+03
1.201437e+03,6.401779e+03
1.204329e+03,6.357830e+03
1.207222e+03,6.364041e+03
1.210115e+03,6.367842e+03
1.213007e+03,6.350697e+03
1.215900e+03,6.350008e+03
1.218793e+03,6.347716e+03
1.221685e+03,6.330628e+03
1.224578e+03,6.328319e+03
1.227471e+03,6.329951e+03
1.230364e+03,6.308252e+03
1.233256e+03,6.281792e+03
1.236149e+03,6.247818e+03
1.239042e+03,6.261169e+03
1.241934e+03,6.282425e+03
1.244827e+03,6.248928e+03
1.247720e+03,6.256031e+03
1.250612e+03,6.229243e+03
1.253505e+03,6.227940e+03
1.256398e+03,6.220903e+03
1.259291e+03,6.231752e+03
1.262183e+03,6.210843e+03
1.265076e+03,6.201672e+03
1.267969e+03,6.183818e+03
1.270861e+03,6.200777e+03
1.273754e+03,6.198110e+03
1.276647e+03,6.216105e+03
1.279539e+03,6.190407e+03
1.282432e+03,6.180263e+03
1.285325e+03,6.165733e+03
1.288218e+03,6.177609e+03
1.291110e+03,6.148080e+03
1.294003e+03,6.134540e+03
1.296896e+03,6.118023e+03
1.299788e+03,6.103418e+03
1.302681e+03,6.117496e+03
1.305574e+03,6.089839e+03
1.308466e+03,6.091658e+03
1.311359e+03,6.075658e+03
1.314252e+03,6.047386e+03
1.317145e+03,6.064732e+03
1.320037e+03,6.060496e+03
1.322930e+03,6.060715e+03
1.325823e+03,6.043146e+03
1.328715e+03,6.016061e+03
1.331608e+03,6.044424e+03
1.334501e+03,6.036323e+03
1.337393e+03,6.023259e+03
1.340286e+03,6.023965e+03
1.343179e+03,6.014715e+03
1.346072e+03,5.989816e+03
1.348964e+03,5.984657e+03
1.351857e+03,5.990495e+03
1.354750e+03,5.957881e+03
1.357642e+03,5.951961e+03
1.360535e+03,5.923826e+03
1.363428e+03,5.940408e+03
1.366320e+03,5.956122e+03
1.369213e+03,5.933304e+03
1.372106e+03,5.917359e+03
1.374999e+03,5.921952e+03
1.377891e+03,5.933366e+03
1.380784e+03,5.882479e+03
1.383677e+03,5.899750e+03
1.386569e+03,5.864342e+03
1.389462e+03,5.852650e+03
1.392355e+03,5.840555e+03
1.395247e+03,5.842431e+03
1.398140e+03,5.849804e+03
1.401033e+03,5.839118e+03
1.403926e+03,5.810839e+03
1.406818e+03,5.797225e+03
1.409711e+03,5.804446e+03
1.412604e+03,5.807692e+03
1.415496e+03,5.814818e+03
1.418389e+03,5.772310e+03
1.421282e+03,5.784930e+03
1.424174e+03,5.750120e+03
1.427067e+03,5.756406e+03
1.429960e+03,5.778581e+03
1.432853e+03,5.749209e+03
1.435745e+03,5.725638e+03
1.438638e+03,5.717747e+03
1.441531e+03,5.704225e+03
1.444423e+03,5.694037e+03
1.447316e+03,5.701361e+03
1.450209e+03,5.685926e+03
1.453101e+03,5.675284e+03
1.455994e+03,5.654792e+03
1.458887e+03,5.675161e+03
1.461780e+03,5.678489e+03
1.464672e+03,5.675696e+03
1.467565e+03,5.642133e+03
1.470458e+03,5.627719e+03
1.473350e+03,5.637927e+03
1.476243e+03,5.642673e+03
1.479136e+03,5.638181e+03
1.482028e+03,5.597413e+03
1.484921e+03,5.578266e+03
1.487814e+03,5.597057e+03
1.490707e+03,5.585021e+03
1.493599e+03,5.547981e+03
1.496492e+03,5.558342e+03
1.499385e+03,5.547372e+03
1.502277e+03,5.544510e+03
1.505170e+03,5.549380e+03
1.508063e+03,5.532280e+03
1.510955e+03,5.525927e+03
1.513848e+03,5.501042e+03
1.516741e+03,5.517782e+03
1.519634e+03,5.491056e+03
1.522526e+03,5.508979e+03
1.525419e+03,5.458349e+03
1.528312e+03,5.449282e+03
1.531204e+03,5.455657e+03
1.534097e+03,5.434421e+03
1.536990e+03,5.430954e+03
1.539882e+03,5.412845e+03
1.542775e+03,5.430201e+03
1.545668e+03,5.409318e+03
1.548561e+03,5.411897e+03
1.551453e+03,5.412442e+03
1.554346e+03,5.413266e+03
1.557239e+03,5.415993e+03
1.560131e+03,5.386089e+03
1.563024e+03,5.387007e+03
1.565917e+03,5.376871e+03
1.568809e+03,5.387259e+03
1.571702e+03,5.387159e+03
1.574595e+03,5.333908e+03
1.577488e+03,5.346610e+03
1.580380e+03,5.352981e+03
1.583273e+03,5.351833e+03
1.586166e+03,5.330051e+03
1.589058e+03,5.331081e+03
1.591951e+03,5.300626e+03
1.594844e+03,5.321516e+03
1.597736e+03,5.292223e+03
1.600629e+03,5.283478e+03
1.603522e+03,5.301142e+03
1.606415e+03,5.247859e+03
1.609307e+03,5.237161e+03
1.612200e+03,5.266148e+03
1.615093e+03,5.250351e+03
1.617985e+03,5.233385e+03
1.620878e+03,5.222618e+03
1.623771e+03,5.196080e+03
1.626663e+03,5.179092e+03
1.629556e+03,5.189977e+03
1.632449e+03,5.176967e+03
1.635342e+03,5.171969e+03
1.638234e+03,5.185797e+03
1.641127e+03,5.138973e+03
1.644020e+03,5.120506e+03
1.646912e+03,5.151954e+03
1.649805e+03,5.143147e+03
1.652698e+03,5.106096e+03
1.655590e+03,5.072630e+03
1.658483e+03,5.082986e+03
1.661376e+03,5.087351e+03
1.664269e+03,5.068283e+03
1.667161e+03,5.055150e+03
1.670054e+03,5.031640e+03
1.672947e+03,5.054339e+03
1.675839e+03,5.035788e+03
1.678732e+03,5.025833e+03
1.681625e+03,5.020807e+03
1.684517e+03,5.015731e+03
1.687410e+03,4.994822e+03
1.690303e+03,4.996500e+03
1.693196e+03,5.008189e+03
1.696088e+03,4.971384e+03
1.698981e+03,4.978392e+03
1.701874e+03,4.971429e+03
1.704766e+03,4.969580e+03
1.707659e+03,4.948875e+03
1.710552e+03,4.949475e+03
1.713444e+03,4.910453e+03
1.716337e+03,4.911357e+03
1.719230e+03,4.897780e+03
1.722123e+03,4.899773e+03
1.725015e+03,4.876139e+03
1.727908e+03,4.885322e+03
1.730801e+03,4.866383e+03
1.733693e+03,4.857060e+03
1.736586e+03,4.843921e+03
1.739479e+03,4.852753e+03
1.742371e+03,4.857231e+03
1.745264e+03,4.843620e+03
1.748157e+03,4.820964e+03
1.751050e+03,4.812538e+03
1.753942e+03,4.787820e+03
1.756835e+03,4.798366e+03
1.759728e+03,4.788806e+03
1.762620e+03,4.767749e+03
1.765513e+03,4.765669e+03
1.768406e+03,4.751919e+03
1.771298e+03,4.766960e+03
1.774191e+03,4.734735e+03
1.777084e+03,4.734992e+03
1.779977e+03,4.728977e+03
1.782869e+03,4.724114e+03
1.785762e+03,4.751808e+03
1.788655e+03,4.711375e+03
1.791547e+03,4.702713e+03
1.794440e+03,4.663817e+03
1.797333e+03,4.667185e+03
1.800225e+03,4.684636e+03
1.803118e+03,4.675109e+03
1.806011e+03,4.664177e+03
1.808904e+03,4.637758e+03
1.811796e+03,4.684839e+03
1.814689e+03,4.651174e+03
1.817582e+03,4.620325e+03
1.820474e+03,4.611856e+03
1.823367e+03,4.589412e+03
1.826260e+03,4.584186e+03
1.829152e+03,4.596114e+03
1.832045e+03,4.612125e+03
1.834938e+03,4.580286e+03
1.837831e+03,4.568540e+03
1.840723e+03,4.583336e+03
1.843616e+03,4.578881e+03
1.846509e+03,4.535875e+03
1.849401e+03,4.530369e+03
1.852294e+03,4.522999e+03
1.855187e+03,4.526831e+03
1.858079e+03,4.534052e+03
1.860972e+03,4.521919e+03
1.863865e+03,4.495724e+03
1.866758e+03,4.492718e+03
1.869650e+03,4.466946e+03
1.872543e+03,4.476104e+03
1.875436e+03,4.462357e+03
1.878328e+03,4.460049e+03
1.881221e+03,4.449563e+03
1.884114e+03,4.412294e+03
1.887006e+03,4.414478e+03
1.889899e+03,4.407419e+03
1.892792e+03,4.413925e+03
1.895685e+03,4.379405e+03
1.898577e+03,4.394227e+03
1.901470e+03,4.385930e+03
1.904363e+03,4.366918e+03
1.907255e+03,4.366405e+03
1.910148e+03,4.339344e+03
1.913041e+03,4.350624e+03
1.915933e+03,4.330718e+03
1.918826e+03,4.315386e+03
1.921719e+03,4.294226e+03
1.924612e+03,4.311720e+03
1.927504e+03,4.320657e+03
1.930397e+03,4.298061e+03
1.933290e+03,4.300553e+03
1.936182e+03,4.321436e+03
1.939075e+03,4.287842e+03
1.941968e+03,4.232216e+03
1.944860e+03,4.259537e+03
1.947753e+03,4.236239e+03
1.950646e+03,4.222423e+03
1.953539e+03,4.260017e+03
1.956431e+03,4.211943e+03
1.959324e+03,4.205002e+03
1.962217e+03,4.194417e+03
1.965109e+03,4.176015e+03
1.968002e+03,4.194600e+03
1.970895e+03,4.161789e+03
1.973787e+03,4.147245e+03
1.976680e+03,4.135106e+03
1.979573e+03,4.143228e+03
1.982466e+03,4.123920e+03
1.985358e+03,4.131299e+03
1.988251e+03,4.096709e+03
1.991144e+03,4.080530e+03
1.994036e+03,4.121386e+03
1.996929e+03,4.097645e+03
1.999822e+03,4.077733e+03
2.002714e+03,4.072269e+03
2.005607e+03,4.063225e+03
2.008500e+03,4.052565e+03
2.011393e+03,4.043326e+03
2.014285e+03,4.038809e+03
2.017178e+03,4.027558e+03
2.020071e+03,4.000817e+03
2.022963e+03,4.019133e+03
2.025856e+03,3.981067e+03
2.028749e+03,3.979466e+03
2.031641e+03,3.990817e+03
2.034534e+03,3.972669e+03
2.037427e+03,3.980180e+03
2.040320e+03,3.952792e+03
2.043212e+03,3.935668e+03
2.046105e+03,3.949477e+03
2.048998e+03,3.930913e+03
2.051890e+03,3.936807e+03
2.054783e+03,3.914984e+03
2.057676e+03,3.891014e+03
2.060568e+03,3.891579e+03
2.063461e+03,3.895129e+03
2.066354e+03,3.865879e+03
2.069247e+03,3.833675e+03
2.072139e+03,3.820014e+03
2.075032e+03,3.826329e+03
2.077925e+03,3.837270e+03
2.080817e+03,3.849353e+03
2.083710e+03,3.817924e+03
2.086603e+03,3.776012e+03
2.089496e+03,3.786730e+03
2.092388e+03,3.773133e+03
2.095281e+03,3.754989e+03
2.098174e+03,3.768043e+03
2.101066e+03,3.724434e+03
2.103959e+03,3.728771e+03
2.106852e+03,3.729471e+03
2.109744e+03,3.742683e+03
2.112637e+03,3.733872e+03
2.115530e+03,3.696841e+03
2.118422e+03,3.682274e+03
2.121315e+03,3.712598e+03
2.124208e+03,3.702881e+03
2.127101e+03,3.645524e+03
2.129993e+03,3.667653e+03
2.132886e+03,3.679059e+03
2.135779e+03,3.631395e+03
2.138671e+03,3.625034e+03
2.141564e+03,3.649895e+03
2.144457e+03,3.616569e+03
2.147350e+03,3.606083e+03
2.150242e+03,3.559000e+03
2.153135e+03,3.631005e+03
2.156028e+03,3.571169e+03
2.158920e+03,3.574836e+03
2.161813e+03,3.552065e+03
2.164706e+03,3.543353e+03
2.167598e+03,3.551369e+03
2.170491e+03,3.566246e+03
2.173384e+03,3.537799e+03
2.176277e+03,3.507774e+03
2.179169e+03,3.499734e+03
2.182062e+03,3.505202e+03
2.184955e+03,3.475437e+03
2.187847e+03,3.482875e+03
2.190740e+03,3.482951e+03
2.193633e+03,3.477366e+03
2.196525e+03,3.436939e+03
2.199418e+03,3.429005e+03
2.202311e+03,3.426707e+03
2.205204e+03,3.441105e+03
2.208096e+03,3.412313e+03
2.210989e+03,3.373500e+03
2.213882e+03,3.395897e+03
2.216774e+03,3.418343e+03
2.219667e+03,3.382436e+03
2.222560e+03,3.372098e+03
2.225452e+03,3.350329e+03
2.228345e+03,3.338677e+03
2.231238e+03,3.330043e+03
2.234131e+03,3.338276e+03
2.237023e+03,3.326999e+03
2.239916e+03,3.316434e+03
2.242809e+03,3.278124e+03
2.245701e+03,3.281088e+03
2.248594e+03,3.288822e+03
2.251487e+03,3.279147e+03
2.254379e+03,3.262436e+03
2.257272e+03,3.236624e+03
2.260165e+03,3.217231e+03
2.263058e+03,3.252057e+03
2.265950e+03,3.229617e+03
2.268843e+03,3.227850e+03
2.271736e+03,3.177118e+03
2.274628e+03,3.214223e+03
2.277521e+03,3.197968e+03
2.280414e+03,3.181407e+03
2.283306e+03,3.179385e+03
2.286199e+03,3.145835e+03
2.289092e+03,3.137185e+03
2.291985e+03,3.135974e+03
2.294877e+03,3.145659e+03
2.297770e+03,3.130778e+03
2.300663e+03,3.125938e+03
2.303555e+03,3.102037e+03
2.306448e+03,3.109096e+03
2.309341e+03,3.091926e+03
2.312233e+03,3.087408e+03
2.315126e+03,3.075999e+03
2.318019e+03,3.080374e+03
2.320912e+03,3.040396e+03
2.323804e+03,3.032689e+03
2.326697e+03,3.027607e+03
2.329590e+03,3.076042e+03
2.332482e+03,3.018450e+03
2.335375e+03,3.010915e+03
2.338268e+03,3.001751e+03
2.341160e+03,2.996189e+03
2.344053e+03,3.012479e+03
2.346946e+03,2.969875e+03
2.349839e+03,2.978793e+03
2.352731e+03,2.974542e+03
2.355624e+03,2.966752e+03
2.358517e+03,2.952718e+03
2.361409e+03,2.955889e+03
2.364302e+03,2.933468e+03
2.367195e+03,2.901205e+03
2.370087e+03,2.908993e+03
2.372980e+03,2.896417e+03
2.375873e+03,2.898477e+03
2.378766e+03,2.889931e+03
2.381658e+03,2.871089e+03
2.384551e+03,2.873634e+03
2.387444e+03,2.843426e+03
2.390336e+03,2.861013e+03
2.393229e+03,2.862145e+03
2.396122e+03,2.821844e+03
2.399014e+03,2.811940e+03
2.401907e+03,2.838545e+03
2.404800e+03,2.835340e+03
2.407693e+03,2.819342e+03
2.410585e+03,2.810396e+03
2.413478e+03,2.779388e+03
2.416371e+03,2.778477e+03
2.419263e+03,2.771230e+03
2.422156e+03,2.775706e+03
2.425049e+03,2.810183e+03
2.427941e+03,2.765703e+03
2.430834e+03,2.746196e+03
2.433727e+03,2.750625e+03
2.436620e+03,2.726761e+03
2.439512e+03,2.720375e+03
2.442405e+03,2.725228e+03
2.445298e+03,2.707316e+03
2.448190e+03,2.706166e+03
2.451083e+03,2.697510e+03
2.453976e+03,2.677136e+03
2.456868e+03,2.668520e+03
2.459761e+03,2.679966e+03
2.462654e+03,2.659341e+03
2.465547e+03,2.638191e+03
2.468439e+03,2.666472e+03
2.471332e+03,2.627930e+03
2.474225e+03,2.620542e+03
2.477117e+03,2.624150e+03
2.480010e+03,2.644214e+03
2.482903e+03,2.639098e+03
2.485795e+03,2.633828e+03
2.488688e+03,2.601248e+03
2.491581e+03,2.597698e+03
2.494474e+03,2.574886e+03
2.497366e+03,2.587702e+03
2.500259e+03,2.575621e+03
2.503152e+03,2.587474e+03
2.506044e+03,2.546564e+03
2.508937e+03,2.555082e+03
2.511830e+03,2.547038e+03
2.514722e+03,2.538724e+03
2.517615e+03,2.544987e+03
2.520508e+03,2.527329e+03
2.523401e+03,2.544623e+03
2.526293e+03,2.520363e+03
2.529186e+03,2.523387e+03
2.532079e+03,2.502109e+03
2.534971e+03,2.520900e+03
2.537864e+03,2.478797e+03
2.540757e+03,2.491728e+03
2.543649e+03,2.480662e+03
2.546542e+03,2.486483e+03
2.549435e+03,2.461837e+03
2.552328e+03,2.460899e+03
2.555220e+03,2.461249e+03
2.558113e+03,2.467320e+03
2.561006e+03,2.448038e+03
2.563898e+03,2.464827e+03
2.566791e+03,2.408950e+03
2.569684e+03,2.433071e+03
2.572576e+03,2.421369e+03
2.575469e+03,2.426793e+03
2.578362e+03,2.433169e+03
2.581255e+03,2.377654e+03
2.584147e+03,2.393523e+03
2.587040e+03,2.392516e+03
2.589933e+03,2.392064e+03
2.592825e+03,2.364031e+03
2.595718e+03,2.367081e+03
2.598611e+03,2.364389e+03
2.601503e+03,2.344528e+03
2.604396e+03,2.358984e+03
2.607289e+03,2.354698e+03
2.610182e+03,2.358746e+03
2.613074e+03,2.339733e+03
2.615967e+03,2.330876e+03
2.618860e+03,2.305557e+03
2.621752e+03,2.302993e+03
2.624645e+03,2.302255e+03
2.627538e+03,2.322760e+03
2.630430e+03,2.291273e+03
2.633323e+03,2.272725e+03
2.636216e+03,2.308237e+03
2.639109e+03,2.290506e+03
2.642001e+03,2.307368e+03
2.644894e+03,2.266581e+03
2.647787e+03,2.267825e+03
2.650679e+03,2.256223e+03
2.653572e+03,2.258181e+03
2.656465e+03,2.257270e+03
2.659357e+03,2.213657e+03
2.662250e+03,2.227759e+03
2.665143e+03,2.252397e+03
2.668036e+03,2.214872e+03
2.670928e+03,2.214985e+03
2.673821e+03,2.231113e+03
2.676714e+03,2.233742e+03
2.679606e+03,2.195860e+03
2.682499e+03,2.208407e+03
2.685392e+03,2.188844e+03
2.688284e+03,2.199108e+03
2.691177e+03,2.173290e+03
2.694070e+03,2.209208e+03
2.696963e+03,2.193527e+03
2.699855e+03,2.171793e+03
2.702748e+03,2.155009e+03
2.705641e+03,2.154481e+03
2.708533e+03,2.140514e+03
2.711426e+03,2.123235e+03
2.714319e+03,2.155477e+03
2.717211e+03,2.145073e+03
2.720104e+03,2.135051e+03
2.722997e+03,2.138037e+03
2.725890e+03,2.136513e+03
2.728782e+03,2.126153e+03
2.731675e+03,2.102243e+03
2.734568e+03,2.118303e+03
2.737460e+03,2.092573e+03
2.740353e+03,2.097454e+03
2.743246e+03,2.093856e+03
2.746138e+03,2.104290e+03
2.749031e+03,2.096763e+03
2.751924e+03,2.065172e+03
2.754817e+03,2.061772e+03
2.757709e+03,2.058978e+03
2.760602e+03,2.055759e+03
2.763495e+03,2.083040e+03
2.766387e+03,2.068466e+03
2.769280e+03,2.064252e+03
2.772173e+03,2.053521e+03
2.775065e+03,2.045079e+03
2.777958e+03,2.047328e+03
2.780851e+03,2.052118e+03
2.783744e+03,2.003408e+03
2.786636e+03,2.024286e+03
2.789529e+03,2.010186e+03
2.792422e+03,2.029444e+03
2.795314e+03,2.007157e+03
2.798207e+03,2.016225e+03
2.801100e+03,2.017207e+03
2.803992e+03,2.008966e+03
2.806885e+03,2.013808e+03
2.809778e+03,1.978857e+03
2.812671e+03,1.986468e+03
2.815563e+03,1.976609e+03
2.818456e+03,1.971240e+03
2.821349e+03,1.948057e+03
2.824241e+03,1.955958e+03
2.827134e+03,1.962999e+03
2.830027e+03,1.954570e+03
2.832919e+03,1.950795e+03
2.835812e+03,1.932357e+03
2.838705e+03,1.949367e+03
2.841598e+03,1.979048e+03
2.844490e+03,1.934960e+03
2.847383e+03,1.968525e+03
2.850276e+03,1.928888e+03
2.853168e+03,1.950112e+03
2.856061e+03,1.956169e+03
2.858954e+03,1.952083e+03
2.861846e+03,1.928258e+03
2.864739e+03,1.920943e+03
2.867632e+03,1.930904e+03
2.870525e+03,1.941915e+03
2.873417e+03,1.917070e+03
2.876310e+03,1.904478e+03
2.879203e+03,1.924882e+03
2.882095e+03,1.876008e+03
2.884988e+03,1.926229e+03
2.887881e+03,1.932775e+03
2.890773e+03,1.900422e+03
2.893666e+03,1.896389e+03
2.896559e+03,1.853972e+03
2.899452e+03,1.896555e+03
2.902344e+03,1.895528e+03
2.905237e+03,1.894354e+03
2.908130e+03,1.874589e+03
2.911022e+03,1.864604e+03
2.913915e+03,1.893482e+03
2.916808e+03,1.866284e+03
2.919700e+03,1.863540e+03
2.922593e+03,1.840579e+03
2.925486e+03,1.841561e+03
2.928379e+03,1.849160e+03
2.931271e+03,1.835242e+03
2.934164e+03,1.836299e+03
2.937057e+03,1.841934e+03
2.939949e+03,1.821782e+03
2.942842e+03,1.830216e+03
2.945735e+03,1.782020e+03
2.948627e+03,1.800279e+03
2.951520e+03,1.801238e+03
2.954413e+03,1.800291e+03
2.957306e+03,1.830514e+03
2.960198e+03,1.793630e+03
2.963091e+03,1.806438e+03
2.965984e+03,1.803896e+03
2.968876e+03,1.799325e+03
2.971769e+03,1.762090e+03
2.974662e+03,1.778051e+03
2.977554e+03,1.781272e+03
2.980447e+03,1.780557e+03
2.983340e+03,1.769785e+03
2.986233e+03,1.734732e+03
2.989125e+03,1.752463e+03
2.992018e+03,1.730763e+03
2.994911e+03,1.777849e+03
2.997803e+03,1.718150e+03
3.000696e+03,1.724567e+03
3.003589e+03,1.761270e+03
3.006481e+03,1.737026e+03
3.009374e+03,1.709082e+03
3.012267e+03,1.774488e+03
3.015160e+03,1.697165e+03
3.018052e+03,1.698974e+03
3.020945e+03,1.760778e+03
3.023838e+03,1.678923e+03
3.026730e+03,1.689375e+03
3.029623e+03,1.690314e+03
3.032516e+03,1.670355e+03
3.035408e+03,1.689124e+03
3.038301e+03,1.716307e+03
3.041194e+03,1.722037e+03
3.044087e+03,1.659288e+03
3.046979e+03,1.683479e+03
3.049872e+03,1.658783e+03
3.052765e+03,1.683057e+03
3.055657e+03,1.688576e+03
3.058550e+03,1.656109e+03
3.061443e+03,1.693350e+03
3.064335e+03,1.672950e+03
3.067228e+03,1.668946e+03
3.070121e+03,1.662055e+03
3.073014e+03,1.671518e+03
3.075906e+03,1.689853e+03
3.078799e+03,1.657771e+03
3.081692e+03,1.675281e+03
3.084584e+03,1.648121e+03
3.087477e+03,1.623945e+03
3.090370e+03,1.693198e+03
3.093262e+03,1.641575e+03
3.096155e+03,1.649299e+03
3.099048e+03,1.625433e+03
3.101941e+03,1.643309e+03
3.104833e+03,1.619919e+03
3.107726e+03,1.605836e+03
3.110619e+03,1.660633e+03
3.113511e+03,1.660716e+03
3.116404e+03,1.640644e+03
3.119297e+03,1.695824e+03
3.122189e+03,1.596271e+03
3.125082e+03,1.677397e+03
3.127975e+03,1.636299e+03
3.130868e+03,1.600844e+03
3.133760e+03,1.619871e+03
3.136653e+03,1.627913e+03
3.139546e+03,1.609684e+03
3.142438e+03,1.623305e+03
3.145331e+03,1.594070e+03
3.148224e+03,1.649179e+03
3.151116e+03,1.645898e+03
3.154009e+03,1.629583e+03
3.156902e+03,1.612217e+03
3.159795e+03,1.523058e+03
3.162687e+03,1.664158e+03
3.165580e+03,1.629559e+03
3.168473e+03,1.677637e+03
3.171365e+03,1.614688e+03
3.174258e+03,1.587363e+03
3.177151e+03,1.599367e+03
3.180043e+03,1.610000e+03
3.182936e+03,1.670238e+03
3.185829e+03,1.653478e+03
3.188722e+03,1.592482e+03
3.191614e+03,1.667752e+03
3.194507e+03,1.587083e+03
3.197400e+03,1.596941e+03
3.200292e+03,1.686018e+03
3.203185e+03,0.000000e+00
3.206078e+03,0.000000e+00
3.208970e+03,0.000000e+00
3.211863e+03,0.000000e+00
3.214756e+03,0.000000e+00
3.217649e+03,0.000000e+00
3.220541e+03,0.000000e+00
3.223434e+03,0.000000e+00
3.226327e+03,0.000000e+00
3.229219e+03,0.000000e+00
3.232112e+03,0.000000e+00
3.235005e+03,0.000000e+00
3.237897e+03,0.000000e+00
3.240790e+03,0.000000e+00
3.243683e+03,0.000000e+00
3.246576e+03,0.000000e+00
3.249468e+03,0.000000e+00
3.252361e+03,0.000000e+00
3.255254e+03,0.000000e+00
3.258146e+03,0.000000e+00
3.261039e+03,0.000000e+00
3.263932e+03,0.000000e+00
3.266824e+03,0.000000e+00
3.269717e+03,0.000000e+00
3.272610e+03,0.000000e+00
3.275503e+03,0.000000e+00
3.278395e+03,0.000000e+00
3.281288e+03,0.000000e+00
3.284181e+03,0.000000e+00
3.287073e+03,0.000000e+00
3.289966e+03,0.000000e+00
3.292859e+03,0.000000e+00
3.295751e+03,0.000000e+00
3.298644e+03,0.000000e+00
3.301537e+03,0.000000e+00
3.304430e+03,0.000000e+00
3.307322e+03,0.000000e+00
3.310215e+03,0.000000e+00
3.313108e+03,0.000000e+00
3.316000e+03,0.000000e+00
3.318893e+03,0.000000e+00
3.321786e+03,0.000000e+00
3.324678e+03,0.000000e+00
3.327571e+03,0.000000e+00
3.330464e+03,0.000000e+00
3.333357e+03,0.000000e+00
3.336249e+03,0.000000e+00
3.339142e+03,0.000000e+00
3.342035e+03,0.000000e+00
3.344927e+03,0.000000e+00
3.347820e+03,0.000000e+00
3.350713e+03,0.000000e+00
3.353605e+03,0.000000e+00
3.356498e+03,0.000000e+00
3.359391e+03,0.000000e+00
3.362284e+03,0.000000e+00
3.365176e+03,0.000000e+00
3.368069e+03,0.000000e+00
3.370962e+03,0.000000e+00
3.373854e+03,0.000000e+00
3.376747e+03,0.000000e+00
3.379640e+03,0.000000e+00
3.382532e+03,0.000000e+00
3.385425e+03,0.000000e+00
3.388318e+03,0.000000e+00
3.391211e+03,0.000000e+00
3.394103e+03,0.000000e+00
3.396996e+03,0.000000e+00
3.399889e+03,0.000000e+00
3.402781e+03,0.000000e+00
3.405674e+03,0.000000e+00
3.408567e+03,0.000000e+00
3.411459e+03,0.000000e+00
3.414352e+03,0.000000e+00
3.417245e+03,0.000000e+00
3.420138e+03,0.000000e+00
3.423030e+03,0.000000e+00
3.425923e+03,0.000000e+00
3.428816e+03,0.000000e+00
3.431708e+03,0.000000e+00
3.434601e+03,0.000000e+00
3.437494e+03,0.000000e+00
3.440386e+03,0.000000e+00
3.443279e+03,0.000000e+00
3.446172e+03,0.000000e+00
3.449065e+03,0.000000e+00
3.451957e+03,0.000000e+00
3.454850e+03,0.000000e+00
3.457743e+03,0.000000e+00
3.460635e+03,0.000000e+00
3.463528e+03,0.000000e+00
3.466421e+03,0.000000e+00
3.469313e+03,0.000000e+00
3.472206e+03,0.000000e+00
3.475099e+03,0.000000e+00
3.477992e+03,0.000000e+00
3.480884e+03,0.000000e+00
3.483777e+03,0.000000e+00
3.486670e+03,0.000000e+00
3.489563e+03,0.000000e+00
3.492455e+03,0.000000e+00
3.495348e+03,0.000000e+00
3.498240e+03,0.000000e+00
3.500169e+03,0.000000e+00