File: RAMAN_data/14032024_r1/black fibre7.CSV
9.931763e+01,0.000000e+00
1.022103e+02,0.000000e+00
1.051030e+02,0.000000e+00
1.079957e+02,0.000000e+00
1.108884e+02,0.000000e+00
1.137811e+02,0.000000e+00
1.166738e+02,0.000000e+00
1.195665e+02,0.000000e+00
1.224592e+02,0.000000e+00
1.253519e+02,0.000000e+00
1.282446e+02,0.000000e+00
1.311373e+02,0.000000e+00
1.340300e+02,0.000000e+00
1.369227e+02,0.000000e+00
1.398154e+02,0.000000e+00
1.427081e+02,0.000000e+00
1.456008e+02,0.000000e+00
1.484935e+02,0.000000e+00
1.513862e+02,0.000000e+00
1.542789e+02,0.000000e+00
1.571716e+02,0.000000e+00
1.600643e+02,0.000000e+00
1.629570e+02,0.000000e+00
1.658497e+02,0.000000e+00
1.687424e+02,0.000000e+00
1.716351e+02,0.000000e+00
1.745278e+02,0.000000e+00
1.774205e+02,0.000000e+00
1.803132e+02,0.000000e+00
1.832059e+02,0.000000e+00
1.860986e+02,0.000000e+00
1.889913e+02,0.000000e+00
1.918840e+02,0.000000e+00
1.947767e+02,0.000000e+00
1.976694e+02,0.000000e+00
2.005621e+02,6.830909e+03
2.034548e+02,6.849001e+03
2.063475e+02,6.860902e+03
2.092402e+02,6.885411e+03
2.121329e+02,6.874353e+03
2.150256e+02,6.896970e+03
2.179183e+02,6.897798e+03
2.208110e+02,6.943607e+03
2.237037e+02,6.926899e+03
2.265964e+02,6.908821e+03
2.294892e+02,6.909406e+03
2.323819e+02,6.943648e+03
2.352746e+02,6.978061e+03
2.381673e+02,6.989116e+03
2.410600e+02,6.960284e+03
2.439527e+02,6.993503e+03
2.468454e+02,7.033326e+03
2.497381e+02,7.054221e+03
2.526308e+02,7.035952e+03
2.555235e+02,7.060032e+03
2.584161e+02,7.090669e+03
2.613088e+02,7.109708e+03
2.642015e+02,7.096059e+03
2.670942e+02,7.126243e+03
2.699869e+02,7.115291e+03
2.728796e+02,7.124500e+03
2.757723e+02,7.136871e+03
2.786650e+02,7.134317e+03
2.815577e+02,7.151525e+03
2.844504e+02,7.189831e+03
2.873431e+02,7.171742e+03
2.902358e+02,7.166356e+03
2.931285e+02,7.179481e+03
2.960212e+02,7.200079e+03
2.989139e+02,7.200213e+03
3.018066e+02,7.205242e+03
3.046993e+02,7.226518e+03
3.075920e+02,7.217191e+03
3.104847e+02,7.197060e+03
3.133774e+02,7.253844e+03
3.162701e+02,7.265065e+03
3.191628e+02,7.247321e+03
3.220555e+02,7.263744e+03
3.249482e+02,7.268996e+03
3.278409e+02,7.287115e+03
3.307336e+02,7.313898e+03
3.336263e+02,7.319054e+03
3.365190e+02,7.279896e+03
3.394117e+02,7.331868e+03
3.423044e+02,7.339664e+03
3.451971e+02,7.342899e+03
3.480898e+02,7.351809e+03
3.509825e+02,7.341722e+03
3.538752e+02,7.362533e+03
3.567680e+02,7.377678e+03
3.596607e+02,7.400044e+03
3.625534e+02,7.405163e+03
3.654461e+02,7.373772e+03
3.683388e+02,7.392565e+03
3.712315e+02,7.438115e+03
3.741242e+02,7.434388e+03
3.770169e+02,7.449225e+03
3.799096e+02,7.478466e+03
3.828023e+02,7.436843e+03
3.856950e+02,7.443640e+03
3.885877e+02,7.440705e+03
3.914804e+02,7.459545e+03
3.943731e+02,7.473005e+03
3.972658e+02,7.467386e+03
4.001585e+02,7.468381e+03
4.030512e+02,7.507674e+03
4.059439e+02,7.506499e+03
4.088366e+02,7.518097e+03
4.117293e+02,7.521313e+03
4.146220e+02,7.510700e+03
4.175147e+02,7.501761e+03
4.204074e+02,7.534700e+03
4.233001e+02,7.509052e+03
4.261928e+02,7.519971e+03
4.290855e+02,7.545545e+03
4.319782e+02,7.528291e+03
4.348709e+02,7.544553e+03
4.377636e+02,7.544091e+03
4.406563e+02,7.549147e+03
4.435490e+02,7.552345e+03
4.464417e+02,7.564501e+03
4.493344e+02,7.562097e+03
4.522271e+02,7.601615e+03
4.551198e+02,7.579881e+03
4.580125e+02,7.564661e+03
4.609052e+02,7.588313e+03
4.637979e+02,7.588892e+03
4.666906e+02,7.597385e+03
4.695833e+02,7.588646e+03
4.724760e+02,7.641047e+03
4.753687e+02,7.646477e+03
4.782614e+02,7.660386e+03
4.811541e+02,7.727392e+03
4.840468e+02,7.841335e+03
4.869395e+02,7.887194e+03
4.898322e+02,7.839997e+03
4.927249e+02,7.766180e+03
4.956176e+02,7.716712e+03
4.985103e+02,7.711271e+03
5.014030e+02,7.660370e+03
5.042957e+02,7.647767e+03
5.071884e+02,7.604640e+03
5.100811e+02,7.627246e+03
5.129738e+02,7.634542e+03
5.158665e+02,7.667282e+03
5.187592e+02,7.631737e+03
5.216519e+02,7.640261e+03
5.245446e+02,7.632968e+03
5.274373e+02,7.650305e+03
5.303300e+02,7.623501e+03
5.332227e+02,7.612896e+03
5.361154e+02,7.612112e+03
5.390081e+02,7.627335e+03
5.419008e+02,7.623728e+03
5.447935e+02,7.620698e+03
5.476862e+02,7.641070e+03
5.505789e+02,7.625115e+03
5.534716e+02,7.603391e+03
5.563643e+02,7.630700e+03
5.592570e+02,7.659401e+03
5.621497e+02,7.677274e+03
5.650424e+02,7.636391e+03
5.679351e+02,7.618476e+03
5.708278e+02,7.620914e+03
5.737205e+02,7.640509e+03
5.766132e+02,7.645713e+03
5.795059e+02,7.631560e+03
5.823986e+02,7.648724e+03
5.852913e+02,7.661283e+03
5.881840e+02,7.639266e+03
5.910767e+02,7.669566e+03
5.939694e+02,7.681864e+03
5.968621e+02,7.688241e+03
5.997548e+02,7.649306e+03
6.026475e+02,7.626411e+03
6.055402e+02,7.697433e+03
6.084329e+02,7.660809e+03
6.113256e+02,7.649810e+03
6.142183e+02,7.649124e+03
6.171110e+02,7.673855e+03
6.200037e+02,7.665635e+03
6.228964e+02,7.633356e+03
6.257891e+02,7.675599e+03
6.286818e+02,7.667833e+03
6.315745e+02,7.635597e+03
6.344672e+02,7.629792e+03
6.373599e+02,7.623317e+03
6.402526e+02,7.642759e+03
6.431453e+02,7.644872e+03
6.460380e+02,7.642446e+03
6.489307e+02,7.627255e+03
6.518234e+02,7.631296e+03
6.547161e+02,7.647471e+03
6.576088e+02,7.639468e+03
6.605015e+02,7.611140e+03
6.633942e+02,7.586687e+03
6.662869e+02,7.612694e+03
6.691796e+02,7.608900e+03
6.720723e+02,7.626333e+03
6.749650e+02,7.591819e+03
6.778577e+02,7.595856e+03
6.807504e+02,7.581313e+03
6.836431e+02,7.584477e+03
6.865358e+02,7.570009e+03
6.894285e+02,7.571997e+03
6.923212e+02,7.574435e+03
6.952139e+02,7.581864e+03
6.981066e+02,7.603273e+03
7.009993e+02,7.560356e+03
7.038920e+02,7.576924e+03
7.067847e+02,7.554319e+03
7.096774e+02,7.555580e+03
7.125701e+02,7.552370e+03
7.154628e+02,7.588054e+03
7.183555e+02,7.596813e+03
7.212482e+02,7.556716e+03
7.241409e+02,7.559109e+03
7.270336e+02,7.551038e+03
7.299263e+02,7.551667e+03
7.328190e+02,7.540619e+03
7.357117e+02,7.519492e+03
7.386044e+02,7.497890e+03
7.414971e+02,7.510467e+03
7.443898e+02,7.514812e+03
7.472825e+02,7.501556e+03
7.501752e+02,7.497782e+03
7.530679e+02,7.481167e+03
7.559606e+02,7.469498e+03
7.588533e+02,7.468297e+03
7.617460e+02,7.462312e+03
7.646387e+02,7.472476e+03
7.675314e+02,7.465905e+03
7.704241e+02,7.455515e+03
7.733168e+02,7.448458e+03
7.762095e+02,7.449995e+03
7.791022e+02,7.471879e+03
7.819949e+02,7.452924e+03
7.848876e+02,7.429400e+03
7.877803e+02,7.444464e+03
7.906730e+02,7.443104e+03
7.935657e+02,7.445803e+03
7.964584e+02,7.423747e+03
7.993511e+02,7.419127e+03
8.022438e+02,7.393549e+03
8.051365e+02,7.402227e+03
8.080292e+02,7.428673e+03
8.109219e+02,7.384803e+03
8.138146e+02,7.397504e+03
8.167073e+02,7.403992e+03
8.196000e+02,7.395747e+03
8.224927e+02,7.413638e+03
8.253854e+02,7.390545e+03
8.282781e+02,7.354354e+03
8.311708e+02,7.367177e+03
8.340635e+02,7.352219e+03
8.369562e+02,7.391650e+03
8.398489e+02,7.352795e+03
8.427416e+02,7.367240e+03
8.456343e+02,7.324422e+03
8.485270e+02,7.322773e+03
8.514197e+02,7.335208e+03
8.543124e+02,7.338540e+03
8.572051e+02,7.300851e+03
8.600978e+02,7.304143e+03
8.629905e+02,7.266219e+03
8.658832e+02,7.301895e+03
8.687759e+02,7.294746e+03
8.716686e+02,7.263258e+03
8.745613e+02,7.270876e+03
8.774540e+02,7.231866e+03
8.803467e+02,7.255976e+03
8.832394e+02,7.279556e+03
8.861321e+02,7.282033e+03
8.890248e+02,7.245658e+03
8.919175e+02,7.243603e+03
8.948102e+02,7.233094e+03
8.977029e+02,7.218140e+03
9.005956e+02,7.244697e+03
9.034883e+02,7.246039e+03
9.063810e+02,7.230585e+03
9.092737e+02,7.223596e+03
9.121664e+02,7.229483e+03
9.150591e+02,7.182393e+03
9.179518e+02,7.183539e+03
9.208445e+02,7.168571e+03
9.237372e+02,7.142595e+03
9.266299e+02,7.144066e+03
9.295226e+02,7.158466e+03
9.324153e+02,7.161954e+03
9.353080e+02,7.148739e+03
9.382007e+02,7.131285e+03
9.410934e+02,7.124089e+03
9.439861e+02,7.112982e+03
9.468788e+02,7.094806e+03
9.497715e+02,7.061462e+03
9.526642e+02,7.072358e+03
9.555569e+02,7.060995e+03
9.584496e+02,7.038257e+03
9.613423e+02,7.051139e+03
9.642350e+02,7.051250e+03
9.671277e+02,7.052010e+03
9.700204e+02,7.030511e+03
9.729131e+02,6.999811e+03
9.758058e+02,6.987604e+03
9.786985e+02,7.006802e+03
9.815912e+02,7.003695e+03
9.844839e+02,6.954428e+03
9.873766e+02,6.951125e+03
9.902693e+02,6.978260e+03
9.931620e+02,6.984044e+03
9.960547e+02,6.964402e+03
9.989474e+02,6.985557e+03
1.001840e+03,6.945993e+03
1.004733e+03,6.966417e+03
1.007626e+03,6.978791e+03
1.010518e+03,6.964696e+03
1.013411e+03,6.949638e+03
1.016304e+03,6.912633e+03
1.019196e+03,6.892137e+03
1.022089e+03,6.887000e+03
1.024982e+03,6.892101e+03
1.027875e+03,6.895117e+03
1.030767e+03,6.864138e+03
1.033660e+03,6.873945e+03
1.036552e+03,6.881296e+03
1.039445e+03,6.870898e+03
1.042338e+03,6.851304e+03
1.045231e+03,6.835139e+03
1.048123e+03,6.815296e+03
1.051016e+03,6.794766e+03
1.053909e+03,6.848634e+03
1.056802e+03,6.810594e+03
1.059694e+03,6.796854e+03
1.062587e+03,6.790130e+03
1.065479e+03,6.799155e+03
1.068372e+03,6.788430e+03
1.071265e+03,6.795181e+03
1.074158e+03,6.789333e+03
1.077050e+03,6.777401e+03
1.079943e+03,6.782417e+03
1.082836e+03,6.781550e+03
1.085729e+03,6.764960e+03
1.088621e+03,6.792630e+03
1.091514e+03,6.762625e+03
1.094406e+03,6.746254e+03
1.097299e+03,6.765009e+03
1.100192e+03,6.725117e+03
1.103085e+03,6.741638e+03
1.105977e+03,6.720192e+03
1.108870e+03,6.736498e+03
1.111763e+03,6.719515e+03
1.114656e+03,6.746040e+03
1.117548e+03,6.785555e+03
1.120441e+03,6.806860e+03
1.123334e+03,6.828170e+03
1.126226e+03,6.824615e+03
1.129119e+03,6.860502e+03
1.132012e+03,6.853713e+03
1.134904e+03,6.828528e+03
1.137797e+03,6.825657e+03
1.140690e+03,6.801244e+03
1.143583e+03,6.779729e+03
1.146475e+03,6.787794e+03
1.149368e+03,6.811079e+03
1.152261e+03,6.832216e+03
1.155153e+03,6.791142e+03
1.158046e+03,6.723083e+03
1.160939e+03,6.707709e+03
1.163831e+03,6.641727e+03
1.166724e+03,6.649072e+03
1.169617e+03,6.615190e+03
1.172510e+03,6.632064e+03
1.175402e+03,6.641327e+03
1.178295e+03,6.654849e+03
1.181188e+03,6.644542e+03
1.184080e+03,6.648431e+03
1.186973e+03,6.617519e+03
1.189866e+03,6.609232e+03
1.192758e+03,6.594344e+03
1.195651e+03,6.586921e+03
1.198544e+03,6.591765e+03
1.201437e+03,6.532277e+03
1.204329e+03,6.518209e+03
1.207222e+03,6.512145e+03
1.210115e+03,6.537233e+03
1.213007e+03,6.552194e+03
1.215900e+03,6.519491e+03
1.218793e+03,6.493417e+03
1.221685e+03,6.499357e+03
1.224578e+03,6.495088e+03
1.227471e+03,6.450107e+03
1.230364e+03,6.450900e+03
1.233256e+03,6.412242e+03
1.236149e+03,6.392443e+03
1.239042e+03,6.422907e+03
1.241934e+03,6.416713e+03
1.244827e+03,6.415468e+03
1.247720e+03,6.354680e+03
1.250612e+03,6.384862e+03
1.253505e+03,6.365587e+03
1.256398e+03,6.363935e+03
1.259291e+03,6.354584e+03
1.262183e+03,6.379212e+03
1.265076e+03,6.365217e+03
1.267969e+03,6.382991e+03
1.270861e+03,6.438430e+03
1.273754e+03,6.462530e+03
1.276647e+03,6.495536e+03
1.279539e+03,6.505650e+03
1.282432e+03,6.499493e+03
1.285325e+03,6.472506e+03
1.288218e+03,6.435479e+03
1.291110e+03,6.339022e+03
1.294003e+03,6.330125e+03
1.296896e+03,6.275811e+03
1.299788e+03,6.257407e+03
1.302681e+03,6.257371e+03
1.305574e+03,6.256803e+03
1.308466e+03,6.233822e+03
1.311359e+03,6.220203e+03
1.314252e+03,6.195476e+03
1.317145e+03,6.203918e+03
1.320037e+03,6.219774e+03
1.322930e+03,6.190654e+03
1.325823e+03,6.186533e+03
1.328715e+03,6.178396e+03
1.331608e+03,6.213066e+03
1.334501e+03,6.227602e+03
1.337393e+03,6.243220e+03
1.340286e+03,6.250407e+03
1.343179e+03,6.225817e+03
1.346072e+03,6.222125e+03
1.348964e+03,6.196686e+03
1.351857e+03,6.171433e+03
1.354750e+03,6.160751e+03
1.357642e+03,6.133718e+03
1.360535e+03,6.119740e+03
1.363428e+03,6.102690e+03
1.366320e+03,6.113602e+03
1.369213e+03,6.089094e+03
1.372106e+03,6.056689e+03
1.374999e+03,6.035642e+03
1.377891e+03,6.067953e+03
1.380784e+03,6.029001e+03
1.383677e+03,6.018112e+03
1.386569e+03,5.989351e+03
1.389462e+03,5.972644e+03
1.392355e+03,5.958923e+03
1.395247e+03,5.936076e+03
1.398140e+03,5.940413e+03
1.401033e+03,5.945470e+03
1.403926e+03,5.926310e+03
1.406818e+03,5.936580e+03
1.409711e+03,5.952287e+03
1.412604e+03,5.949583e+03
1.415496e+03,5.940596e+03
1.418389e+03,5.884130e+03
1.421282e+03,5.848675e+03
1.424174e+03,5.851388e+03
1.427067e+03,5.859039e+03
1.429960e+03,5.834433e+03
1.432853e+03,5.827249e+03
1.435745e+03,5.771646e+03
1.438638e+03,5.758099e+03
1.441531e+03,5.763313e+03
1.444423e+03,5.750500e+03
1.447316e+03,5.723312e+03
1.450209e+03,5.709638e+03
1.453101e+03,5.695370e+03
1.455994e+03,5.682563e+03
1.458887e+03,5.696548e+03
1.461780e+03,5.673368e+03
1.464672e+03,5.661645e+03
1.467565e+03,5.648108e+03
1.470458e+03,5.654303e+03
1.473350e+03,5.647035e+03
1.476243e+03,5.628901e+03
1.479136e+03,5.637297e+03
1.482028e+03,5.615376e+03
1.484921e+03,5.653733e+03
1.487814e+03,5.642881e+03
1.490707e+03,5.654928e+03
1.493599e+03,5.637386e+03
1.496492e+03,5.639586e+03
1.499385e+03,5.601834e+03
1.502277e+03,5.583598e+03
1.505170e+03,5.574422e+03
1.508063e+03,5.573485e+03
1.510955e+03,5.542581e+03
1.513848e+03,5.510923e+03
1.516741e+03,5.505100e+03
1.519634e+03,5.521572e+03
1.522526e+03,5.503852e+03
1.525419e+03,5.505464e+03
1.528312e+03,5.472805e+03
1.531204e+03,5.462233e+03
1.534097e+03,5.466448e+03
1.536990e+03,5.488587e+03
1.539882e+03,5.467904e+03
1.542775e+03,5.464952e+03
1.545668e+03,5.445744e+03
1.548561e+03,5.458623e+03
1.551453e+03,5.473961e+03
1.554346e+03,5.478927e+03
1.557239e+03,5.473229e+03
1.560131e+03,5.462250e+03
1.563024e+03,5.479433e+03
1.565917e+03,5.492740e+03
1.568809e+03,5.473625e+03
1.571702e+03,5.526081e+03
1.574595e+03,5.514174e+03
1.577488e+03,5.502387e+03
1.580380e+03,5.500327e+03
1.583273e+03,5.523872e+03
1.586166e+03,5.521974e+03
1.589058e+03,5.523974e+03
1.591951e+03,5.460275e+03
1.594844e+03,5.463904e+03
1.597736e+03,5.396007e+03
1.600629e+03,5.365017e+03
1.603522e+03,5.302401e+03
1.606415e+03,5.325720e+03
1.609307e+03,5.315400e+03
1.612200e+03,5.312925e+03
1.615093e+03,5.296562e+03
1.617985e+03,5.275306e+03
1.620878e+03,5.258708e+03
1.623771e+03,5.217968e+03
1.626663e+03,5.204692e+03
1.629556e+03,5.208642e+03
1.632449e+03,5.146604e+03
1.635342e+03,5.164392e+03
1.638234e+03,5.165436e+03
1.641127e+03,5.142153e+03
1.644020e+03,5.139242e+03
1.646912e+03,5.125166e+03
1.649805e+03,5.121036e+03
1.652698e+03,5.128440e+03
1.655590e+03,5.099428e+03
1.658483e+03,5.101150e+03
1.661376e+03,5.068382e+03
1.664269e+03,5.053428e+03
1.667161e+03,5.075599e+03
1.670054e+03,5.061862e+03
1.672947e+03,5.027119e+03
1.675839e+03,5.042118e+03
1.678732e+03,5.046430e+03
1.681625e+03,5.016310e+03
1.684517e+03,5.019538e+03
1.687410e+03,4.995268e+03
1.690303e+03,5.008130e+03
1.693196e+03,5.020736e+03
1.696088e+03,4.998469e+03
1.698981e+03,4.956991e+03
1.701874e+03,4.953924e+03
1.704766e+03,4.972540e+03
1.707659e+03,4.981942e+03
1.710552e+03,4.949565e+03
1.713444e+03,4.931255e+03
1.716337e+03,4.926295e+03
1.719230e+03,4.939451e+03
1.722123e+03,4.910470e+03
1.725015e+03,4.877233e+03
1.727908e+03,4.898496e+03
1.730801e+03,4.882295e+03
1.733693e+03,4.866217e+03
1.736586e+03,4.879093e+03
1.739479e+03,4.859636e+03
1.742371e+03,4.871718e+03
1.745264e+03,4.828968e+03
1.748157e+03,4.811514e+03
1.751050e+03,4.847717e+03
1.753942e+03,4.824385e+03
1.756835e+03,4.797958e+03
1.759728e+03,4.784895e+03
1.762620e+03,4.794472e+03
1.765513e+03,4.768702e+03
1.768406e+03,4.785530e+03
1.771298e+03,4.772252e+03
1.774191e+03,4.747129e+03
1.777084e+03,4.736513e+03
1.779977e+03,4.727030e+03
1.782869e+03,4.725729e+03
1.785762e+03,4.712109e+03
1.788655e+03,4.714800e+03
1.791547e+03,4.711601e+03
1.794440e+03,4.696522e+03
1.797333e+03,4.701218e+03
1.800225e+03,4.669922e+03
1.803118e+03,4.678612e+03
1.806011e+03,4.632940e+03
1.808904e+03,4.646121e+03
1.811796e+03,4.608783e+03
1.814689e+03,4.611939e+03
1.817582e+03,4.615823e+03
1.820474e+03,4.596530e+03
1.823367e+03,4.612601e+03
1.826260e+03,4.596424e+03
1.829152e+03,4.593539e+03
1.832045e+03,4.585968e+03
1.834938e+03,4.585611e+03
1.837831e+03,4.555443e+03
1.840723e+03,4.561602e+03
1.843616e+03,4.576542e+03
1.846509e+03,4.545898e+03
1.849401e+03,4.530914e+03
1.852294e+03,4.518092e+03
1.855187e+03,4.457315e+03
1.858079e+03,4.503141e+03
1.860972e+03,4.506391e+03
1.863865e+03,4.479180e+03
1.866758e+03,4.466942e+03
1.869650e+03,4.451284e+03
1.872543e+03,4.458829e+03
1.875436e+03,4.468123e+03
1.878328e+03,4.434315e+03
1.881221e+03,4.412555e+03
1.884114e+03,4.414330e+03
1.887006e+03,4.403221e+03
1.889899e+03,4.409096e+03
1.892792e+03,4.386575e+03
1.895685e+03,4.356280e+03
1.898577e+03,4.374636e+03
1.901470e+03,4.368128e+03
1.904363e+03,4.351839e+03
1.907255e+03,4.364291e+03
1.910148e+03,4.348723e+03
1.913041e+03,4.326209e+03
1.915933e+03,4.311013e+03
1.918826e+03,4.306378e+03
1.921719e+03,4.286918e+03
1.924612e+03,4.294097e+03
1.927504e+03,4.275757e+03
1.930397e+03,4.268519e+03
1.933290e+03,4.252900e+03
1.936182e+03,4.248058e+03
1.939075e+03,4.257584e+03
1.941968e+03,4.235334e+03
1.944860e+03,4.195658e+03
1.947753e+03,4.220614e+03
1.950646e+03,4.202068e+03
1.953539e+03,4.187385e+03
1.956431e+03,4.172620e+03
1.959324e+03,4.165708e+03
1.962217e+03,4.157372e+03
1.965109e+03,4.186346e+03
1.968002e+03,4.166069e+03
1.970895e+03,4.140876e+03
1.973787e+03,4.134450e+03
1.976680e+03,4.116782e+03
1.979573e+03,4.076593e+03
1.982466e+03,4.091915e+03
1.985358e+03,4.099922e+03
1.988251e+03,4.108938e+03
1.991144e+03,4.081042e+03
1.994036e+03,4.074980e+03
1.996929e+03,4.065013e+03
1.999822e+03,4.059311e+03
2.002714e+03,4.067448e+03
2.005607e+03,4.018152e+03
2.008500e+03,3.996579e+03
2.011393e+03,4.008264e+03
2.014285e+03,4.005876e+03
2.017178e+03,4.024032e+03
2.020071e+03,3.997344e+03
2.022963e+03,3.984076e+03
2.025856e+03,3.978996e+03
2.028749e+03,3.960252e+03
2.031641e+03,3.963743e+03
2.034534e+03,3.928219e+03
2.037427e+03,3.911931e+03
2.040320e+03,3.904198e+03
2.043212e+03,3.901770e+03
2.046105e+03,3.912169e+03
2.048998e+03,3.892060e+03
2.051890e+03,3.908406e+03
2.054783e+03,3.853837e+03
2.057676e+03,3.848100e+03
2.060568e+03,3.849040e+03
2.063461e+03,3.871360e+03
2.066354e+03,3.838713e+03
2.069247e+03,3.796676e+03
2.072139e+03,3.789273e+03
2.075032e+03,3.788415e+03
2.077925e+03,3.777452e+03
2.080817e+03,3.802394e+03
2.083710e+03,3.778037e+03
2.086603e+03,3.756790e+03
2.089496e+03,3.772850e+03
2.092388e+03,3.771999e+03
2.095281e+03,3.763658e+03
2.098174e+03,3.758965e+03
2.101066e+03,3.712859e+03
2.103959e+03,3.699039e+03
2.106852e+03,3.702352e+03
2.109744e+03,3.696557e+03
2.112637e+03,3.683597e+03
2.115530e+03,3.669504e+03
2.118422e+03,3.626059e+03
2.121315e+03,3.696497e+03
2.124208e+03,3.658569e+03
2.127101e+03,3.643911e+03
2.129993e+03,3.612719e+03
2.132886e+03,3.623775e+03
2.135779e+03,3.641410e+03
2.138671e+03,3.612245e+03
2.141564e+03,3.588173e+03
2.144457e+03,3.580218e+03
2.147350e+03,3.535427e+03
2.150242e+03,3.566251e+03
2.153135e+03,3.567016e+03
2.156028e+03,3.527480e+03
2.158920e+03,3.532955e+03
2.161813e+03,3.531570e+03
2.164706e+03,3.503643e+03
2.167598e+03,3.484887e+03
2.170491e+03,3.489185e+03
2.173384e+03,3.467523e+03
2.176277e+03,3.474647e+03
2.179169e+03,3.492239e+03
2.182062e+03,3.451969e+03
2.184955e+03,3.441443e+03
2.187847e+03,3.436351e+03
2.190740e+03,3.437697e+03
2.193633e+03,3.460426e+03
2.196525e+03,3.419160e+03
2.199418e+03,3.412877e+03
2.202311e+03,3.393190e+03
2.205204e+03,3.375164e+03
2.208096e+03,3.404360e+03
2.210989e+03,3.347413e+03
2.213882e+03,3.344895e+03
2.216774e+03,3.328695e+03
2.219667e+03,3.357211e+03
2.222560e+03,3.316228e+03
2.225452e+03,3.310841e+03
2.228345e+03,3.313647e+03
2.231238e+03,3.305712e+03
2.234131e+03,3.303813e+03
2.237023e+03,3.315705e+03
2.239916e+03,3.284427e+03
2.242809e+03,3.243167e+03
2.245701e+03,3.269198e+03
2.248594e+03,3.262509e+03
2.251487e+03,3.257150e+03
2.254379e+03,3.247333e+03
2.257272e+03,3.208875e+03
2.260165e+03,3.195324e+03
2.263058e+03,3.225473e+03
2.265950e+03,3.199540e+03
2.268843e+03,3.219004e+03
2.271736e+03,3.144522e+03
2.274628e+03,3.181720e+03
2.277521e+03,3.153737e+03
2.280414e+03,3.159367e+03
2.283306e+03,3.145468e+03
2.286199e+03,3.123598e+03
2.289092e+03,3.140012e+03
2.291985e+03,3.088024e+03
2.294877e+03,3.104477e+03
2.297770e+03,3.123208e+03
2.300663e+03,3.100029e+03
2.303555e+03,3.074047e+03
2.306448e+03,3.058393e+03
2.309341e+03,3.069078e+03
2.312233e+03,3.070415e+03
2.315126e+03,3.048717e+03
2.318019e+03,3.050867e+03
2.320912e+03,3.034895e+03
2.323804e+03,3.036524e+03
2.326697e+03,3.003437e+03
2.329590e+03,3.028899e+03
2.332482e+03,2.997553e+03
2.335375e+03,3.010419e+03
2.338268e+03,3.008195e+03
2.341160e+03,2.976378e+03
2.344053e+03,2.992795e+03
2.346946e+03,2.964174e+03
2.349839e+03,2.963821e+03
2.352731e+03,2.954562e+03
2.355624e+03,2.946360e+03
2.358517e+03,2.945986e+03
2.361409e+03,2.934260e+03
2.364302e+03,2.916342e+03
2.367195e+03,2.898330e+03
2.370087e+03,2.895585e+03
2.372980e+03,2.898803e+03
2.375873e+03,2.907052e+03
2.378766e+03,2.891031e+03
2.381658e+03,2.842071e+03
2.384551e+03,2.839403e+03
2.387444e+03,2.846831e+03
2.390336e+03,2.869469e+03
2.393229e+03,2.820531e+03
2.396122e+03,2.819358e+03
2.399014e+03,2.811117e+03
2.401907e+03,2.812698e+03
2.404800e+03,2.828852e+03
2.407693e+03,2.784630e+03
2.410585e+03,2.799575e+03
2.413478e+03,2.759717e+03
2.416371e+03,2.780292e+03
2.419263e+03,2.778530e+03
2.422156e+03,2.766981e+03
2.425049e+03,2.775838e+03
2.427941e+03,2.747133e+03
2.430834e+03,2.737223e+03
2.433727e+03,2.730351e+03
2.436620e+03,2.720410e+03
2.439512e+03,2.738435e+03
2.442405e+03,2.705949e+03
2.445298e+03,2.717719e+03
2.448190e+03,2.692626e+03
2.451083e+03,2.684835e+03
2.453976e+03,2.672921e+03
2.456868e+03,2.681019e+03
2.459761e+03,2.663116e+03
2.462654e+03,2.676363e+03
2.465547e+03,2.642152e+03
2.468439e+03,2.672263e+03
2.471332e+03,2.651505e+03
2.474225e+03,2.612047e+03
2.477117e+03,2.626775e+03
2.480010e+03,2.649706e+03
2.482903e+03,2.618282e+03
2.485795e+03,2.612307e+03
2.488688e+03,2.587012e+03
2.491581e+03,2.599749e+03
2.494474e+03,2.601100e+03
2.497366e+03,2.595245e+03
2.500259e+03,2.580153e+03
2.503152e+03,2.576307e+03
2.506044e+03,2.552891e+03
2.508937e+03,2.570964e+03
2.511830e+03,2.542030e+03
2.514722e+03,2.555838e+03
2.517615e+03,2.521692e+03
2.520508e+03,2.541341e+03
2.523401e+03,2.520427e+03
2.526293e+03,2.498581e+03
2.529186e+03,2.490575e+03
2.532079e+03,2.509954e+03
2.534971e+03,2.497333e+03
2.537864e+03,2.486899e+03
2.540757e+03,2.454552e+03
2.543649e+03,2.478448e+03
2.546542e+03,2.490792e+03
2.549435e+03,2.483592e+03
2.552328e+03,2.479441e+03
2.555220e+03,2.481974e+03
2.558113e+03,2.462407e+03
2.561006e+03,2.434444e+03
2.563898e+03,2.434958e+03
2.566791e+03,2.442152e+03
2.569684e+03,2.429865e+03
2.572576e+03,2.426642e+03
2.575469e+03,2.420934e+03
2.578362e+03,2.400342e+03
2.581255e+03,2.420355e+03
2.584147e+03,2.373854e+03
2.587040e+03,2.389548e+03
2.589933e+03,2.401407e+03
2.592825e+03,2.393521e+03
2.595718e+03,2.370723e+03
2.598611e+03,2.351100e+03
2.601503e+03,2.357633e+03
2.604396e+03,2.363901e+03
2.607289e+03,2.360449e+03
2.610182e+03,2.328216e+03
2.613074e+03,2.332511e+03
2.615967e+03,2.354318e+03
2.618860e+03,2.335986e+03
2.621752e+03,2.330951e+03
2.624645e+03,2.321102e+03
2.627538e+03,2.320455e+03
2.630430e+03,2.284958e+03
2.633323e+03,2.292858e+03
2.636216e+03,2.293464e+03
2.639109e+03,2.296540e+03
2.642001e+03,2.283896e+03
2.644894e+03,2.287936e+03
2.647787e+03,2.277749e+03
2.650679e+03,2.286359e+03
2.653572e+03,2.238958e+03
2.656465e+03,2.253696e+03
2.659357e+03,2.239340e+03
2.662250e+03,2.238970e+03
2.665143e+03,2.227851e+03
2.668036e+03,2.250151e+03
2.670928e+03,2.252782e+03
2.673821e+03,2.217793e+03
2.676714e+03,2.210569e+03
2.679606e+03,2.220417e+03
2.682499e+03,2.215753e+03
2.685392e+03,2.197265e+03
2.688284e+03,2.195623e+03
2.691177e+03,2.182563e+03
2.694070e+03,2.182873e+03
2.696963e+03,2.172985e+03
2.699855e+03,2.197134e+03
2.702748e+03,2.179875e+03
2.705641e+03,2.145556e+03
2.708533e+03,2.150138e+03
2.711426e+03,2.169606e+03
2.714319e+03,2.162792e+03
2.717211e+03,2.149104e+03
2.720104e+03,2.163878e+03
2.722997e+03,2.119832e+03
2.725890e+03,2.154805e+03
2.728782e+03,2.146340e+03
2.731675e+03,2.134497e+03
2.734568e+03,2.091847e+03
2.737460e+03,2.095865e+03
2.740353e+03,2.097906e+03
2.743246e+03,2.114895e+03
2.746138e+03,2.099321e+03
2.749031e+03,2.108159e+03
2.751924e+03,2.093281e+03
2.754817e+03,2.078730e+03
2.757709e+03,2.075104e+03
2.760602e+03,2.079634e+03
2.763495e+03,2.059993e+03
2.766387e+03,2.098054e+03
2.769280e+03,2.082370e+03
2.772173e+03,2.026610e+03
2.775065e+03,2.041656e+03
2.777958e+03,2.071074e+03
2.780851e+03,2.041947e+03
2.783744e+03,2.034547e+03
2.786636e+03,2.001169e+03
2.789529e+03,2.018527e+03
2.792422e+03,2.017585e+03
2.795314e+03,2.012753e+03
2.798207e+03,2.021146e+03
2.801100e+03,2.002074e+03
2.803992e+03,2.030352e+03
2.806885e+03,1.992276e+03
2.809778e+03,2.010482e+03
2.812671e+03,1.987369e+03
2.815563e+03,1.963031e+03
2.818456e+03,1.995519e+03
2.821349e+03,1.985193e+03
2.824241e+03,1.956531e+03
2.827134e+03,1.954218e+03
2.830027e+03,1.950292e+03
2.832919e+03,1.956272e+03
2.835812e+03,1.981707e+03
2.838705e+03,1.947023e+03
2.841598e+03,1.948545e+03
2.844490e+03,1.948951e+03
2.847383e+03,1.962308e+03
2.850276e+03,1.940778e+03
2.853168e+03,1.931259e+03
2.856061e+03,1.958447e+03
2.858954e+03,1.911471e+03
2.861846e+03,1.921031e+03
2.864739e+03,1.906610e+03
2.867632e+03,1.909978e+03
2.870525e+03,1.934596e+03
2.873417e+03,1.929141e+03
2.876310e+03,1.889311e+03
2.879203e+03,1.894220e+03
2.882095e+03,1.909479e+03
2.884988e+03,1.941285e+03
2.887881e+03,1.907162e+03
2.890773e+03,1.917720e+03
2.893666e+03,1.891822e+03
2.896559e+03,1.876407e+03
2.899452e+03,1.922524e+03
2.902344e+03,1.885795e+03
2.905237e+03,1.887918e+03
2.908130e+03,1.872455e+03
2.911022e+03,1.874944e+03
2.913915e+03,1.874666e+03
2.916808e+03,1.871469e+03
2.919700e+03,1.864024e+03
2.922593e+03,1.817988e+03
2.925486e+03,1.849588e+03
2.928379e+03,1.847879e+03
2.931271e+03,1.835080e+03
2.934164e+03,1.791079e+03
2.937057e+03,1.826572e+03
2.939949e+03,1.848516e+03
2.942842e+03,1.814210e+03
2.945735e+03,1.831276e+03
2.948627e+03,1.847708e+03
2.951520e+03,1.837946e+03
2.954413e+03,1.816154e+03
2.957306e+03,1.816670e+03
2.960198e+03,1.807241e+03
2.963091e+03,1.774813e+03
2.965984e+03,1.798973e+03
2.968876e+03,1.829199e+03
2.971769e+03,1.788168e+03
2.974662e+03,1.809538e+03
2.977554e+03,1.773218e+03
2.980447e+03,1.786371e+03
2.983340e+03,1.767889e+03
2.986233e+03,1.759367e+03
2.989125e+03,1.743169e+03
2.992018e+03,1.747899e+03
2.994911e+03,1.755720e+03
2.997803e+03,1.739772e+03
3.000696e+03,1.708356e+03
3.003589e+03,1.705945e+03
3.006481e+03,1.713045e+03
3.009374e+03,1.740704e+03
3.012267e+03,1.717213e+03
3.015160e+03,1.733852e+03
3.018052e+03,1.715253e+03
3.020945e+03,1.699180e+03
3.023838e+03,1.713830e+03
3.026730e+03,1.730976e+03
3.029623e+03,1.739287e+03
3.032516e+03,1.717332e+03
3.035408e+03,1.713240e+03
3.038301e+03,1.721203e+03
3.041194e+03,1.702415e+03
3.044087e+03,1.708710e+03
3.046979e+03,1.706424e+03
3.049872e+03,1.682081e+03
3.052765e+03,1.700713e+03
3.055657e+03,1.654847e+03
3.058550e+03,1.699389e+03
3.061443e+03,1.671254e+03
3.064335e+03,1.657194e+03
3.067228e+03,1.710704e+03
3.070121e+03,1.676654e+03
3.073014e+03,1.689288e+03
3.075906e+03,1.679475e+03
3.078799e+03,1.640959e+03
3.081692e+03,1.678742e+03
3.084584e+03,1.675619e+03
3.087477e+03,1.717146e+03
3.090370e+03,1.669140e+03
3.093262e+03,1.683580e+03
3.096155e+03,1.680006e+03
3.099048e+03,1.668849e+03
3.101941e+03,1.667766e+03
3.104833e+03,1.637710e+03
3.107726e+03,1.679570e+03
3.110619e+03,1.679239e+03
3.113511e+03,1.621923e+03
3.116404e+03,1.711108e+03
3.119297e+03,1.652992e+03
3.122189e+03,1.621694e+03
3.125082e+03,1.649728e+03
3.127975e+03,1.648259e+03
3.130868e+03,1.612495e+03
3.133760e+03,1.621892e+03
3.136653e+03,1.641838e+03
3.139546e+03,1.603916e+03
3.142438e+03,1.634490e+03
3.145331e+03,1.571111e+03
3.148224e+03,1.643627e+03
3.151116e+03,1.615404e+03
3.154009e+03,1.665053e+03
3.156902e+03,1.639163e+03
3.159795e+03,1.606038e+03
3.162687e+03,1.676447e+03
3.165580e+03,1.656987e+03
3.168473e+03,1.689016e+03
3.171365e+03,1.596670e+03
3.174258e+03,1.623677e+03
3.177151e+03,1.627937e+03
3.180043e+03,1.679724e+03
3.182936e+03,1.629594e+03
3.185829e+03,1.688687e+03
3.188722e+03,1.582164e+03
3.191614e+03,1.645374e+03
3.194507e+03,1.646244e+03
3.197400e+03,1.579417e+03
3.200292e+03,1.657478e+03
3.203185e+03,0.000000e+00
3.206078e+03,0.000000e+00
3.208970e+03,0.000000e+00
3.211863e+03,0.000000e+00
3.214756e+03,0.000000e+00
3.217649e+03,0.000000e+00
3.220541e+03,0.000000e+00
3.223434e+03,0.000000e+00
3.226327e+03,0.000000e+00
3.229219e+03,0.000000e+00
3.232112e+03,0.000000e+00
3.235005e+03,0.000000e+00
3.237897e+03,0.000000e+00
3.240790e+03,0.000000e+00
3.243683e+03,0.000000e+00
3.246576e+03,0.000000e+00
3.249468e+03,0.000000e+00
3.252361e+03,0.000000e+00
3.255254e+03,0.000000e+00
3.258146e+03,0.000000e+00
3.261039e+03,0.000000e+00
3.263932e+03,0.000000e+00
3.266824e+03,0.000000e+00
3.269717e+03,0.000000e+00
3.272610e+03,0.000000e+00
3.275503e+03,0.000000e+00
3.278395e+03,0.000000e+00
3.281288e+03,0.000000e+00
3.284181e+03,0.000000e+00
3.287073e+03,0.000000e+00
3.289966e+03,0.000000e+00
3.292859e+03,0.000000e+00
3.295751e+03,0.000000e+00
3.298644e+03,0.000000e+00
3.301537e+03,0.000000e+00
3.304430e+03,0.000000e+00
3.307322e+03,0.000000e+00
3.310215e+03,0.000000e+00
3.313108e+03,0.000000e+00
3.316000e+03,0.000000e+00
3.318893e+03,0.000000e+00
3.321786e+03,0.000000e+00
3.324678e+03,0.000000e+00
3.327571e+03,0.000000e+00
3.330464e+03,0.000000e+00
3.333357e+03,0.000000e+00
3.336249e+03,0.000000e+00
3.339142e+03,0.000000e+00
3.342035e+03,0.000000e+00
3.344927e+03,0.000000e+00
3.347820e+03,0.000000e+00
3.350713e+03,0.000000e+00
3.353605e+03,0.000000e+00
3.356498e+03,0.000000e+00
3.359391e+03,0.000000e+00
3.362284e+03,0.000000e+00
3.365176e+03,0.000000e+00
3.368069e+03,0.000000e+00
3.370962e+03,0.000000e+00
3.373854e+03,0.000000e+00
3.376747e+03,0.000000e+00
3.379640e+03,0.000000e+00
3.382532e+03,0.000000e+00
3.385425e+03,0.000000e+00
3.388318e+03,0.000000e+00
3.391211e+03,0.000000e+00
3.394103e+03,0.000000e+00
3.396996e+03,0.000000e+00
3.399889e+03,0.000000e+00
3.402781e+03,0.000000e+00
3.405674e+03,0.000000e+00
3.408567e+03,0.000000e+00
3.411459e+03,0.000000e+00
3.414352e+03,0.000000e+00
3.417245e+03,0.000000e+00
3.420138e+03,0.000000e+00
3.423030e+03,0.000000e+00
3.425923e+03,0.000000e+00
3.428816e+03,0.000000e+00
3.431708e+03,0.000000e+00
3.434601e+03,0.000000e+00
3.437494e+03,0.000000e+00
3.440386e+03,0.000000e+00
3.443279e+03,0.000000e+00
3.446172e+03,0.000000e+00
3.449065e+03,0.000000e+00
3.451957e+03,0.000000e+00
3.454850e+03,0.000000e+00
3.457743e+03,0.000000e+00
3.460635e+03,0.000000e+00
3.463528e+03,0.000000e+00
3.466421e+03,0.000000e+00
3.469313e+03,0.000000e+00
3.472206e+03,0.000000e+00
3.475099e+03,0.000000e+00
3.477992e+03,0.000000e+00
3.480884e+03,0.000000e+00
3.483777e+03,0.000000e+00
3.486670e+03,0.000000e+00
3.489563e+03,0.000000e+00
3.492455e+03,0.000000e+00
3.495348e+03,0.000000e+00
3.498240e+03,0.000000e+00
3.500169e+03,0.000000e+00