File: RAMAN_data/14032024_r1/black fibre4.CSV
9.931763e+01,0.000000e+00
1.022103e+02,0.000000e+00
1.051030e+02,0.000000e+00
1.079957e+02,0.000000e+00
1.108884e+02,0.000000e+00
1.137811e+02,0.000000e+00
1.166738e+02,0.000000e+00
1.195665e+02,0.000000e+00
1.224592e+02,0.000000e+00
1.253519e+02,0.000000e+00
1.282446e+02,0.000000e+00
1.311373e+02,0.000000e+00
1.340300e+02,0.000000e+00
1.369227e+02,0.000000e+00
1.398154e+02,0.000000e+00
1.427081e+02,0.000000e+00
1.456008e+02,0.000000e+00
1.484935e+02,0.000000e+00
1.513862e+02,0.000000e+00
1.542789e+02,0.000000e+00
1.571716e+02,0.000000e+00
1.600643e+02,0.000000e+00
1.629570e+02,0.000000e+00
1.658497e+02,0.000000e+00
1.687424e+02,0.000000e+00
1.716351e+02,0.000000e+00
1.745278e+02,0.000000e+00
1.774205e+02,0.000000e+00
1.803132e+02,0.000000e+00
1.832059e+02,0.000000e+00
1.860986e+02,0.000000e+00
1.889913e+02,0.000000e+00
1.918840e+02,0.000000e+00
1.947767e+02,0.000000e+00
1.976694e+02,0.000000e+00
2.005621e+02,2.082640e+03
2.034548e+02,2.089483e+03
2.063475e+02,2.081339e+03
2.092402e+02,2.089093e+03
2.121329e+02,2.082581e+03
2.150256e+02,2.085446e+03
2.179183e+02,2.074631e+03
2.208110e+02,2.087951e+03
2.237037e+02,2.084606e+03
2.265964e+02,2.066313e+03
2.294892e+02,2.054927e+03
2.323819e+02,2.074437e+03
2.352746e+02,2.082679e+03
2.381673e+02,2.073510e+03
2.410600e+02,2.072997e+03
2.439527e+02,2.078237e+03
2.468454e+02,2.068995e+03
2.497381e+02,2.073063e+03
2.526308e+02,2.069276e+03
2.555235e+02,2.060761e+03
2.584161e+02,2.063054e+03
2.613088e+02,2.062437e+03
2.642015e+02,2.071667e+03
2.670942e+02,2.065999e+03
2.699869e+02,2.068264e+03
2.728796e+02,2.062800e+03
2.757723e+02,2.063068e+03
2.786650e+02,2.059184e+03
2.815577e+02,2.059481e+03
2.844504e+02,2.051047e+03
2.873431e+02,2.039943e+03
2.902358e+02,2.025054e+03
2.931285e+02,2.045389e+03
2.960212e+02,2.040181e+03
2.989139e+02,2.040444e+03
3.018066e+02,2.034350e+03
3.046993e+02,2.031693e+03
3.075920e+02,2.039185e+03
3.104847e+02,2.028344e+03
3.133774e+02,2.034881e+03
3.162701e+02,2.022459e+03
3.191628e+02,2.029993e+03
3.220555e+02,2.024671e+03
3.249482e+02,2.028558e+03
3.278409e+02,2.019525e+03
3.307336e+02,2.012934e+03
3.336263e+02,2.011430e+03
3.365190e+02,1.999058e+03
3.394117e+02,2.008299e+03
3.423044e+02,2.016423e+03
3.451971e+02,1.995067e+03
3.480898e+02,1.995782e+03
3.509825e+02,1.992555e+03
3.538752e+02,2.001988e+03
3.567680e+02,1.999491e+03
3.596607e+02,2.000949e+03
3.625534e+02,2.003311e+03
3.654461e+02,1.986201e+03
3.683388e+02,1.989945e+03
3.712315e+02,1.996910e+03
3.741242e+02,2.021565e+03
3.770169e+02,2.018720e+03
3.799096e+02,2.013424e+03
3.828023e+02,2.002061e+03
3.856950e+02,1.991407e+03
3.885877e+02,1.987660e+03
3.914804e+02,1.978964e+03
3.943731e+02,1.972405e+03
3.972658e+02,1.969174e+03
4.001585e+02,1.971623e+03
4.030512e+02,1.963414e+03
4.059439e+02,1.972587e+03
4.088366e+02,1.974118e+03
4.117293e+02,1.978362e+03
4.146220e+02,1.973505e+03
4.175147e+02,1.972133e+03
4.204074e+02,1.968809e+03
4.233001e+02,1.964784e+03
4.261928e+02,1.962335e+03
4.290855e+02,1.957331e+03
4.319782e+02,1.964684e+03
4.348709e+02,1.961189e+03
4.377636e+02,1.962980e+03
4.406563e+02,1.951329e+03
4.435490e+02,1.935945e+03
4.464417e+02,1.931686e+03
4.493344e+02,1.929783e+03
4.522271e+02,1.927452e+03
4.551198e+02,1.932752e+03
4.580125e+02,1.936264e+03
4.609052e+02,1.927847e+03
4.637979e+02,1.912172e+03
4.666906e+02,1.914718e+03
4.695833e+02,1.903327e+03
4.724760e+02,1.911140e+03
4.753687e+02,1.901376e+03
4.782614e+02,1.899800e+03
4.811541e+02,1.902997e+03
4.840468e+02,1.904553e+03
4.869395e+02,1.890343e+03
4.898322e+02,1.896268e+03
4.927249e+02,1.900793e+03
4.956176e+02,1.894997e+03
4.985103e+02,1.885248e+03
5.014030e+02,1.902853e+03
5.042957e+02,1.874323e+03
5.071884e+02,1.886585e+03
5.100811e+02,1.892017e+03
5.129738e+02,1.891024e+03
5.158665e+02,1.892414e+03
5.187592e+02,1.891546e+03
5.216519e+02,1.873960e+03
5.245446e+02,1.873142e+03
5.274373e+02,1.873951e+03
5.303300e+02,1.872106e+03
5.332227e+02,1.863035e+03
5.361154e+02,1.877029e+03
5.390081e+02,1.861149e+03
5.419008e+02,1.871951e+03
5.447935e+02,1.855078e+03
5.476862e+02,1.851018e+03
5.505789e+02,1.850252e+03
5.534716e+02,1.845242e+03
5.563643e+02,1.859794e+03
5.592570e+02,1.872574e+03
5.621497e+02,1.853180e+03
5.650424e+02,1.836898e+03
5.679351e+02,1.837840e+03
5.708278e+02,1.829916e+03
5.737205e+02,1.830565e+03
5.766132e+02,1.829592e+03
5.795059e+02,1.831282e+03
5.823986e+02,1.824048e+03
5.852913e+02,1.824256e+03
5.881840e+02,1.815043e+03
5.910767e+02,1.809689e+03
5.939694e+02,1.809986e+03
5.968621e+02,1.802822e+03
5.997548e+02,1.794841e+03
6.026475e+02,1.811188e+03
6.055402e+02,1.803368e+03
6.084329e+02,1.803103e+03
6.113256e+02,1.805692e+03
6.142183e+02,1.792927e+03
6.171110e+02,1.784004e+03
6.200037e+02,1.788838e+03
6.228964e+02,1.772556e+03
6.257891e+02,1.773529e+03
6.286818e+02,1.778884e+03
6.315745e+02,1.781621e+03
6.344672e+02,1.775873e+03
6.373599e+02,1.753841e+03
6.402526e+02,1.761875e+03
6.431453e+02,1.760654e+03
6.460380e+02,1.755344e+03
6.489307e+02,1.753868e+03
6.518234e+02,1.772406e+03
6.547161e+02,1.766193e+03
6.576088e+02,1.754751e+03
6.605015e+02,1.744238e+03
6.633942e+02,1.748923e+03
6.662869e+02,1.754994e+03
6.691796e+02,1.748582e+03
6.720723e+02,1.742534e+03
6.749650e+02,1.744001e+03
6.778577e+02,1.748329e+03
6.807504e+02,1.734053e+03
6.836431e+02,1.736896e+03
6.865358e+02,1.734373e+03
6.894285e+02,1.736852e+03
6.923212e+02,1.738242e+03
6.952139e+02,1.739166e+03
6.981066e+02,1.737340e+03
7.009993e+02,1.723226e+03
7.038920e+02,1.735144e+03
7.067847e+02,1.722902e+03
7.096774e+02,1.709374e+03
7.125701e+02,1.713369e+03
7.154628e+02,1.705261e+03
7.183555e+02,1.717826e+03
7.212482e+02,1.717489e+03
7.241409e+02,1.709315e+03
7.270336e+02,1.704770e+03
7.299263e+02,1.703945e+03
7.328190e+02,1.695372e+03
7.357117e+02,1.689160e+03
7.386044e+02,1.683960e+03
7.414971e+02,1.676469e+03
7.443898e+02,1.691372e+03
7.472825e+02,1.689537e+03
7.501752e+02,1.684062e+03
7.530679e+02,1.668996e+03
7.559606e+02,1.653870e+03
7.588533e+02,1.650765e+03
7.617460e+02,1.654756e+03
7.646387e+02,1.643698e+03
7.675314e+02,1.647461e+03
7.704241e+02,1.651762e+03
7.733168e+02,1.648974e+03
7.762095e+02,1.653004e+03
7.791022e+02,1.642166e+03
7.819949e+02,1.646120e+03
7.848876e+02,1.644290e+03
7.877803e+02,1.651806e+03
7.906730e+02,1.644588e+03
7.935657e+02,1.641203e+03
7.964584e+02,1.641198e+03
7.993511e+02,1.640873e+03
8.022438e+02,1.628065e+03
8.051365e+02,1.624201e+03
8.080292e+02,1.622247e+03
8.109219e+02,1.636647e+03
8.138146e+02,1.634073e+03
8.167073e+02,1.625520e+03
8.196000e+02,1.633639e+03
8.224927e+02,1.634464e+03
8.253854e+02,1.616969e+03
8.282781e+02,1.609892e+03
8.311708e+02,1.611064e+03
8.340635e+02,1.604250e+03
8.369562e+02,1.601984e+03
8.398489e+02,1.603454e+03
8.427416e+02,1.627847e+03
8.456343e+02,1.611299e+03
8.485270e+02,1.609092e+03
8.514197e+02,1.597793e+03
8.543124e+02,1.590389e+03
8.572051e+02,1.601228e+03
8.600978e+02,1.603510e+03
8.629905e+02,1.592932e+03
8.658832e+02,1.585448e+03
8.687759e+02,1.604200e+03
8.716686e+02,1.590622e+03
8.745613e+02,1.587922e+03
8.774540e+02,1.578505e+03
8.803467e+02,1.568903e+03
8.832394e+02,1.569936e+03
8.861321e+02,1.567313e+03
8.890248e+02,1.565051e+03
8.919175e+02,1.568192e+03
8.948102e+02,1.554193e+03
8.977029e+02,1.551349e+03
9.005956e+02,1.550519e+03
9.034883e+02,1.545893e+03
9.063810e+02,1.552500e+03
9.092737e+02,1.548016e+03
9.121664e+02,1.548780e+03
9.150591e+02,1.534110e+03
9.179518e+02,1.549749e+03
9.208445e+02,1.530514e+03
9.237372e+02,1.535452e+03
9.266299e+02,1.544311e+03
9.295226e+02,1.537716e+03
9.324153e+02,1.545932e+03
9.353080e+02,1.535116e+03
9.382007e+02,1.536284e+03
9.410934e+02,1.544579e+03
9.439861e+02,1.525809e+03
9.468788e+02,1.530597e+03
9.497715e+02,1.528122e+03
9.526642e+02,1.527751e+03
9.555569e+02,1.522593e+03
9.584496e+02,1.519562e+03
9.613423e+02,1.513370e+03
9.642350e+02,1.532235e+03
9.671277e+02,1.525230e+03
9.700204e+02,1.525129e+03
9.729131e+02,1.498283e+03
9.758058e+02,1.507020e+03
9.786985e+02,1.504288e+03
9.815912e+02,1.512857e+03
9.844839e+02,1.509847e+03
9.873766e+02,1.508009e+03
9.902693e+02,1.503732e+03
9.931620e+02,1.503519e+03
9.960547e+02,1.510944e+03
9.989474e+02,1.506921e+03
1.001840e+03,1.495502e+03
1.004733e+03,1.493731e+03
1.007626e+03,1.494269e+03
1.010518e+03,1.497332e+03
1.013411e+03,1.469934e+03
1.016304e+03,1.486735e+03
1.019196e+03,1.477097e+03
1.022089e+03,1.485265e+03
1.024982e+03,1.474642e+03
1.027875e+03,1.486482e+03
1.030767e+03,1.469691e+03
1.033660e+03,1.461319e+03
1.036552e+03,1.464364e+03
1.039445e+03,1.467795e+03
1.042338e+03,1.463920e+03
1.045231e+03,1.466680e+03
1.048123e+03,1.454868e+03
1.051016e+03,1.459922e+03
1.053909e+03,1.475282e+03
1.056802e+03,1.467637e+03
1.059694e+03,1.462676e+03
1.062587e+03,1.463324e+03
1.065479e+03,1.459988e+03
1.068372e+03,1.480225e+03
1.071265e+03,1.471327e+03
1.074158e+03,1.479568e+03
1.077050e+03,1.486583e+03
1.079943e+03,1.478417e+03
1.082836e+03,1.482063e+03
1.085729e+03,1.484794e+03
1.088621e+03,1.506460e+03
1.091514e+03,1.511093e+03
1.094406e+03,1.508128e+03
1.097299e+03,1.524733e+03
1.100192e+03,1.503555e+03
1.103085e+03,1.496359e+03
1.105977e+03,1.488211e+03
1.108870e+03,1.474495e+03
1.111763e+03,1.481876e+03
1.114656e+03,1.495403e+03
1.117548e+03,1.504725e+03
1.120441e+03,1.491871e+03
1.123334e+03,1.493785e+03
1.126226e+03,1.474366e+03
1.129119e+03,1.472242e+03
1.132012e+03,1.457249e+03
1.134904e+03,1.451759e+03
1.137797e+03,1.455941e+03
1.140690e+03,1.453429e+03
1.143583e+03,1.461098e+03
1.146475e+03,1.465463e+03
1.149368e+03,1.447291e+03
1.152261e+03,1.460664e+03
1.155153e+03,1.464607e+03
1.158046e+03,1.449619e+03
1.160939e+03,1.452061e+03
1.163831e+03,1.459054e+03
1.166724e+03,1.452007e+03
1.169617e+03,1.444604e+03
1.172510e+03,1.444781e+03
1.175402e+03,1.428867e+03
1.178295e+03,1.432164e+03
1.181188e+03,1.426864e+03
1.184080e+03,1.411035e+03
1.186973e+03,1.409358e+03
1.189866e+03,1.413475e+03
1.192758e+03,1.407813e+03
1.195651e+03,1.411141e+03
1.198544e+03,1.404046e+03
1.201437e+03,1.395254e+03
1.204329e+03,1.407711e+03
1.207222e+03,1.405578e+03
1.210115e+03,1.402007e+03
1.213007e+03,1.398806e+03
1.215900e+03,1.400253e+03
1.218793e+03,1.394135e+03
1.221685e+03,1.396777e+03
1.224578e+03,1.400000e+03
1.227471e+03,1.396442e+03
1.230364e+03,1.390386e+03
1.233256e+03,1.389410e+03
1.236149e+03,1.394251e+03
1.239042e+03,1.395983e+03
1.241934e+03,1.411049e+03
1.244827e+03,1.402455e+03
1.247720e+03,1.391418e+03
1.250612e+03,1.397334e+03
1.253505e+03,1.390035e+03
1.256398e+03,1.395783e+03
1.259291e+03,1.385912e+03
1.262183e+03,1.385835e+03
1.265076e+03,1.392013e+03
1.267969e+03,1.384741e+03
1.270861e+03,1.403716e+03
1.273754e+03,1.390033e+03
1.276647e+03,1.389732e+03
1.279539e+03,1.404735e+03
1.282432e+03,1.380510e+03
1.285325e+03,1.388834e+03
1.288218e+03,1.392119e+03
1.291110e+03,1.388436e+03
1.294003e+03,1.385160e+03
1.296896e+03,1.384161e+03
1.299788e+03,1.382789e+03
1.302681e+03,1.382972e+03
1.305574e+03,1.397188e+03
1.308466e+03,1.390029e+03
1.311359e+03,1.390358e+03
1.314252e+03,1.398735e+03
1.317145e+03,1.391626e+03
1.320037e+03,1.406047e+03
1.322930e+03,1.399878e+03
1.325823e+03,1.395145e+03
1.328715e+03,1.394144e+03
1.331608e+03,1.391191e+03
1.334501e+03,1.399394e+03
1.337393e+03,1.380277e+03
1.340286e+03,1.378937e+03
1.343179e+03,1.365869e+03
1.346072e+03,1.357110e+03
1.348964e+03,1.361722e+03
1.351857e+03,1.345202e+03
1.354750e+03,1.361266e+03
1.357642e+03,1.351349e+03
1.360535e+03,1.351324e+03
1.363428e+03,1.347950e+03
1.366320e+03,1.359495e+03
1.369213e+03,1.351822e+03
1.372106e+03,1.364216e+03
1.374999e+03,1.346840e+03
1.377891e+03,1.345289e+03
1.380784e+03,1.343939e+03
1.383677e+03,1.348964e+03
1.386569e+03,1.347084e+03
1.389462e+03,1.347908e+03
1.392355e+03,1.339183e+03
1.395247e+03,1.330321e+03
1.398140e+03,1.341156e+03
1.401033e+03,1.328998e+03
1.403926e+03,1.326663e+03
1.406818e+03,1.313881e+03
1.409711e+03,1.320496e+03
1.412604e+03,1.326919e+03
1.415496e+03,1.316110e+03
1.418389e+03,1.308593e+03
1.421282e+03,1.308501e+03
1.424174e+03,1.307095e+03
1.427067e+03,1.297142e+03
1.429960e+03,1.300833e+03
1.432853e+03,1.303736e+03
1.435745e+03,1.300593e+03
1.438638e+03,1.285434e+03
1.441531e+03,1.287144e+03
1.444423e+03,1.289078e+03
1.447316e+03,1.289213e+03
1.450209e+03,1.274796e+03
1.453101e+03,1.277400e+03
1.455994e+03,1.274426e+03
1.458887e+03,1.278224e+03
1.461780e+03,1.278432e+03
1.464672e+03,1.264990e+03
1.467565e+03,1.261891e+03
1.470458e+03,1.266494e+03
1.473350e+03,1.244555e+03
1.476243e+03,1.255881e+03
1.479136e+03,1.252635e+03
1.482028e+03,1.250323e+03
1.484921e+03,1.244456e+03
1.487814e+03,1.242102e+03
1.490707e+03,1.239344e+03
1.493599e+03,1.233525e+03
1.496492e+03,1.236079e+03
1.499385e+03,1.231557e+03
1.502277e+03,1.235715e+03
1.505170e+03,1.232302e+03
1.508063e+03,1.228789e+03
1.510955e+03,1.228548e+03
1.513848e+03,1.222788e+03
1.516741e+03,1.216320e+03
1.519634e+03,1.213491e+03
1.522526e+03,1.218846e+03
1.525419e+03,1.225250e+03
1.528312e+03,1.210715e+03
1.531204e+03,1.209357e+03
1.534097e+03,1.206157e+03
1.536990e+03,1.226563e+03
1.539882e+03,1.222300e+03
1.542775e+03,1.216916e+03
1.545668e+03,1.206261e+03
1.548561e+03,1.209789e+03
1.551453e+03,1.221270e+03
1.554346e+03,1.216665e+03
1.557239e+03,1.208699e+03
1.560131e+03,1.209931e+03
1.563024e+03,1.206333e+03
1.565917e+03,1.203527e+03
1.568809e+03,1.207633e+03
1.571702e+03,1.197153e+03
1.574595e+03,1.202787e+03
1.577488e+03,1.197964e+03
1.580380e+03,1.214193e+03
1.583273e+03,1.224140e+03
1.586166e+03,1.195188e+03
1.589058e+03,1.195892e+03
1.591951e+03,1.180929e+03
1.594844e+03,1.191501e+03
1.597736e+03,1.174488e+03
1.600629e+03,1.186919e+03
1.603522e+03,1.175269e+03
1.606415e+03,1.179718e+03
1.609307e+03,1.194274e+03
1.612200e+03,1.188108e+03
1.615093e+03,1.171548e+03
1.617985e+03,1.181245e+03
1.620878e+03,1.158333e+03
1.623771e+03,1.150221e+03
1.626663e+03,1.143400e+03
1.629556e+03,1.135873e+03
1.632449e+03,1.138583e+03
1.635342e+03,1.135748e+03
1.638234e+03,1.133514e+03
1.641127e+03,1.122794e+03
1.644020e+03,1.113388e+03
1.646912e+03,1.129378e+03
1.649805e+03,1.121248e+03
1.652698e+03,1.118918e+03
1.655590e+03,1.108582e+03
1.658483e+03,1.113657e+03
1.661376e+03,1.108541e+03
1.664269e+03,1.108797e+03
1.667161e+03,1.106399e+03
1.670054e+03,1.112713e+03
1.672947e+03,1.096334e+03
1.675839e+03,1.088012e+03
1.678732e+03,1.103464e+03
1.681625e+03,1.098487e+03
1.684517e+03,1.091385e+03
1.687410e+03,1.085749e+03
1.690303e+03,1.085070e+03
1.693196e+03,1.084732e+03
1.696088e+03,1.091065e+03
1.698981e+03,1.096271e+03
1.701874e+03,1.084451e+03
1.704766e+03,1.090943e+03
1.707659e+03,1.081447e+03
1.710552e+03,1.095995e+03
1.713444e+03,1.078298e+03
1.716337e+03,1.088347e+03
1.719230e+03,1.074558e+03
1.722123e+03,1.085608e+03
1.725015e+03,1.091666e+03
1.727908e+03,1.077307e+03
1.730801e+03,1.068097e+03
1.733693e+03,1.072570e+03
1.736586e+03,1.062148e+03
1.739479e+03,1.061194e+03
1.742371e+03,1.049473e+03
1.745264e+03,1.041949e+03
1.748157e+03,1.042525e+03
1.751050e+03,1.042721e+03
1.753942e+03,1.042060e+03
1.756835e+03,1.043492e+03
1.759728e+03,1.031379e+03
1.762620e+03,1.034115e+03
1.765513e+03,1.030756e+03
1.768406e+03,1.036938e+03
1.771298e+03,1.023689e+03
1.774191e+03,1.020902e+03
1.777084e+03,1.007632e+03
1.779977e+03,1.012124e+03
1.782869e+03,1.012066e+03
1.785762e+03,1.013516e+03
1.788655e+03,1.006355e+03
1.791547e+03,1.008352e+03
1.794440e+03,1.014277e+03
1.797333e+03,9.996465e+02
1.800225e+03,1.000154e+03
1.803118e+03,9.970269e+02
1.806011e+03,9.910734e+02
1.808904e+03,1.002906e+03
1.811796e+03,9.946364e+02
1.814689e+03,1.000132e+03
1.817582e+03,9.896035e+02
1.820474e+03,9.882944e+02
1.823367e+03,9.795765e+02
1.826260e+03,9.798354e+02
1.829152e+03,9.846551e+02
1.832045e+03,9.757122e+02
1.834938e+03,9.893329e+02
1.837831e+03,9.767719e+02
1.840723e+03,9.820368e+02
1.843616e+03,9.706216e+02
1.846509e+03,9.773397e+02
1.849401e+03,9.714800e+02
1.852294e+03,9.646368e+02
1.855187e+03,9.398119e+02
1.858079e+03,9.687920e+02
1.860972e+03,9.590094e+02
1.863865e+03,9.613954e+02
1.866758e+03,9.575248e+02
1.869650e+03,9.524222e+02
1.872543e+03,9.529794e+02
1.875436e+03,9.557888e+02
1.878328e+03,9.411082e+02
1.881221e+03,9.372357e+02
1.884114e+03,9.392761e+02
1.887006e+03,9.237510e+02
1.889899e+03,9.357981e+02
1.892792e+03,9.309328e+02
1.895685e+03,9.258592e+02
1.898577e+03,9.320558e+02
1.901470e+03,9.221783e+02
1.904363e+03,9.126057e+02
1.907255e+03,9.140980e+02
1.910148e+03,9.107843e+02
1.913041e+03,9.260250e+02
1.915933e+03,9.146381e+02
1.918826e+03,9.047589e+02
1.921719e+03,9.077245e+02
1.924612e+03,8.992883e+02
1.927504e+03,8.978161e+02
1.930397e+03,9.065223e+02
1.933290e+03,8.938251e+02
1.936182e+03,9.118461e+02
1.939075e+03,8.942955e+02
1.941968e+03,8.962562e+02
1.944860e+03,8.847949e+02
1.947753e+03,8.879061e+02
1.950646e+03,8.844063e+02
1.953539e+03,8.918653e+02
1.956431e+03,8.850759e+02
1.959324e+03,8.759694e+02
1.962217e+03,8.858447e+02
1.965109e+03,8.705531e+02
1.968002e+03,8.849254e+02
1.970895e+03,8.800970e+02
1.973787e+03,8.622166e+02
1.976680e+03,8.693048e+02
1.979573e+03,8.684388e+02
1.982466e+03,8.693120e+02
1.985358e+03,8.723301e+02
1.988251e+03,8.643281e+02
1.991144e+03,8.610811e+02
1.994036e+03,8.566575e+02
1.996929e+03,8.561484e+02
1.999822e+03,8.515569e+02
2.002714e+03,8.536829e+02
2.005607e+03,8.582878e+02
2.008500e+03,8.458601e+02
2.011393e+03,8.579791e+02
2.014285e+03,8.447581e+02
2.017178e+03,8.427105e+02
2.020071e+03,8.390010e+02
2.022963e+03,8.462736e+02
2.025856e+03,8.259626e+02
2.028749e+03,8.456458e+02
2.031641e+03,8.292171e+02
2.034534e+03,8.312492e+02
2.037427e+03,8.333453e+02
2.040320e+03,8.134489e+02
2.043212e+03,8.246240e+02
2.046105e+03,8.231498e+02
2.048998e+03,8.183275e+02
2.051890e+03,8.153709e+02
2.054783e+03,8.089794e+02
2.057676e+03,8.114387e+02
2.060568e+03,8.053600e+02
2.063461e+03,8.004213e+02
2.066354e+03,8.083691e+02
2.069247e+03,7.970535e+02
2.072139e+03,7.927513e+02
2.075032e+03,7.891473e+02
2.077925e+03,7.825562e+02
2.080817e+03,7.981083e+02
2.083710e+03,7.942017e+02
2.086603e+03,7.723090e+02
2.089496e+03,7.736599e+02
2.092388e+03,7.779791e+02
2.095281e+03,7.820831e+02
2.098174e+03,7.745693e+02
2.101066e+03,7.730158e+02
2.103959e+03,7.730768e+02
2.106852e+03,7.599963e+02
2.109744e+03,7.699515e+02
2.112637e+03,7.584155e+02
2.115530e+03,7.631860e+02
2.118422e+03,7.549270e+02
2.121315e+03,7.781799e+02
2.124208e+03,7.580256e+02
2.127101e+03,7.510464e+02
2.129993e+03,7.559261e+02
2.132886e+03,7.583611e+02
2.135779e+03,7.472099e+02
2.138671e+03,7.450211e+02
2.141564e+03,7.434697e+02
2.144457e+03,7.524500e+02
2.147350e+03,7.396843e+02
2.150242e+03,7.486650e+02
2.153135e+03,7.390567e+02
2.156028e+03,7.398985e+02
2.158920e+03,7.356488e+02
2.161813e+03,7.327693e+02
2.164706e+03,7.232397e+02
2.167598e+03,7.228590e+02
2.170491e+03,7.337219e+02
2.173384e+03,7.309523e+02
2.176277e+03,7.295371e+02
2.179169e+03,7.245402e+02
2.182062e+03,7.290142e+02
2.184955e+03,7.353580e+02
2.187847e+03,7.167377e+02
2.190740e+03,7.034473e+02
2.193633e+03,7.089854e+02
2.196525e+03,6.969161e+02
2.199418e+03,7.106440e+02
2.202311e+03,6.928581e+02
2.205204e+03,7.008079e+02
2.208096e+03,6.951834e+02
2.210989e+03,7.005582e+02
2.213882e+03,6.899971e+02
2.216774e+03,6.945689e+02
2.219667e+03,6.924391e+02
2.222560e+03,6.895458e+02
2.225452e+03,6.966163e+02
2.228345e+03,6.818237e+02
2.231238e+03,6.871999e+02
2.234131e+03,6.874613e+02
2.237023e+03,6.883517e+02
2.239916e+03,6.843124e+02
2.242809e+03,6.705427e+02
2.245701e+03,6.643458e+02
2.248594e+03,6.842560e+02
2.251487e+03,6.628594e+02
2.254379e+03,6.683467e+02
2.257272e+03,6.617228e+02
2.260165e+03,6.668150e+02
2.263058e+03,6.657346e+02
2.265950e+03,6.704130e+02
2.268843e+03,6.574031e+02
2.271736e+03,6.573392e+02
2.274628e+03,6.679559e+02
2.277521e+03,6.567448e+02
2.280414e+03,6.601356e+02
2.283306e+03,6.696252e+02
2.286199e+03,6.588202e+02
2.289092e+03,6.512416e+02
2.291985e+03,6.498538e+02
2.294877e+03,6.498748e+02
2.297770e+03,6.506910e+02
2.300663e+03,6.434150e+02
2.303555e+03,6.395767e+02
2.306448e+03,6.359222e+02
2.309341e+03,6.367048e+02
2.312233e+03,6.477005e+02
2.315126e+03,6.386900e+02
2.318019e+03,6.333134e+02
2.320912e+03,6.364085e+02
2.323804e+03,6.255959e+02
2.326697e+03,6.332338e+02
2.329590e+03,6.315950e+02
2.332482e+03,6.301949e+02
2.335375e+03,6.186611e+02
2.338268e+03,6.192087e+02
2.341160e+03,6.181261e+02
2.344053e+03,6.233817e+02
2.346946e+03,6.124519e+02
2.349839e+03,5.985408e+02
2.352731e+03,6.072029e+02
2.355624e+03,6.129676e+02
2.358517e+03,6.108723e+02
2.361409e+03,6.118601e+02
2.364302e+03,6.048690e+02
2.367195e+03,5.978885e+02
2.370087e+03,5.995433e+02
2.372980e+03,6.046685e+02
2.375873e+03,6.120831e+02
2.378766e+03,5.997610e+02
2.381658e+03,5.940115e+02
2.384551e+03,5.967511e+02
2.387444e+03,6.008351e+02
2.390336e+03,5.881185e+02
2.393229e+03,5.835378e+02
2.396122e+03,5.861872e+02
2.399014e+03,5.834471e+02
2.401907e+03,5.869907e+02
2.404800e+03,5.814166e+02
2.407693e+03,5.820165e+02
2.410585e+03,5.743773e+02
2.413478e+03,5.811245e+02
2.416371e+03,5.779971e+02
2.419263e+03,5.803693e+02
2.422156e+03,5.712058e+02
2.425049e+03,5.765065e+02
2.427941e+03,5.811193e+02
2.430834e+03,5.683229e+02
2.433727e+03,5.734528e+02
2.436620e+03,5.749594e+02
2.439512e+03,5.721100e+02
2.442405e+03,5.649669e+02
2.445298e+03,5.724295e+02
2.448190e+03,5.704361e+02
2.451083e+03,5.699360e+02
2.453976e+03,5.570367e+02
2.456868e+03,5.601562e+02
2.459761e+03,5.620120e+02
2.462654e+03,5.641631e+02
2.465547e+03,5.549968e+02
2.468439e+03,5.524902e+02
2.471332e+03,5.483589e+02
2.474225e+03,5.511765e+02
2.477117e+03,5.439818e+02
2.480010e+03,5.544478e+02
2.482903e+03,5.565203e+02
2.485795e+03,5.505734e+02
2.488688e+03,5.571320e+02
2.491581e+03,5.480760e+02
2.494474e+03,5.574369e+02
2.497366e+03,5.414676e+02
2.500259e+03,5.407565e+02
2.503152e+03,5.410644e+02
2.506044e+03,5.483250e+02
2.508937e+03,5.498421e+02
2.511830e+03,5.328910e+02
2.514722e+03,5.313765e+02
2.517615e+03,5.394301e+02
2.520508e+03,5.296823e+02
2.523401e+03,5.303447e+02
2.526293e+03,5.262386e+02
2.529186e+03,5.316569e+02
2.532079e+03,5.345959e+02
2.534971e+03,5.330219e+02
2.537864e+03,5.217756e+02
2.540757e+03,5.285819e+02
2.543649e+03,5.348796e+02
2.546542e+03,5.324773e+02
2.549435e+03,5.352902e+02
2.552328e+03,5.259045e+02
2.555220e+03,5.348098e+02
2.558113e+03,5.220305e+02
2.561006e+03,5.228002e+02
2.563898e+03,5.354577e+02
2.566791e+03,5.162440e+02
2.569684e+03,5.239437e+02
2.572576e+03,5.254255e+02
2.575469e+03,5.174285e+02
2.578362e+03,5.107961e+02
2.581255e+03,5.192231e+02
2.584147e+03,5.056137e+02
2.587040e+03,5.201572e+02
2.589933e+03,5.053228e+02
2.592825e+03,5.199794e+02
2.595718e+03,5.000665e+02
2.598611e+03,5.173026e+02
2.601503e+03,5.110425e+02
2.604396e+03,5.064106e+02
2.607289e+03,5.085915e+02
2.610182e+03,4.945453e+02
2.613074e+03,4.927070e+02
2.615967e+03,5.109958e+02
2.618860e+03,4.913321e+02
2.621752e+03,5.033536e+02
2.624645e+03,5.044447e+02
2.627538e+03,4.963726e+02
2.630430e+03,5.011732e+02
2.633323e+03,5.008621e+02
2.636216e+03,4.927169e+02
2.639109e+03,5.044671e+02
2.642001e+03,4.889770e+02
2.644894e+03,4.850775e+02
2.647787e+03,4.892119e+02
2.650679e+03,4.961284e+02
2.653572e+03,4.825953e+02
2.656465e+03,4.984688e+02
2.659357e+03,5.035083e+02
2.662250e+03,4.857574e+02
2.665143e+03,4.898906e+02
2.668036e+03,4.926058e+02
2.670928e+03,4.930287e+02
2.673821e+03,4.908627e+02
2.676714e+03,4.810856e+02
2.679606e+03,4.845765e+02
2.682499e+03,4.859008e+02
2.685392e+03,4.709264e+02
2.688284e+03,4.748778e+02
2.691177e+03,4.910247e+02
2.694070e+03,4.672821e+02
2.696963e+03,4.732531e+02
2.699855e+03,4.995885e+02
2.702748e+03,4.677477e+02
2.705641e+03,4.836182e+02
2.708533e+03,4.768898e+02
2.711426e+03,4.711337e+02
2.714319e+03,4.724155e+02
2.717211e+03,4.832955e+02
2.720104e+03,4.788250e+02
2.722997e+03,4.677121e+02
2.725890e+03,4.588214e+02
2.728782e+03,4.651665e+02
2.731675e+03,4.705302e+02
2.734568e+03,4.629459e+02
2.737460e+03,4.667800e+02
2.740353e+03,4.619421e+02
2.743246e+03,4.684326e+02
2.746138e+03,4.703474e+02
2.749031e+03,4.705852e+02
2.751924e+03,4.591402e+02
2.754817e+03,4.724709e+02
2.757709e+03,4.496708e+02
2.760602e+03,4.579746e+02
2.763495e+03,4.548366e+02
2.766387e+03,4.599632e+02
2.769280e+03,4.558674e+02
2.772173e+03,4.664843e+02
2.775065e+03,4.613760e+02
2.777958e+03,4.733725e+02
2.780851e+03,4.581967e+02
2.783744e+03,4.634029e+02
2.786636e+03,4.594146e+02
2.789529e+03,4.611101e+02
2.792422e+03,4.642086e+02
2.795314e+03,4.491968e+02
2.798207e+03,4.499581e+02
2.801100e+03,4.743221e+02
2.803992e+03,4.516432e+02
2.806885e+03,4.440055e+02
2.809778e+03,4.545938e+02
2.812671e+03,4.518204e+02
2.815563e+03,4.420728e+02
2.818456e+03,4.553769e+02
2.821349e+03,4.468899e+02
2.824241e+03,4.586608e+02
2.827134e+03,4.519946e+02
2.830027e+03,4.390128e+02
2.832919e+03,4.372240e+02
2.835812e+03,4.523583e+02
2.838705e+03,4.566098e+02
2.841598e+03,4.496597e+02
2.844490e+03,4.578938e+02
2.847383e+03,4.410781e+02
2.850276e+03,4.516491e+02
2.853168e+03,4.598253e+02
2.856061e+03,4.669203e+02
2.858954e+03,4.425866e+02
2.861846e+03,4.668105e+02
2.864739e+03,4.472816e+02
2.867632e+03,4.661616e+02
2.870525e+03,4.668328e+02
2.873417e+03,4.690610e+02
2.876310e+03,4.741492e+02
2.879203e+03,4.732288e+02
2.882095e+03,4.621216e+02
2.884988e+03,4.740031e+02
2.887881e+03,4.654860e+02
2.890773e+03,4.722612e+02
2.893666e+03,4.794608e+02
2.896559e+03,4.937113e+02
2.899452e+03,5.153268e+02
2.902344e+03,4.757781e+02
2.905237e+03,4.614690e+02
2.908130e+03,4.743701e+02
2.911022e+03,4.839900e+02
2.913915e+03,4.530020e+02
2.916808e+03,4.670026e+02
2.919700e+03,4.630733e+02
2.922593e+03,4.572026e+02
2.925486e+03,4.497653e+02
2.928379e+03,4.445644e+02
2.931271e+03,4.359716e+02
2.934164e+03,4.341797e+02
2.937057e+03,4.403297e+02
2.939949e+03,4.605455e+02
2.942842e+03,4.269892e+02
2.945735e+03,4.633268e+02
2.948627e+03,4.464413e+02
2.951520e+03,4.377352e+02
2.954413e+03,4.365539e+02
2.957306e+03,4.656662e+02
2.960198e+03,4.563020e+02
2.963091e+03,4.308277e+02
2.965984e+03,4.317593e+02
2.968876e+03,4.335220e+02
2.971769e+03,4.178802e+02
2.974662e+03,4.341170e+02
2.977554e+03,4.241591e+02
2.980447e+03,4.244303e+02
2.983340e+03,4.367827e+02
2.986233e+03,4.033767e+02
2.989125e+03,4.068358e+02
2.992018e+03,4.176527e+02
2.994911e+03,4.136570e+02
2.997803e+03,4.217567e+02
3.000696e+03,4.016812e+02
3.003589e+03,4.162550e+02
3.006481e+03,4.019041e+02
3.009374e+03,4.016364e+02
3.012267e+03,3.912429e+02
3.015160e+03,3.960573e+02
3.018052e+03,3.852357e+02
3.020945e+03,3.851579e+02
3.023838e+03,3.846298e+02
3.026730e+03,4.108757e+02
3.029623e+03,4.008315e+02
3.032516e+03,4.129712e+02
3.035408e+03,3.784125e+02
3.038301e+03,4.010450e+02
3.041194e+03,3.831791e+02
3.044087e+03,3.691134e+02
3.046979e+03,3.943936e+02
3.049872e+03,3.911862e+02
3.052765e+03,3.950811e+02
3.055657e+03,3.849664e+02
3.058550e+03,4.040679e+02
3.061443e+03,3.973407e+02
3.064335e+03,3.645866e+02
3.067228e+03,3.658578e+02
3.070121e+03,3.742963e+02
3.073014e+03,3.710612e+02
3.075906e+03,4.081283e+02
3.078799e+03,4.167045e+02
3.081692e+03,3.972432e+02
3.084584e+03,4.074217e+02
3.087477e+03,3.946058e+02
3.090370e+03,3.904218e+02
3.093262e+03,3.751671e+02
3.096155e+03,4.061300e+02
3.099048e+03,3.845800e+02
3.101941e+03,4.049225e+02
3.104833e+03,3.911947e+02
3.107726e+03,3.951546e+02
3.110619e+03,3.973360e+02
3.113511e+03,3.885078e+02
3.116404e+03,3.931612e+02
3.119297e+03,3.744859e+02
3.122189e+03,4.061757e+02
3.125082e+03,4.259674e+02
3.127975e+03,3.891743e+02
3.130868e+03,4.004883e+02
3.133760e+03,4.089760e+02
3.136653e+03,3.841783e+02
3.139546e+03,3.995504e+02
3.142438e+03,4.057765e+02
3.145331e+03,3.650518e+02
3.148224e+03,4.117617e+02
3.151116e+03,3.887021e+02
3.154009e+03,4.089201e+02
3.156902e+03,4.122573e+02
3.159795e+03,3.777494e+02
3.162687e+03,4.072067e+02
3.165580e+03,3.884350e+02
3.168473e+03,4.054846e+02
3.171365e+03,4.117246e+02
3.174258e+03,4.192753e+02
3.177151e+03,4.119336e+02
3.180043e+03,3.828712e+02
3.182936e+03,3.946183e+02
3.185829e+03,3.873698e+02
3.188722e+03,4.121522e+02
3.191614e+03,4.043445e+02
3.194507e+03,4.128943e+02
3.197400e+03,3.572968e+02
3.200292e+03,4.270090e+02
3.203185e+03,0.000000e+00
3.206078e+03,0.000000e+00
3.208970e+03,0.000000e+00
3.211863e+03,0.000000e+00
3.214756e+03,0.000000e+00
3.217649e+03,0.000000e+00
3.220541e+03,0.000000e+00
3.223434e+03,0.000000e+00
3.226327e+03,0.000000e+00
3.229219e+03,0.000000e+00
3.232112e+03,0.000000e+00
3.235005e+03,0.000000e+00
3.237897e+03,0.000000e+00
3.240790e+03,0.000000e+00
3.243683e+03,0.000000e+00
3.246576e+03,0.000000e+00
3.249468e+03,0.000000e+00
3.252361e+03,0.000000e+00
3.255254e+03,0.000000e+00
3.258146e+03,0.000000e+00
3.261039e+03,0.000000e+00
3.263932e+03,0.000000e+00
3.266824e+03,0.000000e+00
3.269717e+03,0.000000e+00
3.272610e+03,0.000000e+00
3.275503e+03,0.000000e+00
3.278395e+03,0.000000e+00
3.281288e+03,0.000000e+00
3.284181e+03,0.000000e+00
3.287073e+03,0.000000e+00
3.289966e+03,0.000000e+00
3.292859e+03,0.000000e+00
3.295751e+03,0.000000e+00
3.298644e+03,0.000000e+00
3.301537e+03,0.000000e+00
3.304430e+03,0.000000e+00
3.307322e+03,0.000000e+00
3.310215e+03,0.000000e+00
3.313108e+03,0.000000e+00
3.316000e+03,0.000000e+00
3.318893e+03,0.000000e+00
3.321786e+03,0.000000e+00
3.324678e+03,0.000000e+00
3.327571e+03,0.000000e+00
3.330464e+03,0.000000e+00
3.333357e+03,0.000000e+00
3.336249e+03,0.000000e+00
3.339142e+03,0.000000e+00
3.342035e+03,0.000000e+00
3.344927e+03,0.000000e+00
3.347820e+03,0.000000e+00
3.350713e+03,0.000000e+00
3.353605e+03,0.000000e+00
3.356498e+03,0.000000e+00
3.359391e+03,0.000000e+00
3.362284e+03,0.000000e+00
3.365176e+03,0.000000e+00
3.368069e+03,0.000000e+00
3.370962e+03,0.000000e+00
3.373854e+03,0.000000e+00
3.376747e+03,0.000000e+00
3.379640e+03,0.000000e+00
3.382532e+03,0.000000e+00
3.385425e+03,0.000000e+00
3.388318e+03,0.000000e+00
3.391211e+03,0.000000e+00
3.394103e+03,0.000000e+00
3.396996e+03,0.000000e+00
3.399889e+03,0.000000e+00
3.402781e+03,0.000000e+00
3.405674e+03,0.000000e+00
3.408567e+03,0.000000e+00
3.411459e+03,0.000000e+00
3.414352e+03,0.000000e+00
3.417245e+03,0.000000e+00
3.420138e+03,0.000000e+00
3.423030e+03,0.000000e+00
3.425923e+03,0.000000e+00
3.428816e+03,0.000000e+00
3.431708e+03,0.000000e+00
3.434601e+03,0.000000e+00
3.437494e+03,0.000000e+00
3.440386e+03,0.000000e+00
3.443279e+03,0.000000e+00
3.446172e+03,0.000000e+00
3.449065e+03,0.000000e+00
3.451957e+03,0.000000e+00
3.454850e+03,0.000000e+00
3.457743e+03,0.000000e+00
3.460635e+03,0.000000e+00
3.463528e+03,0.000000e+00
3.466421e+03,0.000000e+00
3.469313e+03,0.000000e+00
3.472206e+03,0.000000e+00
3.475099e+03,0.000000e+00
3.477992e+03,0.000000e+00
3.480884e+03,0.000000e+00
3.483777e+03,0.000000e+00
3.486670e+03,0.000000e+00
3.489563e+03,0.000000e+00
3.492455e+03,0.000000e+00
3.495348e+03,0.000000e+00
3.498240e+03,0.000000e+00
3.500169e+03,0.000000e+00