File: RAMAN_data/14032024_r1/black fibre5.CSV
9.931763e+01,0.000000e+00
1.022103e+02,0.000000e+00
1.051030e+02,0.000000e+00
1.079957e+02,0.000000e+00
1.108884e+02,0.000000e+00
1.137811e+02,0.000000e+00
1.166738e+02,0.000000e+00
1.195665e+02,0.000000e+00
1.224592e+02,0.000000e+00
1.253519e+02,0.000000e+00
1.282446e+02,0.000000e+00
1.311373e+02,0.000000e+00
1.340300e+02,0.000000e+00
1.369227e+02,0.000000e+00
1.398154e+02,0.000000e+00
1.427081e+02,0.000000e+00
1.456008e+02,0.000000e+00
1.484935e+02,0.000000e+00
1.513862e+02,0.000000e+00
1.542789e+02,0.000000e+00
1.571716e+02,0.000000e+00
1.600643e+02,0.000000e+00
1.629570e+02,0.000000e+00
1.658497e+02,0.000000e+00
1.687424e+02,0.000000e+00
1.716351e+02,0.000000e+00
1.745278e+02,0.000000e+00
1.774205e+02,0.000000e+00
1.803132e+02,0.000000e+00
1.832059e+02,0.000000e+00
1.860986e+02,0.000000e+00
1.889913e+02,0.000000e+00
1.918840e+02,0.000000e+00
1.947767e+02,0.000000e+00
1.976694e+02,0.000000e+00
2.005621e+02,2.303161e+03
2.034548e+02,2.304104e+03
2.063475e+02,2.304601e+03
2.092402e+02,2.300716e+03
2.121329e+02,2.299168e+03
2.150256e+02,2.290112e+03
2.179183e+02,2.283281e+03
2.208110e+02,2.281284e+03
2.237037e+02,2.275169e+03
2.265964e+02,2.254573e+03
2.294892e+02,2.255505e+03
2.323819e+02,2.243322e+03
2.352746e+02,2.238996e+03
2.381673e+02,2.237847e+03
2.410600e+02,2.224179e+03
2.439527e+02,2.208065e+03
2.468454e+02,2.202521e+03
2.497381e+02,2.201692e+03
2.526308e+02,2.218829e+03
2.555235e+02,2.188309e+03
2.584161e+02,2.187040e+03
2.613088e+02,2.188388e+03
2.642015e+02,2.192539e+03
2.670942e+02,2.195868e+03
2.699869e+02,2.203015e+03
2.728796e+02,2.197582e+03
2.757723e+02,2.192512e+03
2.786650e+02,2.193380e+03
2.815577e+02,2.187949e+03
2.844504e+02,2.185162e+03
2.873431e+02,2.193688e+03
2.902358e+02,2.194851e+03
2.931285e+02,2.186774e+03
2.960212e+02,2.190465e+03
2.989139e+02,2.202428e+03
3.018066e+02,2.202255e+03
3.046993e+02,2.190533e+03
3.075920e+02,2.191553e+03
3.104847e+02,2.178144e+03
3.133774e+02,2.189851e+03
3.162701e+02,2.168422e+03
3.191628e+02,2.172447e+03
3.220555e+02,2.173570e+03
3.249482e+02,2.184193e+03
3.278409e+02,2.193456e+03
3.307336e+02,2.182041e+03
3.336263e+02,2.164207e+03
3.365190e+02,2.173792e+03
3.394117e+02,2.170252e+03
3.423044e+02,2.168798e+03
3.451971e+02,2.184194e+03
3.480898e+02,2.171354e+03
3.509825e+02,2.177786e+03
3.538752e+02,2.167009e+03
3.567680e+02,2.165342e+03
3.596607e+02,2.165321e+03
3.625534e+02,2.167474e+03
3.654461e+02,2.155257e+03
3.683388e+02,2.138076e+03
3.712315e+02,2.144824e+03
3.741242e+02,2.146455e+03
3.770169e+02,2.156996e+03
3.799096e+02,2.138797e+03
3.828023e+02,2.114998e+03
3.856950e+02,2.101837e+03
3.885877e+02,2.096706e+03
3.914804e+02,2.088383e+03
3.943731e+02,2.066625e+03
3.972658e+02,2.070724e+03
4.001585e+02,2.062260e+03
4.030512e+02,2.069562e+03
4.059439e+02,2.062549e+03
4.088366e+02,2.067180e+03
4.117293e+02,2.054496e+03
4.146220e+02,2.048714e+03
4.175147e+02,2.070880e+03
4.204074e+02,2.069002e+03
4.233001e+02,2.059413e+03
4.261928e+02,2.068511e+03
4.290855e+02,2.060257e+03
4.319782e+02,2.059251e+03
4.348709e+02,2.058185e+03
4.377636e+02,2.062245e+03
4.406563e+02,2.055845e+03
4.435490e+02,2.047775e+03
4.464417e+02,2.039178e+03
4.493344e+02,2.058432e+03
4.522271e+02,2.056562e+03
4.551198e+02,2.051762e+03
4.580125e+02,2.027607e+03
4.609052e+02,2.027293e+03
4.637979e+02,2.031785e+03
4.666906e+02,2.026051e+03
4.695833e+02,2.023306e+03
4.724760e+02,2.025627e+03
4.753687e+02,2.009396e+03
4.782614e+02,2.014203e+03
4.811541e+02,2.007567e+03
4.840468e+02,2.008094e+03
4.869395e+02,2.003520e+03
4.898322e+02,2.029680e+03
4.927249e+02,2.019773e+03
4.956176e+02,2.012738e+03
4.985103e+02,2.013809e+03
5.014030e+02,2.018407e+03
5.042957e+02,2.019450e+03
5.071884e+02,2.006706e+03
5.100811e+02,2.014938e+03
5.129738e+02,2.001629e+03
5.158665e+02,2.011124e+03
5.187592e+02,1.988340e+03
5.216519e+02,1.969210e+03
5.245446e+02,1.967193e+03
5.274373e+02,1.964049e+03
5.303300e+02,1.941625e+03
5.332227e+02,1.941238e+03
5.361154e+02,1.944867e+03
5.390081e+02,1.918737e+03
5.419008e+02,1.925877e+03
5.447935e+02,1.927416e+03
5.476862e+02,1.932748e+03
5.505789e+02,1.923323e+03
5.534716e+02,1.912909e+03
5.563643e+02,1.909064e+03
5.592570e+02,1.914848e+03
5.621497e+02,1.917535e+03
5.650424e+02,1.914091e+03
5.679351e+02,1.921059e+03
5.708278e+02,1.901641e+03
5.737205e+02,1.908803e+03
5.766132e+02,1.902485e+03
5.795059e+02,1.897585e+03
5.823986e+02,1.895805e+03
5.852913e+02,1.893934e+03
5.881840e+02,1.909042e+03
5.910767e+02,1.901576e+03
5.939694e+02,1.900131e+03
5.968621e+02,1.892921e+03
5.997548e+02,1.888197e+03
6.026475e+02,1.902618e+03
6.055402e+02,1.910291e+03
6.084329e+02,1.891029e+03
6.113256e+02,1.884238e+03
6.142183e+02,1.875517e+03
6.171110e+02,1.886929e+03
6.200037e+02,1.877176e+03
6.228964e+02,1.883652e+03
6.257891e+02,1.881956e+03
6.286818e+02,1.870463e+03
6.315745e+02,1.880189e+03
6.344672e+02,1.878217e+03
6.373599e+02,1.870982e+03
6.402526e+02,1.880282e+03
6.431453e+02,1.866038e+03
6.460380e+02,1.867797e+03
6.489307e+02,1.863173e+03
6.518234e+02,1.863182e+03
6.547161e+02,1.860455e+03
6.576088e+02,1.857226e+03
6.605015e+02,1.834248e+03
6.633942e+02,1.836631e+03
6.662869e+02,1.830453e+03
6.691796e+02,1.833081e+03
6.720723e+02,1.812482e+03
6.749650e+02,1.805492e+03
6.778577e+02,1.801569e+03
6.807504e+02,1.799451e+03
6.836431e+02,1.804083e+03
6.865358e+02,1.794640e+03
6.894285e+02,1.785286e+03
6.923212e+02,1.792177e+03
6.952139e+02,1.795307e+03
6.981066e+02,1.777032e+03
7.009993e+02,1.784970e+03
7.038920e+02,1.785461e+03
7.067847e+02,1.781600e+03
7.096774e+02,1.784082e+03
7.125701e+02,1.760888e+03
7.154628e+02,1.783075e+03
7.183555e+02,1.782454e+03
7.212482e+02,1.771630e+03
7.241409e+02,1.782581e+03
7.270336e+02,1.785608e+03
7.299263e+02,1.786545e+03
7.328190e+02,1.790731e+03
7.357117e+02,1.784193e+03
7.386044e+02,1.782384e+03
7.414971e+02,1.776542e+03
7.443898e+02,1.763040e+03
7.472825e+02,1.772272e+03
7.501752e+02,1.784785e+03
7.530679e+02,1.777769e+03
7.559606e+02,1.757964e+03
7.588533e+02,1.764371e+03
7.617460e+02,1.770381e+03
7.646387e+02,1.758456e+03
7.675314e+02,1.746329e+03
7.704241e+02,1.746505e+03
7.733168e+02,1.744644e+03
7.762095e+02,1.761093e+03
7.791022e+02,1.731789e+03
7.819949e+02,1.755832e+03
7.848876e+02,1.737389e+03
7.877803e+02,1.734482e+03
7.906730e+02,1.745691e+03
7.935657e+02,1.743029e+03
7.964584e+02,1.719792e+03
7.993511e+02,1.724816e+03
8.022438e+02,1.719728e+03
8.051365e+02,1.715186e+03
8.080292e+02,1.705057e+03
8.109219e+02,1.706300e+03
8.138146e+02,1.717217e+03
8.167073e+02,1.688463e+03
8.196000e+02,1.687037e+03
8.224927e+02,1.685545e+03
8.253854e+02,1.678890e+03
8.282781e+02,1.683284e+03
8.311708e+02,1.669811e+03
8.340635e+02,1.672952e+03
8.369562e+02,1.664197e+03
8.398489e+02,1.672127e+03
8.427416e+02,1.668791e+03
8.456343e+02,1.658993e+03
8.485270e+02,1.666737e+03
8.514197e+02,1.672458e+03
8.543124e+02,1.669256e+03
8.572051e+02,1.659436e+03
8.600978e+02,1.666960e+03
8.629905e+02,1.669949e+03
8.658832e+02,1.653503e+03
8.687759e+02,1.653808e+03
8.716686e+02,1.653272e+03
8.745613e+02,1.650688e+03
8.774540e+02,1.656042e+03
8.803467e+02,1.651843e+03
8.832394e+02,1.654180e+03
8.861321e+02,1.663033e+03
8.890248e+02,1.655462e+03
8.919175e+02,1.647424e+03
8.948102e+02,1.646434e+03
8.977029e+02,1.646574e+03
9.005956e+02,1.664051e+03
9.034883e+02,1.664233e+03
9.063810e+02,1.652177e+03
9.092737e+02,1.643640e+03
9.121664e+02,1.629779e+03
9.150591e+02,1.639316e+03
9.179518e+02,1.639163e+03
9.208445e+02,1.634224e+03
9.237372e+02,1.640009e+03
9.266299e+02,1.634196e+03
9.295226e+02,1.637345e+03
9.324153e+02,1.641057e+03
9.353080e+02,1.633617e+03
9.382007e+02,1.621988e+03
9.410934e+02,1.617528e+03
9.439861e+02,1.615865e+03
9.468788e+02,1.611793e+03
9.497715e+02,1.607373e+03
9.526642e+02,1.591180e+03
9.555569e+02,1.594927e+03
9.584496e+02,1.588354e+03
9.613423e+02,1.594845e+03
9.642350e+02,1.595888e+03
9.671277e+02,1.581047e+03
9.700204e+02,1.580973e+03
9.729131e+02,1.568544e+03
9.758058e+02,1.576076e+03
9.786985e+02,1.580160e+03
9.815912e+02,1.566219e+03
9.844839e+02,1.578512e+03
9.873766e+02,1.555926e+03
9.902693e+02,1.560803e+03
9.931620e+02,1.574437e+03
9.960547e+02,1.567378e+03
9.989474e+02,1.551615e+03
1.001840e+03,1.555224e+03
1.004733e+03,1.546701e+03
1.007626e+03,1.554490e+03
1.010518e+03,1.543033e+03
1.013411e+03,1.545321e+03
1.016304e+03,1.558945e+03
1.019196e+03,1.553601e+03
1.022089e+03,1.553043e+03
1.024982e+03,1.542629e+03
1.027875e+03,1.556361e+03
1.030767e+03,1.552712e+03
1.033660e+03,1.558168e+03
1.036552e+03,1.563460e+03
1.039445e+03,1.575472e+03
1.042338e+03,1.553563e+03
1.045231e+03,1.567685e+03
1.048123e+03,1.564549e+03
1.051016e+03,1.577485e+03
1.053909e+03,1.580140e+03
1.056802e+03,1.578343e+03
1.059694e+03,1.573132e+03
1.062587e+03,1.573564e+03
1.065479e+03,1.602952e+03
1.068372e+03,1.600937e+03
1.071265e+03,1.610287e+03
1.074158e+03,1.598779e+03
1.077050e+03,1.598555e+03
1.079943e+03,1.592806e+03
1.082836e+03,1.595209e+03
1.085729e+03,1.600371e+03
1.088621e+03,1.602623e+03
1.091514e+03,1.614373e+03
1.094406e+03,1.617229e+03
1.097299e+03,1.606242e+03
1.100192e+03,1.604973e+03
1.103085e+03,1.582655e+03
1.105977e+03,1.587552e+03
1.108870e+03,1.575464e+03
1.111763e+03,1.568619e+03
1.114656e+03,1.556972e+03
1.117548e+03,1.574377e+03
1.120441e+03,1.580736e+03
1.123334e+03,1.569396e+03
1.126226e+03,1.553086e+03
1.129119e+03,1.541096e+03
1.132012e+03,1.555073e+03
1.134904e+03,1.557972e+03
1.137797e+03,1.546598e+03
1.140690e+03,1.563926e+03
1.143583e+03,1.566092e+03
1.146475e+03,1.568140e+03
1.149368e+03,1.559607e+03
1.152261e+03,1.570447e+03
1.155153e+03,1.588562e+03
1.158046e+03,1.581275e+03
1.160939e+03,1.581946e+03
1.163831e+03,1.593857e+03
1.166724e+03,1.583481e+03
1.169617e+03,1.576491e+03
1.172510e+03,1.574277e+03
1.175402e+03,1.555895e+03
1.178295e+03,1.558396e+03
1.181188e+03,1.538078e+03
1.184080e+03,1.527805e+03
1.186973e+03,1.527723e+03
1.189866e+03,1.545342e+03
1.192758e+03,1.550417e+03
1.195651e+03,1.550171e+03
1.198544e+03,1.550312e+03
1.201437e+03,1.548675e+03
1.204329e+03,1.543431e+03
1.207222e+03,1.546680e+03
1.210115e+03,1.561463e+03
1.213007e+03,1.536851e+03
1.215900e+03,1.524530e+03
1.218793e+03,1.527665e+03
1.221685e+03,1.527739e+03
1.224578e+03,1.526084e+03
1.227471e+03,1.532060e+03
1.230364e+03,1.506052e+03
1.233256e+03,1.506359e+03
1.236149e+03,1.499772e+03
1.239042e+03,1.492188e+03
1.241934e+03,1.494258e+03
1.244827e+03,1.495507e+03
1.247720e+03,1.480296e+03
1.250612e+03,1.480388e+03
1.253505e+03,1.475173e+03
1.256398e+03,1.479954e+03
1.259291e+03,1.471204e+03
1.262183e+03,1.483986e+03
1.265076e+03,1.470585e+03
1.267969e+03,1.464616e+03
1.270861e+03,1.484292e+03
1.273754e+03,1.479806e+03
1.276647e+03,1.487753e+03
1.279539e+03,1.484633e+03
1.282432e+03,1.482303e+03
1.285325e+03,1.483244e+03
1.288218e+03,1.493951e+03
1.291110e+03,1.500873e+03
1.294003e+03,1.488859e+03
1.296896e+03,1.484312e+03
1.299788e+03,1.485982e+03
1.302681e+03,1.495032e+03
1.305574e+03,1.499709e+03
1.308466e+03,1.507342e+03
1.311359e+03,1.511450e+03
1.314252e+03,1.508462e+03
1.317145e+03,1.520901e+03
1.320037e+03,1.534621e+03
1.322930e+03,1.527574e+03
1.325823e+03,1.534283e+03
1.328715e+03,1.516972e+03
1.331608e+03,1.517955e+03
1.334501e+03,1.527572e+03
1.337393e+03,1.538076e+03
1.340286e+03,1.501282e+03
1.343179e+03,1.505450e+03
1.346072e+03,1.492047e+03
1.348964e+03,1.493191e+03
1.351857e+03,1.475332e+03
1.354750e+03,1.480149e+03
1.357642e+03,1.479895e+03
1.360535e+03,1.483018e+03
1.363428e+03,1.484068e+03
1.366320e+03,1.469675e+03
1.369213e+03,1.473689e+03
1.372106e+03,1.470546e+03
1.374999e+03,1.457783e+03
1.377891e+03,1.450460e+03
1.380784e+03,1.453957e+03
1.383677e+03,1.444910e+03
1.386569e+03,1.436378e+03
1.389462e+03,1.428621e+03
1.392355e+03,1.414890e+03
1.395247e+03,1.413736e+03
1.398140e+03,1.408821e+03
1.401033e+03,1.405719e+03
1.403926e+03,1.392629e+03
1.406818e+03,1.382542e+03
1.409711e+03,1.398557e+03
1.412604e+03,1.386032e+03
1.415496e+03,1.372444e+03
1.418389e+03,1.390174e+03
1.421282e+03,1.368899e+03
1.424174e+03,1.366072e+03
1.427067e+03,1.360859e+03
1.429960e+03,1.357943e+03
1.432853e+03,1.358186e+03
1.435745e+03,1.366095e+03
1.438638e+03,1.348587e+03
1.441531e+03,1.354309e+03
1.444423e+03,1.367240e+03
1.447316e+03,1.351480e+03
1.450209e+03,1.344973e+03
1.453101e+03,1.345100e+03
1.455994e+03,1.342684e+03
1.458887e+03,1.345300e+03
1.461780e+03,1.335650e+03
1.464672e+03,1.327297e+03
1.467565e+03,1.320896e+03
1.470458e+03,1.320563e+03
1.473350e+03,1.325246e+03
1.476243e+03,1.327170e+03
1.479136e+03,1.325067e+03
1.482028e+03,1.310288e+03
1.484921e+03,1.314106e+03
1.487814e+03,1.320266e+03
1.490707e+03,1.323504e+03
1.493599e+03,1.317294e+03
1.496492e+03,1.313520e+03
1.499385e+03,1.309083e+03
1.502277e+03,1.305855e+03
1.505170e+03,1.311842e+03
1.508063e+03,1.298389e+03
1.510955e+03,1.295943e+03
1.513848e+03,1.293427e+03
1.516741e+03,1.286047e+03
1.519634e+03,1.294710e+03
1.522526e+03,1.283758e+03
1.525419e+03,1.273412e+03
1.528312e+03,1.266370e+03
1.531204e+03,1.259128e+03
1.534097e+03,1.256049e+03
1.536990e+03,1.252737e+03
1.539882e+03,1.247095e+03
1.542775e+03,1.239214e+03
1.545668e+03,1.240625e+03
1.548561e+03,1.243568e+03
1.551453e+03,1.237131e+03
1.554346e+03,1.229082e+03
1.557239e+03,1.247357e+03
1.560131e+03,1.221093e+03
1.563024e+03,1.221179e+03
1.565917e+03,1.220488e+03
1.568809e+03,1.224024e+03
1.571702e+03,1.216691e+03
1.574595e+03,1.221129e+03
1.577488e+03,1.222065e+03
1.580380e+03,1.232578e+03
1.583273e+03,1.226238e+03
1.586166e+03,1.221536e+03
1.589058e+03,1.199210e+03
1.591951e+03,1.207556e+03
1.594844e+03,1.197968e+03
1.597736e+03,1.197016e+03
1.600629e+03,1.202958e+03
1.603522e+03,1.191682e+03
1.606415e+03,1.201210e+03
1.609307e+03,1.212532e+03
1.612200e+03,1.215599e+03
1.615093e+03,1.213844e+03
1.617985e+03,1.198318e+03
1.620878e+03,1.183156e+03
1.623771e+03,1.170615e+03
1.626663e+03,1.160812e+03
1.629556e+03,1.155223e+03
1.632449e+03,1.150238e+03
1.635342e+03,1.145762e+03
1.638234e+03,1.157679e+03
1.641127e+03,1.157994e+03
1.644020e+03,1.153510e+03
1.646912e+03,1.149961e+03
1.649805e+03,1.136153e+03
1.652698e+03,1.137362e+03
1.655590e+03,1.136302e+03
1.658483e+03,1.129989e+03
1.661376e+03,1.134689e+03
1.664269e+03,1.116711e+03
1.667161e+03,1.111398e+03
1.670054e+03,1.111361e+03
1.672947e+03,1.106595e+03
1.675839e+03,1.091408e+03
1.678732e+03,1.103407e+03
1.681625e+03,1.090154e+03
1.684517e+03,1.097589e+03
1.687410e+03,1.088480e+03
1.690303e+03,1.084542e+03
1.693196e+03,1.074394e+03
1.696088e+03,1.075592e+03
1.698981e+03,1.087922e+03
1.701874e+03,1.069895e+03
1.704766e+03,1.070468e+03
1.707659e+03,1.079264e+03
1.710552e+03,1.066609e+03
1.713444e+03,1.063541e+03
1.716337e+03,1.059647e+03
1.719230e+03,1.054441e+03
1.722123e+03,1.059664e+03
1.725015e+03,1.053168e+03
1.727908e+03,1.051692e+03
1.730801e+03,1.045658e+03
1.733693e+03,1.033745e+03
1.736586e+03,1.038472e+03
1.739479e+03,1.033538e+03
1.742371e+03,1.027444e+03
1.745264e+03,1.018394e+03
1.748157e+03,1.011081e+03
1.751050e+03,1.010297e+03
1.753942e+03,1.012797e+03
1.756835e+03,1.021242e+03
1.759728e+03,1.005807e+03
1.762620e+03,1.007006e+03
1.765513e+03,1.003239e+03
1.768406e+03,1.010428e+03
1.771298e+03,1.007583e+03
1.774191e+03,1.005278e+03
1.777084e+03,1.004957e+03
1.779977e+03,9.947543e+02
1.782869e+03,1.005670e+03
1.785762e+03,1.002912e+03
1.788655e+03,9.994258e+02
1.791547e+03,9.912372e+02
1.794440e+03,9.892474e+02
1.797333e+03,9.875919e+02
1.800225e+03,9.750355e+02
1.803118e+03,9.839176e+02
1.806011e+03,9.680102e+02
1.808904e+03,9.676602e+02
1.811796e+03,9.698834e+02
1.814689e+03,9.590750e+02
1.817582e+03,9.611777e+02
1.820474e+03,9.520863e+02
1.823367e+03,9.485406e+02
1.826260e+03,9.402761e+02
1.829152e+03,9.488041e+02
1.832045e+03,9.394926e+02
1.834938e+03,9.371270e+02
1.837831e+03,9.409554e+02
1.840723e+03,9.268575e+02
1.843616e+03,9.305286e+02
1.846509e+03,9.253190e+02
1.849401e+03,9.109732e+02
1.852294e+03,9.083173e+02
1.855187e+03,9.179835e+02
1.858079e+03,9.222095e+02
1.860972e+03,9.176086e+02
1.863865e+03,9.060577e+02
1.866758e+03,9.016867e+02
1.869650e+03,9.053036e+02
1.872543e+03,8.992832e+02
1.875436e+03,9.011216e+02
1.878328e+03,8.875927e+02
1.881221e+03,8.829131e+02
1.884114e+03,8.893819e+02
1.887006e+03,8.844265e+02
1.889899e+03,8.806529e+02
1.892792e+03,8.779373e+02
1.895685e+03,8.720170e+02
1.898577e+03,8.710473e+02
1.901470e+03,8.817597e+02
1.904363e+03,8.641994e+02
1.907255e+03,8.699303e+02
1.910148e+03,8.705463e+02
1.913041e+03,8.677104e+02
1.915933e+03,8.644667e+02
1.918826e+03,8.545921e+02
1.921719e+03,8.532924e+02
1.924612e+03,8.611621e+02
1.927504e+03,8.590576e+02
1.930397e+03,8.638656e+02
1.933290e+03,8.460257e+02
1.936182e+03,8.557831e+02
1.939075e+03,8.457686e+02
1.941968e+03,8.417725e+02
1.944860e+03,8.568559e+02
1.947753e+03,8.454342e+02
1.950646e+03,8.427079e+02
1.953539e+03,8.398506e+02
1.956431e+03,8.348011e+02
1.959324e+03,8.345517e+02
1.962217e+03,8.431721e+02
1.965109e+03,8.221271e+02
1.968002e+03,8.243396e+02
1.970895e+03,8.200084e+02
1.973787e+03,8.200933e+02
1.976680e+03,8.227235e+02
1.979573e+03,8.051096e+02
1.982466e+03,7.931290e+02
1.985358e+03,8.073616e+02
1.988251e+03,8.015176e+02
1.991144e+03,7.913517e+02
1.994036e+03,7.959972e+02
1.996929e+03,7.901956e+02
1.999822e+03,7.969598e+02
2.002714e+03,7.818338e+02
2.005607e+03,7.947590e+02
2.008500e+03,7.814580e+02
2.011393e+03,7.869772e+02
2.014285e+03,7.816430e+02
2.017178e+03,7.857625e+02
2.020071e+03,7.754308e+02
2.022963e+03,7.616804e+02
2.025856e+03,7.667526e+02
2.028749e+03,7.615098e+02
2.031641e+03,7.578464e+02
2.034534e+03,7.594070e+02
2.037427e+03,7.546830e+02
2.040320e+03,7.459856e+02
2.043212e+03,7.486537e+02
2.046105e+03,7.512906e+02
2.048998e+03,7.536212e+02
2.051890e+03,7.450573e+02
2.054783e+03,7.536444e+02
2.057676e+03,7.431732e+02
2.060568e+03,7.334111e+02
2.063461e+03,7.375315e+02
2.066354e+03,7.380518e+02
2.069247e+03,7.347311e+02
2.072139e+03,7.348880e+02
2.075032e+03,7.335917e+02
2.077925e+03,7.321132e+02
2.080817e+03,7.304437e+02
2.083710e+03,7.171146e+02
2.086603e+03,7.134804e+02
2.089496e+03,7.198524e+02
2.092388e+03,7.184601e+02
2.095281e+03,7.229743e+02
2.098174e+03,7.079030e+02
2.101066e+03,7.120108e+02
2.103959e+03,7.083337e+02
2.106852e+03,7.118602e+02
2.109744e+03,7.034123e+02
2.112637e+03,7.057374e+02
2.115530e+03,6.955877e+02
2.118422e+03,7.006402e+02
2.121315e+03,6.990875e+02
2.124208e+03,6.986615e+02
2.127101e+03,6.939348e+02
2.129993e+03,6.834568e+02
2.132886e+03,6.884230e+02
2.135779e+03,6.861469e+02
2.138671e+03,6.804767e+02
2.141564e+03,6.763631e+02
2.144457e+03,6.671748e+02
2.147350e+03,6.620971e+02
2.150242e+03,6.781346e+02
2.153135e+03,6.735201e+02
2.156028e+03,6.510739e+02
2.158920e+03,6.501583e+02
2.161813e+03,6.672748e+02
2.164706e+03,6.571669e+02
2.167598e+03,6.538765e+02
2.170491e+03,6.502448e+02
2.173384e+03,6.431603e+02
2.176277e+03,6.547864e+02
2.179169e+03,6.472198e+02
2.182062e+03,6.447924e+02
2.184955e+03,6.433653e+02
2.187847e+03,6.470568e+02
2.190740e+03,6.367418e+02
2.193633e+03,6.266017e+02
2.196525e+03,6.362285e+02
2.199418e+03,6.418771e+02
2.202311e+03,6.272199e+02
2.205204e+03,6.352691e+02
2.208096e+03,6.332631e+02
2.210989e+03,6.326272e+02
2.213882e+03,6.217172e+02
2.216774e+03,6.365257e+02
2.219667e+03,6.204182e+02
2.222560e+03,6.226512e+02
2.225452e+03,6.190150e+02
2.228345e+03,6.190659e+02
2.231238e+03,6.250699e+02
2.234131e+03,6.173531e+02
2.237023e+03,6.096998e+02
2.239916e+03,6.138670e+02
2.242809e+03,6.111156e+02
2.245701e+03,5.944738e+02
2.248594e+03,6.093342e+02
2.251487e+03,6.024470e+02
2.254379e+03,6.020674e+02
2.257272e+03,6.098440e+02
2.260165e+03,6.055448e+02
2.263058e+03,5.976078e+02
2.265950e+03,5.983500e+02
2.268843e+03,5.862958e+02
2.271736e+03,5.833771e+02
2.274628e+03,5.858320e+02
2.277521e+03,5.895293e+02
2.280414e+03,5.790021e+02
2.283306e+03,5.832375e+02
2.286199e+03,5.752721e+02
2.289092e+03,5.750212e+02
2.291985e+03,5.755287e+02
2.294877e+03,5.662066e+02
2.297770e+03,5.689298e+02
2.300663e+03,5.765068e+02
2.303555e+03,5.593016e+02
2.306448e+03,5.615327e+02
2.309341e+03,5.628489e+02
2.312233e+03,5.525170e+02
2.315126e+03,5.581582e+02
2.318019e+03,5.487020e+02
2.320912e+03,5.492813e+02
2.323804e+03,5.527705e+02
2.326697e+03,5.507985e+02
2.329590e+03,5.463176e+02
2.332482e+03,5.467108e+02
2.335375e+03,5.486169e+02
2.338268e+03,5.488577e+02
2.341160e+03,5.422749e+02
2.344053e+03,5.376296e+02
2.346946e+03,5.423644e+02
2.349839e+03,5.366742e+02
2.352731e+03,5.444899e+02
2.355624e+03,5.310591e+02
2.358517e+03,5.370807e+02
2.361409e+03,5.476321e+02
2.364302e+03,5.323576e+02
2.367195e+03,5.272916e+02
2.370087e+03,5.278595e+02
2.372980e+03,5.384738e+02
2.375873e+03,5.150479e+02
2.378766e+03,5.263655e+02
2.381658e+03,5.257916e+02
2.384551e+03,5.193784e+02
2.387444e+03,5.184634e+02
2.390336e+03,5.190893e+02
2.393229e+03,5.140444e+02
2.396122e+03,5.123024e+02
2.399014e+03,5.179317e+02
2.401907e+03,5.086818e+02
2.404800e+03,4.973303e+02
2.407693e+03,5.100070e+02
2.410585e+03,5.023199e+02
2.413478e+03,4.916519e+02
2.416371e+03,5.142922e+02
2.419263e+03,5.037564e+02
2.422156e+03,5.095461e+02
2.425049e+03,4.974874e+02
2.427941e+03,4.937713e+02
2.430834e+03,4.955064e+02
2.433727e+03,4.862905e+02
2.436620e+03,4.901004e+02
2.439512e+03,4.963943e+02
2.442405e+03,4.948981e+02
2.445298e+03,4.829552e+02
2.448190e+03,4.929755e+02
2.451083e+03,4.866157e+02
2.453976e+03,4.777303e+02
2.456868e+03,4.833985e+02
2.459761e+03,4.839389e+02
2.462654e+03,4.891657e+02
2.465547e+03,4.713468e+02
2.468439e+03,4.791939e+02
2.471332e+03,4.614049e+02
2.474225e+03,4.726508e+02
2.477117e+03,4.672243e+02
2.480010e+03,4.792188e+02
2.482903e+03,4.709575e+02
2.485795e+03,4.646367e+02
2.488688e+03,4.652466e+02
2.491581e+03,4.622607e+02
2.494474e+03,4.584968e+02
2.497366e+03,4.654934e+02
2.500259e+03,4.733290e+02
2.503152e+03,4.678856e+02
2.506044e+03,4.609167e+02
2.508937e+03,4.690298e+02
2.511830e+03,4.628213e+02
2.514722e+03,4.666928e+02
2.517615e+03,4.662119e+02
2.520508e+03,4.659771e+02
2.523401e+03,4.616605e+02
2.526293e+03,4.530817e+02
2.529186e+03,4.585589e+02
2.532079e+03,4.488978e+02
2.534971e+03,4.665556e+02
2.537864e+03,4.429232e+02
2.540757e+03,4.590706e+02
2.543649e+03,4.353489e+02
2.546542e+03,4.575165e+02
2.549435e+03,4.487669e+02
2.552328e+03,4.559676e+02
2.555220e+03,4.534028e+02
2.558113e+03,4.531870e+02
2.561006e+03,4.474540e+02
2.563898e+03,4.503892e+02
2.566791e+03,4.442570e+02
2.569684e+03,4.402514e+02
2.572576e+03,4.553343e+02
2.575469e+03,4.433608e+02
2.578362e+03,4.344195e+02
2.581255e+03,4.404423e+02
2.584147e+03,4.233192e+02
2.587040e+03,4.224991e+02
2.589933e+03,4.312226e+02
2.592825e+03,4.382706e+02
2.595718e+03,4.372003e+02
2.598611e+03,4.249409e+02
2.601503e+03,4.293252e+02
2.604396e+03,4.261969e+02
2.607289e+03,4.414475e+02
2.610182e+03,4.206913e+02
2.613074e+03,4.272849e+02
2.615967e+03,4.366971e+02
2.618860e+03,4.228173e+02
2.621752e+03,4.268584e+02
2.624645e+03,4.242326e+02
2.627538e+03,4.157979e+02
2.630430e+03,4.186291e+02
2.633323e+03,4.192701e+02
2.636216e+03,4.201348e+02
2.639109e+03,4.278452e+02
2.642001e+03,4.226455e+02
2.644894e+03,4.166011e+02
2.647787e+03,4.152268e+02
2.650679e+03,4.187451e+02
2.653572e+03,4.236417e+02
2.656465e+03,4.148669e+02
2.659357e+03,4.111609e+02
2.662250e+03,4.148660e+02
2.665143e+03,4.128447e+02
2.668036e+03,4.286254e+02
2.670928e+03,4.061410e+02
2.673821e+03,4.024956e+02
2.676714e+03,4.158669e+02
2.679606e+03,4.032896e+02
2.682499e+03,4.150345e+02
2.685392e+03,3.953007e+02
2.688284e+03,4.099012e+02
2.691177e+03,4.071107e+02
2.694070e+03,3.992039e+02
2.696963e+03,3.960648e+02
2.699855e+03,3.926322e+02
2.702748e+03,4.009590e+02
2.705641e+03,3.982289e+02
2.708533e+03,4.067718e+02
2.711426e+03,3.948668e+02
2.714319e+03,3.926314e+02
2.717211e+03,3.941373e+02
2.720104e+03,3.958999e+02
2.722997e+03,3.939337e+02
2.725890e+03,3.857368e+02
2.728782e+03,3.937750e+02
2.731675e+03,3.824600e+02
2.734568e+03,3.854490e+02
2.737460e+03,3.886114e+02
2.740353e+03,3.925271e+02
2.743246e+03,3.684258e+02
2.746138e+03,3.850025e+02
2.749031e+03,3.960972e+02
2.751924e+03,3.814540e+02
2.754817e+03,3.868639e+02
2.757709e+03,3.852347e+02
2.760602e+03,3.761242e+02
2.763495e+03,3.884483e+02
2.766387e+03,3.861206e+02
2.769280e+03,3.852090e+02
2.772173e+03,3.779317e+02
2.775065e+03,3.781425e+02
2.777958e+03,3.904220e+02
2.780851e+03,3.719623e+02
2.783744e+03,3.723481e+02
2.786636e+03,3.721166e+02
2.789529e+03,3.691914e+02
2.792422e+03,3.798268e+02
2.795314e+03,3.638363e+02
2.798207e+03,3.663459e+02
2.801100e+03,3.763657e+02
2.803992e+03,3.700804e+02
2.806885e+03,3.767563e+02
2.809778e+03,3.643133e+02
2.812671e+03,3.644723e+02
2.815563e+03,3.620122e+02
2.818456e+03,3.528788e+02
2.821349e+03,3.587266e+02
2.824241e+03,3.565677e+02
2.827134e+03,3.612494e+02
2.830027e+03,3.617463e+02
2.832919e+03,3.664569e+02
2.835812e+03,3.708238e+02
2.838705e+03,3.586993e+02
2.841598e+03,3.759808e+02
2.844490e+03,3.743943e+02
2.847383e+03,3.803637e+02
2.850276e+03,3.737527e+02
2.853168e+03,3.741889e+02
2.856061e+03,3.943442e+02
2.858954e+03,3.598546e+02
2.861846e+03,3.740055e+02
2.864739e+03,3.732467e+02
2.867632e+03,4.021147e+02
2.870525e+03,3.815097e+02
2.873417e+03,3.848310e+02
2.876310e+03,3.845670e+02
2.879203e+03,3.908158e+02
2.882095e+03,3.883340e+02
2.884988e+03,3.782393e+02
2.887881e+03,3.893874e+02
2.890773e+03,3.934367e+02
2.893666e+03,4.026452e+02
2.896559e+03,3.942979e+02
2.899452e+03,3.964286e+02
2.902344e+03,3.999761e+02
2.905237e+03,3.806619e+02
2.908130e+03,3.724678e+02
2.911022e+03,3.886888e+02
2.913915e+03,3.737240e+02
2.916808e+03,3.698396e+02
2.919700e+03,3.746802e+02
2.922593e+03,3.632834e+02
2.925486e+03,3.737162e+02
2.928379e+03,3.544917e+02
2.931271e+03,3.659263e+02
2.934164e+03,3.623763e+02
2.937057e+03,3.561039e+02
2.939949e+03,3.578845e+02
2.942842e+03,3.468305e+02
2.945735e+03,3.525477e+02
2.948627e+03,3.629311e+02
2.951520e+03,3.469937e+02
2.954413e+03,3.527928e+02
2.957306e+03,3.916860e+02
2.960198e+03,3.623327e+02
2.963091e+03,3.527700e+02
2.965984e+03,3.477554e+02
2.968876e+03,3.473072e+02
2.971769e+03,3.393084e+02
2.974662e+03,3.339830e+02
2.977554e+03,3.300967e+02
2.980447e+03,3.368976e+02
2.983340e+03,3.445680e+02
2.986233e+03,3.297584e+02
2.989125e+03,3.211147e+02
2.992018e+03,3.320703e+02
2.994911e+03,3.164561e+02
2.997803e+03,3.299095e+02
3.000696e+03,3.398289e+02
3.003589e+03,3.265232e+02
3.006481e+03,3.283288e+02
3.009374e+03,3.250940e+02
3.012267e+03,3.223344e+02
3.015160e+03,3.149284e+02
3.018052e+03,3.269211e+02
3.020945e+03,3.068462e+02
3.023838e+03,2.960258e+02
3.026730e+03,2.967127e+02
3.029623e+03,2.980938e+02
3.032516e+03,3.142671e+02
3.035408e+03,3.164724e+02
3.038301e+03,3.127517e+02
3.041194e+03,3.008969e+02
3.044087e+03,3.161322e+02
3.046979e+03,3.091351e+02
3.049872e+03,3.025117e+02
3.052765e+03,3.143466e+02
3.055657e+03,3.127331e+02
3.058550e+03,3.139581e+02
3.061443e+03,2.990792e+02
3.064335e+03,2.984650e+02
3.067228e+03,3.081905e+02
3.070121e+03,3.010291e+02
3.073014e+03,3.044071e+02
3.075906e+03,3.163892e+02
3.078799e+03,3.176295e+02
3.081692e+03,3.060969e+02
3.084584e+03,3.150558e+02
3.087477e+03,3.003246e+02
3.090370e+03,3.061003e+02
3.093262e+03,2.911803e+02
3.096155e+03,2.975343e+02
3.099048e+03,3.153114e+02
3.101941e+03,2.816439e+02
3.104833e+03,2.997513e+02
3.107726e+03,3.034628e+02
3.110619e+03,3.145289e+02
3.113511e+03,2.797521e+02
3.116404e+03,3.122263e+02
3.119297e+03,3.146705e+02
3.122189e+03,3.086920e+02
3.125082e+03,3.127471e+02
3.127975e+03,2.999284e+02
3.130868e+03,3.215785e+02
3.133760e+03,3.288937e+02
3.136653e+03,2.837303e+02
3.139546e+03,3.022216e+02
3.142438e+03,3.019581e+02
3.145331e+03,2.725471e+02
3.148224e+03,3.176721e+02
3.151116e+03,3.083287e+02
3.154009e+03,3.158456e+02
3.156902e+03,3.076254e+02
3.159795e+03,2.790309e+02
3.162687e+03,3.213366e+02
3.165580e+03,3.195288e+02
3.168473e+03,3.364742e+02
3.171365e+03,3.114539e+02
3.174258e+03,3.467751e+02
3.177151e+03,3.142582e+02
3.180043e+03,3.005125e+02
3.182936e+03,3.356606e+02
3.185829e+03,2.898015e+02
3.188722e+03,3.032731e+02
3.191614e+03,3.328405e+02
3.194507e+03,3.355587e+02
3.197400e+03,2.891013e+02
3.200292e+03,3.216768e+02
3.203185e+03,0.000000e+00
3.206078e+03,0.000000e+00
3.208970e+03,0.000000e+00
3.211863e+03,0.000000e+00
3.214756e+03,0.000000e+00
3.217649e+03,0.000000e+00
3.220541e+03,0.000000e+00
3.223434e+03,0.000000e+00
3.226327e+03,0.000000e+00
3.229219e+03,0.000000e+00
3.232112e+03,0.000000e+00
3.235005e+03,0.000000e+00
3.237897e+03,0.000000e+00
3.240790e+03,0.000000e+00
3.243683e+03,0.000000e+00
3.246576e+03,0.000000e+00
3.249468e+03,0.000000e+00
3.252361e+03,0.000000e+00
3.255254e+03,0.000000e+00
3.258146e+03,0.000000e+00
3.261039e+03,0.000000e+00
3.263932e+03,0.000000e+00
3.266824e+03,0.000000e+00
3.269717e+03,0.000000e+00
3.272610e+03,0.000000e+00
3.275503e+03,0.000000e+00
3.278395e+03,0.000000e+00
3.281288e+03,0.000000e+00
3.284181e+03,0.000000e+00
3.287073e+03,0.000000e+00
3.289966e+03,0.000000e+00
3.292859e+03,0.000000e+00
3.295751e+03,0.000000e+00
3.298644e+03,0.000000e+00
3.301537e+03,0.000000e+00
3.304430e+03,0.000000e+00
3.307322e+03,0.000000e+00
3.310215e+03,0.000000e+00
3.313108e+03,0.000000e+00
3.316000e+03,0.000000e+00
3.318893e+03,0.000000e+00
3.321786e+03,0.000000e+00
3.324678e+03,0.000000e+00
3.327571e+03,0.000000e+00
3.330464e+03,0.000000e+00
3.333357e+03,0.000000e+00
3.336249e+03,0.000000e+00
3.339142e+03,0.000000e+00
3.342035e+03,0.000000e+00
3.344927e+03,0.000000e+00
3.347820e+03,0.000000e+00
3.350713e+03,0.000000e+00
3.353605e+03,0.000000e+00
3.356498e+03,0.000000e+00
3.359391e+03,0.000000e+00
3.362284e+03,0.000000e+00
3.365176e+03,0.000000e+00
3.368069e+03,0.000000e+00
3.370962e+03,0.000000e+00
3.373854e+03,0.000000e+00
3.376747e+03,0.000000e+00
3.379640e+03,0.000000e+00
3.382532e+03,0.000000e+00
3.385425e+03,0.000000e+00
3.388318e+03,0.000000e+00
3.391211e+03,0.000000e+00
3.394103e+03,0.000000e+00
3.396996e+03,0.000000e+00
3.399889e+03,0.000000e+00
3.402781e+03,0.000000e+00
3.405674e+03,0.000000e+00
3.408567e+03,0.000000e+00
3.411459e+03,0.000000e+00
3.414352e+03,0.000000e+00
3.417245e+03,0.000000e+00
3.420138e+03,0.000000e+00
3.423030e+03,0.000000e+00
3.425923e+03,0.000000e+00
3.428816e+03,0.000000e+00
3.431708e+03,0.000000e+00
3.434601e+03,0.000000e+00
3.437494e+03,0.000000e+00
3.440386e+03,0.000000e+00
3.443279e+03,0.000000e+00
3.446172e+03,0.000000e+00
3.449065e+03,0.000000e+00
3.451957e+03,0.000000e+00
3.454850e+03,0.000000e+00
3.457743e+03,0.000000e+00
3.460635e+03,0.000000e+00
3.463528e+03,0.000000e+00
3.466421e+03,0.000000e+00
3.469313e+03,0.000000e+00
3.472206e+03,0.000000e+00
3.475099e+03,0.000000e+00
3.477992e+03,0.000000e+00
3.480884e+03,0.000000e+00
3.483777e+03,0.000000e+00
3.486670e+03,0.000000e+00
3.489563e+03,0.000000e+00
3.492455e+03,0.000000e+00
3.495348e+03,0.000000e+00
3.498240e+03,0.000000e+00
3.500169e+03,0.000000e+00