File: RAMAN_data/14032024_r1/black fibre6.CSV
9.931763e+01,0.000000e+00
1.022103e+02,0.000000e+00
1.051030e+02,0.000000e+00
1.079957e+02,0.000000e+00
1.108884e+02,0.000000e+00
1.137811e+02,0.000000e+00
1.166738e+02,0.000000e+00
1.195665e+02,0.000000e+00
1.224592e+02,0.000000e+00
1.253519e+02,0.000000e+00
1.282446e+02,0.000000e+00
1.311373e+02,0.000000e+00
1.340300e+02,0.000000e+00
1.369227e+02,0.000000e+00
1.398154e+02,0.000000e+00
1.427081e+02,0.000000e+00
1.456008e+02,0.000000e+00
1.484935e+02,0.000000e+00
1.513862e+02,0.000000e+00
1.542789e+02,0.000000e+00
1.571716e+02,0.000000e+00
1.600643e+02,0.000000e+00
1.629570e+02,0.000000e+00
1.658497e+02,0.000000e+00
1.687424e+02,0.000000e+00
1.716351e+02,0.000000e+00
1.745278e+02,0.000000e+00
1.774205e+02,0.000000e+00
1.803132e+02,0.000000e+00
1.832059e+02,0.000000e+00
1.860986e+02,0.000000e+00
1.889913e+02,0.000000e+00
1.918840e+02,0.000000e+00
1.947767e+02,0.000000e+00
1.976694e+02,0.000000e+00
2.005621e+02,4.012671e+03
2.034548e+02,4.007777e+03
2.063475e+02,4.016493e+03
2.092402e+02,4.009843e+03
2.121329e+02,4.001103e+03
2.150256e+02,4.012662e+03
2.179183e+02,4.023766e+03
2.208110e+02,4.047310e+03
2.237037e+02,4.037855e+03
2.265964e+02,4.035657e+03
2.294892e+02,4.037358e+03
2.323819e+02,4.033473e+03
2.352746e+02,4.049188e+03
2.381673e+02,4.058954e+03
2.410600e+02,4.045174e+03
2.439527e+02,4.033387e+03
2.468454e+02,4.057611e+03
2.497381e+02,4.074779e+03
2.526308e+02,4.066875e+03
2.555235e+02,4.068969e+03
2.584161e+02,4.048933e+03
2.613088e+02,4.078327e+03
2.642015e+02,4.093520e+03
2.670942e+02,4.081491e+03
2.699869e+02,4.086791e+03
2.728796e+02,4.097463e+03
2.757723e+02,4.102362e+03
2.786650e+02,4.114795e+03
2.815577e+02,4.128795e+03
2.844504e+02,4.134352e+03
2.873431e+02,4.150428e+03
2.902358e+02,4.119765e+03
2.931285e+02,4.128187e+03
2.960212e+02,4.142275e+03
2.989139e+02,4.142813e+03
3.018066e+02,4.144120e+03
3.046993e+02,4.136795e+03
3.075920e+02,4.131641e+03
3.104847e+02,4.135235e+03
3.133774e+02,4.127916e+03
3.162701e+02,4.124651e+03
3.191628e+02,4.121558e+03
3.220555e+02,4.134804e+03
3.249482e+02,4.145939e+03
3.278409e+02,4.147157e+03
3.307336e+02,4.145867e+03
3.336263e+02,4.140488e+03
3.365190e+02,4.114361e+03
3.394117e+02,4.136796e+03
3.423044e+02,4.148503e+03
3.451971e+02,4.160511e+03
3.480898e+02,4.159711e+03
3.509825e+02,4.144162e+03
3.538752e+02,4.160151e+03
3.567680e+02,4.159587e+03
3.596607e+02,4.185094e+03
3.625534e+02,4.165178e+03
3.654461e+02,4.162610e+03
3.683388e+02,4.188950e+03
3.712315e+02,4.186788e+03
3.741242e+02,4.191463e+03
3.770169e+02,4.202145e+03
3.799096e+02,4.179385e+03
3.828023e+02,4.166595e+03
3.856950e+02,4.155326e+03
3.885877e+02,4.167689e+03
3.914804e+02,4.167040e+03
3.943731e+02,4.179243e+03
3.972658e+02,4.162991e+03
4.001585e+02,4.180923e+03
4.030512e+02,4.182526e+03
4.059439e+02,4.197922e+03
4.088366e+02,4.206018e+03
4.117293e+02,4.198350e+03
4.146220e+02,4.210196e+03
4.175147e+02,4.224922e+03
4.204074e+02,4.203198e+03
4.233001e+02,4.188143e+03
4.261928e+02,4.204696e+03
4.290855e+02,4.177291e+03
4.319782e+02,4.187786e+03
4.348709e+02,4.194569e+03
4.377636e+02,4.179566e+03
4.406563e+02,4.177684e+03
4.435490e+02,4.177569e+03
4.464417e+02,4.163370e+03
4.493344e+02,4.169423e+03
4.522271e+02,4.162170e+03
4.551198e+02,4.174673e+03
4.580125e+02,4.167409e+03
4.609052e+02,4.166408e+03
4.637979e+02,4.152336e+03
4.666906e+02,4.145209e+03
4.695833e+02,4.105878e+03
4.724760e+02,4.127636e+03
4.753687e+02,4.119545e+03
4.782614e+02,4.108879e+03
4.811541e+02,4.107974e+03
4.840468e+02,4.101106e+03
4.869395e+02,4.097118e+03
4.898322e+02,4.093197e+03
4.927249e+02,4.094285e+03
4.956176e+02,4.094307e+03
4.985103e+02,4.100936e+03
5.014030e+02,4.104222e+03
5.042957e+02,4.095212e+03
5.071884e+02,4.078015e+03
5.100811e+02,4.070688e+03
5.129738e+02,4.090795e+03
5.158665e+02,4.086792e+03
5.187592e+02,4.126611e+03
5.216519e+02,4.083656e+03
5.245446e+02,4.093929e+03
5.274373e+02,4.101595e+03
5.303300e+02,4.095461e+03
5.332227e+02,4.080390e+03
5.361154e+02,4.069912e+03
5.390081e+02,4.088635e+03
5.419008e+02,4.074947e+03
5.447935e+02,4.066295e+03
5.476862e+02,4.067130e+03
5.505789e+02,4.051892e+03
5.534716e+02,4.050401e+03
5.563643e+02,4.047341e+03
5.592570e+02,4.050173e+03
5.621497e+02,4.042961e+03
5.650424e+02,4.026856e+03
5.679351e+02,4.030703e+03
5.708278e+02,4.018406e+03
5.737205e+02,4.032961e+03
5.766132e+02,4.038010e+03
5.795059e+02,4.033857e+03
5.823986e+02,4.023365e+03
5.852913e+02,4.033753e+03
5.881840e+02,4.010056e+03
5.910767e+02,4.013148e+03
5.939694e+02,4.007961e+03
5.968621e+02,4.014390e+03
5.997548e+02,3.994973e+03
6.026475e+02,3.986392e+03
6.055402e+02,4.025781e+03
6.084329e+02,4.010667e+03
6.113256e+02,4.006242e+03
6.142183e+02,4.006854e+03
6.171110e+02,4.004899e+03
6.200037e+02,3.986596e+03
6.228964e+02,4.006994e+03
6.257891e+02,4.005438e+03
6.286818e+02,3.980399e+03
6.315745e+02,3.970838e+03
6.344672e+02,3.973388e+03
6.373599e+02,3.955124e+03
6.402526e+02,3.943959e+03
6.431453e+02,3.912801e+03
6.460380e+02,3.920428e+03
6.489307e+02,3.898265e+03
6.518234e+02,3.906906e+03
6.547161e+02,3.900932e+03
6.576088e+02,3.869921e+03
6.605015e+02,3.860559e+03
6.633942e+02,3.869976e+03
6.662869e+02,3.844443e+03
6.691796e+02,3.839844e+03
6.720723e+02,3.831489e+03
6.749650e+02,3.834319e+03
6.778577e+02,3.825858e+03
6.807504e+02,3.819664e+03
6.836431e+02,3.824470e+03
6.865358e+02,3.790799e+03
6.894285e+02,3.796039e+03
6.923212e+02,3.794801e+03
6.952139e+02,3.808884e+03
6.981066e+02,3.800468e+03
7.009993e+02,3.810138e+03
7.038920e+02,3.794184e+03
7.067847e+02,3.784705e+03
7.096774e+02,3.793056e+03
7.125701e+02,3.808797e+03
7.154628e+02,3.796876e+03
7.183555e+02,3.776416e+03
7.212482e+02,3.776431e+03
7.241409e+02,3.777702e+03
7.270336e+02,3.771288e+03
7.299263e+02,3.770719e+03
7.328190e+02,3.787573e+03
7.357117e+02,3.789799e+03
7.386044e+02,3.770179e+03
7.414971e+02,3.757083e+03
7.443898e+02,3.754885e+03
7.472825e+02,3.723582e+03
7.501752e+02,3.710708e+03
7.530679e+02,3.703708e+03
7.559606e+02,3.671471e+03
7.588533e+02,3.681678e+03
7.617460e+02,3.671511e+03
7.646387e+02,3.673917e+03
7.675314e+02,3.670832e+03
7.704241e+02,3.666638e+03
7.733168e+02,3.659099e+03
7.762095e+02,3.687016e+03
7.791022e+02,3.658083e+03
7.819949e+02,3.648736e+03
7.848876e+02,3.652205e+03
7.877803e+02,3.660793e+03
7.906730e+02,3.661522e+03
7.935657e+02,3.651526e+03
7.964584e+02,3.650721e+03
7.993511e+02,3.641721e+03
8.022438e+02,3.629038e+03
8.051365e+02,3.622214e+03
8.080292e+02,3.609323e+03
8.109219e+02,3.620250e+03
8.138146e+02,3.587641e+03
8.167073e+02,3.601224e+03
8.196000e+02,3.588466e+03
8.224927e+02,3.577013e+03
8.253854e+02,3.559001e+03
8.282781e+02,3.549050e+03
8.311708e+02,3.515542e+03
8.340635e+02,3.508820e+03
8.369562e+02,3.508954e+03
8.398489e+02,3.491923e+03
8.427416e+02,3.496301e+03
8.456343e+02,3.490647e+03
8.485270e+02,3.477577e+03
8.514197e+02,3.466679e+03
8.543124e+02,3.457070e+03
8.572051e+02,3.454946e+03
8.600978e+02,3.460331e+03
8.629905e+02,3.447741e+03
8.658832e+02,3.409592e+03
8.687759e+02,3.418773e+03
8.716686e+02,3.415249e+03
8.745613e+02,3.417243e+03
8.774540e+02,3.404049e+03
8.803467e+02,3.411286e+03
8.832394e+02,3.419386e+03
8.861321e+02,3.419568e+03
8.890248e+02,3.410537e+03
8.919175e+02,3.382902e+03
8.948102e+02,3.400686e+03
8.977029e+02,3.380391e+03
9.005956e+02,3.407044e+03
9.034883e+02,3.367529e+03
9.063810e+02,3.370003e+03
9.092737e+02,3.348630e+03
9.121664e+02,3.351566e+03
9.150591e+02,3.329481e+03
9.179518e+02,3.307258e+03
9.208445e+02,3.290164e+03
9.237372e+02,3.293823e+03
9.266299e+02,3.293156e+03
9.295226e+02,3.295806e+03
9.324153e+02,3.302019e+03
9.353080e+02,3.286498e+03
9.382007e+02,3.262604e+03
9.410934e+02,3.267511e+03
9.439861e+02,3.279660e+03
9.468788e+02,3.283585e+03
9.497715e+02,3.273622e+03
9.526642e+02,3.266427e+03
9.555569e+02,3.270468e+03
9.584496e+02,3.266771e+03
9.613423e+02,3.258789e+03
9.642350e+02,3.249699e+03
9.671277e+02,3.250363e+03
9.700204e+02,3.210532e+03
9.729131e+02,3.211941e+03
9.758058e+02,3.242357e+03
9.786985e+02,3.232521e+03
9.815912e+02,3.228456e+03
9.844839e+02,3.186401e+03
9.873766e+02,3.209227e+03
9.902693e+02,3.201450e+03
9.931620e+02,3.197422e+03
9.960547e+02,3.173062e+03
9.989474e+02,3.183198e+03
1.001840e+03,3.164074e+03
1.004733e+03,3.143277e+03
1.007626e+03,3.134502e+03
1.010518e+03,3.125895e+03
1.013411e+03,3.098779e+03
1.016304e+03,3.095643e+03
1.019196e+03,3.080543e+03
1.022089e+03,3.087240e+03
1.024982e+03,3.075831e+03
1.027875e+03,3.068727e+03
1.030767e+03,3.046079e+03
1.033660e+03,3.050310e+03
1.036552e+03,3.047464e+03
1.039445e+03,3.040364e+03
1.042338e+03,3.041719e+03
1.045231e+03,3.042559e+03
1.048123e+03,3.037281e+03
1.051016e+03,3.034214e+03
1.053909e+03,3.060868e+03
1.056802e+03,3.052099e+03
1.059694e+03,3.059214e+03
1.062587e+03,3.049660e+03
1.065479e+03,3.064660e+03
1.068372e+03,3.074123e+03
1.071265e+03,3.097409e+03
1.074158e+03,3.104963e+03
1.077050e+03,3.055912e+03
1.079943e+03,3.057894e+03
1.082836e+03,3.032102e+03
1.085729e+03,3.029761e+03
1.088621e+03,3.037739e+03
1.091514e+03,3.019096e+03
1.094406e+03,3.023543e+03
1.097299e+03,3.007027e+03
1.100192e+03,2.999440e+03
1.103085e+03,2.986477e+03
1.105977e+03,2.990197e+03
1.108870e+03,2.972208e+03
1.111763e+03,2.989471e+03
1.114656e+03,2.978374e+03
1.117548e+03,2.982397e+03
1.120441e+03,2.979686e+03
1.123334e+03,3.003753e+03
1.126226e+03,2.976240e+03
1.129119e+03,2.973053e+03
1.132012e+03,2.999271e+03
1.134904e+03,2.992698e+03
1.137797e+03,2.994647e+03
1.140690e+03,3.005910e+03
1.143583e+03,3.001132e+03
1.146475e+03,3.005784e+03
1.149368e+03,3.029008e+03
1.152261e+03,3.047505e+03
1.155153e+03,3.029938e+03
1.158046e+03,3.039803e+03
1.160939e+03,3.048816e+03
1.163831e+03,3.046208e+03
1.166724e+03,3.041597e+03
1.169617e+03,3.000338e+03
1.172510e+03,2.971923e+03
1.175402e+03,2.949028e+03
1.178295e+03,2.906808e+03
1.181188e+03,2.892904e+03
1.184080e+03,2.865398e+03
1.186973e+03,2.858971e+03
1.189866e+03,2.853161e+03
1.192758e+03,2.857890e+03
1.195651e+03,2.860366e+03
1.198544e+03,2.858377e+03
1.201437e+03,2.834038e+03
1.204329e+03,2.829806e+03
1.207222e+03,2.827853e+03
1.210115e+03,2.824131e+03
1.213007e+03,2.795159e+03
1.215900e+03,2.783057e+03
1.218793e+03,2.770179e+03
1.221685e+03,2.776790e+03
1.224578e+03,2.779907e+03
1.227471e+03,2.777390e+03
1.230364e+03,2.758875e+03
1.233256e+03,2.758241e+03
1.236149e+03,2.743585e+03
1.239042e+03,2.749931e+03
1.241934e+03,2.746061e+03
1.244827e+03,2.723708e+03
1.247720e+03,2.727448e+03
1.250612e+03,2.722074e+03
1.253505e+03,2.714570e+03
1.256398e+03,2.712803e+03
1.259291e+03,2.704657e+03
1.262183e+03,2.699016e+03
1.265076e+03,2.677006e+03
1.267969e+03,2.696222e+03
1.270861e+03,2.692347e+03
1.273754e+03,2.707826e+03
1.276647e+03,2.701932e+03
1.279539e+03,2.695599e+03
1.282432e+03,2.688520e+03
1.285325e+03,2.695283e+03
1.288218e+03,2.700336e+03
1.291110e+03,2.716553e+03
1.294003e+03,2.717215e+03
1.296896e+03,2.704823e+03
1.299788e+03,2.717606e+03
1.302681e+03,2.733448e+03
1.305574e+03,2.759567e+03
1.308466e+03,2.778809e+03
1.311359e+03,2.772702e+03
1.314252e+03,2.798156e+03
1.317145e+03,2.809025e+03
1.320037e+03,2.839561e+03
1.322930e+03,2.828938e+03
1.325823e+03,2.801500e+03
1.328715e+03,2.798950e+03
1.331608e+03,2.798745e+03
1.334501e+03,2.803887e+03
1.337393e+03,2.790696e+03
1.340286e+03,2.773602e+03
1.343179e+03,2.721008e+03
1.346072e+03,2.713976e+03
1.348964e+03,2.686135e+03
1.351857e+03,2.668705e+03
1.354750e+03,2.633257e+03
1.357642e+03,2.640679e+03
1.360535e+03,2.639753e+03
1.363428e+03,2.617275e+03
1.366320e+03,2.631390e+03
1.369213e+03,2.626383e+03
1.372106e+03,2.615232e+03
1.374999e+03,2.570748e+03
1.377891e+03,2.577222e+03
1.380784e+03,2.572266e+03
1.383677e+03,2.596469e+03
1.386569e+03,2.566955e+03
1.389462e+03,2.574538e+03
1.392355e+03,2.568378e+03
1.395247e+03,2.568174e+03
1.398140e+03,2.558429e+03
1.401033e+03,2.549826e+03
1.403926e+03,2.540804e+03
1.406818e+03,2.521958e+03
1.409711e+03,2.526252e+03
1.412604e+03,2.522836e+03
1.415496e+03,2.513101e+03
1.418389e+03,2.501261e+03
1.421282e+03,2.497210e+03
1.424174e+03,2.496597e+03
1.427067e+03,2.486651e+03
1.429960e+03,2.481718e+03
1.432853e+03,2.483520e+03
1.435745e+03,2.465461e+03
1.438638e+03,2.469698e+03
1.441531e+03,2.459929e+03
1.444423e+03,2.456882e+03
1.447316e+03,2.441452e+03
1.450209e+03,2.460234e+03
1.453101e+03,2.442153e+03
1.455994e+03,2.433053e+03
1.458887e+03,2.442661e+03
1.461780e+03,2.419815e+03
1.464672e+03,2.419004e+03
1.467565e+03,2.420591e+03
1.470458e+03,2.421903e+03
1.473350e+03,2.417796e+03
1.476243e+03,2.407460e+03
1.479136e+03,2.406313e+03
1.482028e+03,2.412012e+03
1.484921e+03,2.404758e+03
1.487814e+03,2.412656e+03
1.490707e+03,2.403097e+03
1.493599e+03,2.404030e+03
1.496492e+03,2.391172e+03
1.499385e+03,2.403469e+03
1.502277e+03,2.392648e+03
1.505170e+03,2.402297e+03
1.508063e+03,2.385059e+03
1.510955e+03,2.390852e+03
1.513848e+03,2.372659e+03
1.516741e+03,2.393868e+03
1.519634e+03,2.384190e+03
1.522526e+03,2.397345e+03
1.525419e+03,2.381433e+03
1.528312e+03,2.374024e+03
1.531204e+03,2.373069e+03
1.534097e+03,2.353527e+03
1.536990e+03,2.347552e+03
1.539882e+03,2.323401e+03
1.542775e+03,2.334734e+03
1.545668e+03,2.330970e+03
1.548561e+03,2.324259e+03
1.551453e+03,2.317351e+03
1.554346e+03,2.323535e+03
1.557239e+03,2.313757e+03
1.560131e+03,2.324126e+03
1.563024e+03,2.332673e+03
1.565917e+03,2.317966e+03
1.568809e+03,2.322605e+03
1.571702e+03,2.331831e+03
1.574595e+03,2.346168e+03
1.577488e+03,2.346277e+03
1.580380e+03,2.357404e+03
1.583273e+03,2.357333e+03
1.586166e+03,2.313359e+03
1.589058e+03,2.307843e+03
1.591951e+03,2.288284e+03
1.594844e+03,2.301505e+03
1.597736e+03,2.310780e+03
1.600629e+03,2.290031e+03
1.603522e+03,2.306624e+03
1.606415e+03,2.287542e+03
1.609307e+03,2.307485e+03
1.612200e+03,2.285802e+03
1.615093e+03,2.269270e+03
1.617985e+03,2.246759e+03
1.620878e+03,2.226909e+03
1.623771e+03,2.225610e+03
1.626663e+03,2.207053e+03
1.629556e+03,2.207642e+03
1.632449e+03,2.193218e+03
1.635342e+03,2.176669e+03
1.638234e+03,2.169705e+03
1.641127e+03,2.176996e+03
1.644020e+03,2.170903e+03
1.646912e+03,2.178485e+03
1.649805e+03,2.159886e+03
1.652698e+03,2.194872e+03
1.655590e+03,2.170749e+03
1.658483e+03,2.169351e+03
1.661376e+03,2.180860e+03
1.664269e+03,2.161150e+03
1.667161e+03,2.178933e+03
1.670054e+03,2.167704e+03
1.672947e+03,2.140888e+03
1.675839e+03,2.158305e+03
1.678732e+03,2.127237e+03
1.681625e+03,2.134665e+03
1.684517e+03,2.140978e+03
1.687410e+03,2.133556e+03
1.690303e+03,2.124236e+03
1.693196e+03,2.129126e+03
1.696088e+03,2.126534e+03
1.698981e+03,2.147877e+03
1.701874e+03,2.119018e+03
1.704766e+03,2.116126e+03
1.707659e+03,2.119476e+03
1.710552e+03,2.093580e+03
1.713444e+03,2.083185e+03
1.716337e+03,2.070462e+03
1.719230e+03,2.080064e+03
1.722123e+03,2.082954e+03
1.725015e+03,2.069112e+03
1.727908e+03,2.054642e+03
1.730801e+03,2.040569e+03
1.733693e+03,2.050156e+03
1.736586e+03,2.056319e+03
1.739479e+03,2.029911e+03
1.742371e+03,2.034657e+03
1.745264e+03,1.993853e+03
1.748157e+03,2.006089e+03
1.751050e+03,1.988431e+03
1.753942e+03,2.011199e+03
1.756835e+03,2.007742e+03
1.759728e+03,1.995554e+03
1.762620e+03,1.992217e+03
1.765513e+03,2.005010e+03
1.768406e+03,2.010145e+03
1.771298e+03,1.993620e+03
1.774191e+03,2.002808e+03
1.777084e+03,1.973455e+03
1.779977e+03,1.991673e+03
1.782869e+03,1.993653e+03
1.785762e+03,1.973714e+03
1.788655e+03,1.967995e+03
1.791547e+03,1.949801e+03
1.794440e+03,1.969957e+03
1.797333e+03,1.938535e+03
1.800225e+03,1.938797e+03
1.803118e+03,1.933876e+03
1.806011e+03,1.918227e+03
1.808904e+03,1.925801e+03
1.811796e+03,1.930026e+03
1.814689e+03,1.917760e+03
1.817582e+03,1.902750e+03
1.820474e+03,1.900055e+03
1.823367e+03,1.898943e+03
1.826260e+03,1.916019e+03
1.829152e+03,1.896644e+03
1.832045e+03,1.903268e+03
1.834938e+03,1.889100e+03
1.837831e+03,1.910006e+03
1.840723e+03,1.876488e+03
1.843616e+03,1.900946e+03
1.846509e+03,1.894993e+03
1.849401e+03,1.881527e+03
1.852294e+03,1.885773e+03
1.855187e+03,1.882882e+03
1.858079e+03,1.870401e+03
1.860972e+03,1.867552e+03
1.863865e+03,1.857569e+03
1.866758e+03,1.859508e+03
1.869650e+03,1.853371e+03
1.872543e+03,1.855198e+03
1.875436e+03,1.854865e+03
1.878328e+03,1.820753e+03
1.881221e+03,1.836007e+03
1.884114e+03,1.799193e+03
1.887006e+03,1.804503e+03
1.889899e+03,1.812518e+03
1.892792e+03,1.804983e+03
1.895685e+03,1.803686e+03
1.898577e+03,1.789983e+03
1.901470e+03,1.784328e+03
1.904363e+03,1.777512e+03
1.907255e+03,1.769661e+03
1.910148e+03,1.755445e+03
1.913041e+03,1.760513e+03
1.915933e+03,1.753843e+03
1.918826e+03,1.740575e+03
1.921719e+03,1.729210e+03
1.924612e+03,1.723210e+03
1.927504e+03,1.727140e+03
1.930397e+03,1.714591e+03
1.933290e+03,1.708477e+03
1.936182e+03,1.720638e+03
1.939075e+03,1.715837e+03
1.941968e+03,1.709802e+03
1.944860e+03,1.701877e+03
1.947753e+03,1.709602e+03
1.950646e+03,1.707055e+03
1.953539e+03,1.687580e+03
1.956431e+03,1.709120e+03
1.959324e+03,1.702532e+03
1.962217e+03,1.687930e+03
1.965109e+03,1.678909e+03
1.968002e+03,1.696998e+03
1.970895e+03,1.680557e+03
1.973787e+03,1.671391e+03
1.976680e+03,1.670692e+03
1.979573e+03,1.657179e+03
1.982466e+03,1.673267e+03
1.985358e+03,1.648337e+03
1.988251e+03,1.659228e+03
1.991144e+03,1.648793e+03
1.994036e+03,1.641749e+03
1.996929e+03,1.632899e+03
1.999822e+03,1.635247e+03
2.002714e+03,1.638161e+03
2.005607e+03,1.623470e+03
2.008500e+03,1.637265e+03
2.011393e+03,1.614496e+03
2.014285e+03,1.631978e+03
2.017178e+03,1.611353e+03
2.020071e+03,1.618655e+03
2.022963e+03,1.595292e+03
2.025856e+03,1.594648e+03
2.028749e+03,1.604319e+03
2.031641e+03,1.610068e+03
2.034534e+03,1.577008e+03
2.037427e+03,1.582457e+03
2.040320e+03,1.565144e+03
2.043212e+03,1.571185e+03
2.046105e+03,1.582743e+03
2.048998e+03,1.558355e+03
2.051890e+03,1.572916e+03
2.054783e+03,1.562562e+03
2.057676e+03,1.554814e+03
2.060568e+03,1.549933e+03
2.063461e+03,1.540766e+03
2.066354e+03,1.546758e+03
2.069247e+03,1.527676e+03
2.072139e+03,1.514033e+03
2.075032e+03,1.506521e+03
2.077925e+03,1.522405e+03
2.080817e+03,1.518541e+03
2.083710e+03,1.483613e+03
2.086603e+03,1.482738e+03
2.089496e+03,1.496783e+03
2.092388e+03,1.463210e+03
2.095281e+03,1.452720e+03
2.098174e+03,1.481245e+03
2.101066e+03,1.458658e+03
2.103959e+03,1.436712e+03
2.106852e+03,1.445352e+03
2.109744e+03,1.429620e+03
2.112637e+03,1.433824e+03
2.115530e+03,1.426272e+03
2.118422e+03,1.431431e+03
2.121315e+03,1.446535e+03
2.124208e+03,1.443927e+03
2.127101e+03,1.423050e+03
2.129993e+03,1.418247e+03
2.132886e+03,1.414085e+03
2.135779e+03,1.420081e+03
2.138671e+03,1.418029e+03
2.141564e+03,1.401352e+03
2.144457e+03,1.397410e+03
2.147350e+03,1.377628e+03
2.150242e+03,1.390625e+03
2.153135e+03,1.376118e+03
2.156028e+03,1.380991e+03
2.158920e+03,1.364892e+03
2.161813e+03,1.367356e+03
2.164706e+03,1.379566e+03
2.167598e+03,1.366799e+03
2.170491e+03,1.378473e+03
2.173384e+03,1.359429e+03
2.176277e+03,1.361861e+03
2.179169e+03,1.349011e+03
2.182062e+03,1.358690e+03
2.184955e+03,1.360012e+03
2.187847e+03,1.360942e+03
2.190740e+03,1.354504e+03
2.193633e+03,1.346445e+03
2.196525e+03,1.339904e+03
2.199418e+03,1.323534e+03
2.202311e+03,1.331089e+03
2.205204e+03,1.319849e+03
2.208096e+03,1.312886e+03
2.210989e+03,1.300070e+03
2.213882e+03,1.292311e+03
2.216774e+03,1.305168e+03
2.219667e+03,1.296070e+03
2.222560e+03,1.289602e+03
2.225452e+03,1.292008e+03
2.228345e+03,1.274902e+03
2.231238e+03,1.287216e+03
2.234131e+03,1.290121e+03
2.237023e+03,1.288072e+03
2.239916e+03,1.280462e+03
2.242809e+03,1.279038e+03
2.245701e+03,1.252779e+03
2.248594e+03,1.253290e+03
2.251487e+03,1.257939e+03
2.254379e+03,1.243648e+03
2.257272e+03,1.219640e+03
2.260165e+03,1.213563e+03
2.263058e+03,1.213691e+03
2.265950e+03,1.212129e+03
2.268843e+03,1.202288e+03
2.271736e+03,1.191738e+03
2.274628e+03,1.189165e+03
2.277521e+03,1.195968e+03
2.280414e+03,1.211320e+03
2.283306e+03,1.192591e+03
2.286199e+03,1.167506e+03
2.289092e+03,1.153712e+03
2.291985e+03,1.164743e+03
2.294877e+03,1.170327e+03
2.297770e+03,1.177232e+03
2.300663e+03,1.167399e+03
2.303555e+03,1.168418e+03
2.306448e+03,1.178395e+03
2.309341e+03,1.157883e+03
2.312233e+03,1.160643e+03
2.315126e+03,1.147694e+03
2.318019e+03,1.156854e+03
2.320912e+03,1.140657e+03
2.323804e+03,1.160272e+03
2.326697e+03,1.147418e+03
2.329590e+03,1.149982e+03
2.332482e+03,1.131742e+03
2.335375e+03,1.139636e+03
2.338268e+03,1.123418e+03
2.341160e+03,1.107690e+03
2.344053e+03,1.126647e+03
2.346946e+03,1.128811e+03
2.349839e+03,1.116265e+03
2.352731e+03,1.118614e+03
2.355624e+03,1.109093e+03
2.358517e+03,1.126804e+03
2.361409e+03,1.111998e+03
2.364302e+03,1.103330e+03
2.367195e+03,1.107191e+03
2.370087e+03,1.095379e+03
2.372980e+03,1.116839e+03
2.375873e+03,1.107462e+03
2.378766e+03,1.097771e+03
2.381658e+03,1.086723e+03
2.384551e+03,1.077068e+03
2.387444e+03,1.080506e+03
2.390336e+03,1.079226e+03
2.393229e+03,1.079477e+03
2.396122e+03,1.066535e+03
2.399014e+03,1.063949e+03
2.401907e+03,1.068692e+03
2.404800e+03,1.056553e+03
2.407693e+03,1.066588e+03
2.410585e+03,1.070179e+03
2.413478e+03,1.053520e+03
2.416371e+03,1.035352e+03
2.419263e+03,1.056073e+03
2.422156e+03,1.045755e+03
2.425049e+03,1.034272e+03
2.427941e+03,1.045026e+03
2.430834e+03,1.020843e+03
2.433727e+03,1.017341e+03
2.436620e+03,1.016883e+03
2.439512e+03,1.018046e+03
2.442405e+03,9.946234e+02
2.445298e+03,9.946475e+02
2.448190e+03,9.983934e+02
2.451083e+03,9.909835e+02
2.453976e+03,9.992789e+02
2.456868e+03,9.759481e+02
2.459761e+03,9.866149e+02
2.462654e+03,9.842688e+02
2.465547e+03,9.766640e+02
2.468439e+03,9.832428e+02
2.471332e+03,9.744517e+02
2.474225e+03,9.645045e+02
2.477117e+03,9.685798e+02
2.480010e+03,9.858954e+02
2.482903e+03,9.706741e+02
2.485795e+03,9.523415e+02
2.488688e+03,9.674017e+02
2.491581e+03,9.540736e+02
2.494474e+03,9.605295e+02
2.497366e+03,9.605438e+02
2.500259e+03,9.708951e+02
2.503152e+03,9.672067e+02
2.506044e+03,9.439078e+02
2.508937e+03,9.425303e+02
2.511830e+03,9.424807e+02
2.514722e+03,9.344271e+02
2.517615e+03,9.309581e+02
2.520508e+03,9.243093e+02
2.523401e+03,9.299794e+02
2.526293e+03,9.134658e+02
2.529186e+03,9.447679e+02
2.532079e+03,9.320236e+02
2.534971e+03,9.025836e+02
2.537864e+03,9.223129e+02
2.540757e+03,9.122391e+02
2.543649e+03,9.207133e+02
2.546542e+03,9.318718e+02
2.549435e+03,9.244019e+02
2.552328e+03,9.225908e+02
2.555220e+03,9.226904e+02
2.558113e+03,9.043240e+02
2.561006e+03,9.245182e+02
2.563898e+03,9.172513e+02
2.566791e+03,9.235624e+02
2.569684e+03,9.124609e+02
2.572576e+03,9.155637e+02
2.575469e+03,9.052620e+02
2.578362e+03,9.085666e+02
2.581255e+03,8.991635e+02
2.584147e+03,9.073563e+02
2.587040e+03,8.841249e+02
2.589933e+03,8.973110e+02
2.592825e+03,9.005223e+02
2.595718e+03,8.826354e+02
2.598611e+03,8.836345e+02
2.601503e+03,8.969153e+02
2.604396e+03,8.645731e+02
2.607289e+03,8.676423e+02
2.610182e+03,8.631485e+02
2.613074e+03,8.610563e+02
2.615967e+03,8.507175e+02
2.618860e+03,8.405733e+02
2.621752e+03,8.472177e+02
2.624645e+03,8.529122e+02
2.627538e+03,8.461509e+02
2.630430e+03,8.242258e+02
2.633323e+03,8.385037e+02
2.636216e+03,8.474865e+02
2.639109e+03,8.519918e+02
2.642001e+03,8.297000e+02
2.644894e+03,8.339679e+02
2.647787e+03,8.240641e+02
2.650679e+03,8.321469e+02
2.653572e+03,8.197453e+02
2.656465e+03,8.352789e+02
2.659357e+03,8.260091e+02
2.662250e+03,8.334841e+02
2.665143e+03,8.343100e+02
2.668036e+03,8.231166e+02
2.670928e+03,8.333478e+02
2.673821e+03,8.064199e+02
2.676714e+03,8.363483e+02
2.679606e+03,8.213801e+02
2.682499e+03,8.172718e+02
2.685392e+03,8.251807e+02
2.688284e+03,8.068187e+02
2.691177e+03,8.066465e+02
2.694070e+03,7.812188e+02
2.696963e+03,7.985060e+02
2.699855e+03,8.063029e+02
2.702748e+03,7.833235e+02
2.705641e+03,8.089094e+02
2.708533e+03,8.022321e+02
2.711426e+03,7.906455e+02
2.714319e+03,8.106533e+02
2.717211e+03,7.755121e+02
2.720104e+03,7.872202e+02
2.722997e+03,8.065825e+02
2.725890e+03,7.804647e+02
2.728782e+03,7.836977e+02
2.731675e+03,7.828127e+02
2.734568e+03,7.925190e+02
2.737460e+03,7.918818e+02
2.740353e+03,7.860761e+02
2.743246e+03,7.879683e+02
2.746138e+03,7.897911e+02
2.749031e+03,7.527125e+02
2.751924e+03,7.758590e+02
2.754817e+03,7.752194e+02
2.757709e+03,7.729448e+02
2.760602e+03,7.701900e+02
2.763495e+03,7.721699e+02
2.766387e+03,7.756849e+02
2.769280e+03,7.669201e+02
2.772173e+03,7.685662e+02
2.775065e+03,7.763405e+02
2.777958e+03,7.532759e+02
2.780851e+03,7.523857e+02
2.783744e+03,7.547562e+02
2.786636e+03,7.623784e+02
2.789529e+03,7.621641e+02
2.792422e+03,7.465081e+02
2.795314e+03,7.475645e+02
2.798207e+03,7.403400e+02
2.801100e+03,7.397723e+02
2.803992e+03,7.437901e+02
2.806885e+03,7.418325e+02
2.809778e+03,7.304417e+02
2.812671e+03,7.389426e+02
2.815563e+03,7.346224e+02
2.818456e+03,7.191467e+02
2.821349e+03,7.330070e+02
2.824241e+03,7.151833e+02
2.827134e+03,7.353852e+02
2.830027e+03,7.268984e+02
2.832919e+03,7.212925e+02
2.835812e+03,7.276027e+02
2.838705e+03,7.379536e+02
2.841598e+03,7.383895e+02
2.844490e+03,7.291572e+02
2.847383e+03,7.468011e+02
2.850276e+03,7.315643e+02
2.853168e+03,7.340734e+02
2.856061e+03,7.403320e+02
2.858954e+03,7.592930e+02
2.861846e+03,7.451623e+02
2.864739e+03,7.259859e+02
2.867632e+03,7.394019e+02
2.870525e+03,7.248710e+02
2.873417e+03,7.653116e+02
2.876310e+03,7.413585e+02
2.879203e+03,7.266915e+02
2.882095e+03,7.450561e+02
2.884988e+03,7.299217e+02
2.887881e+03,7.467135e+02
2.890773e+03,7.410856e+02
2.893666e+03,7.482049e+02
2.896559e+03,7.675400e+02
2.899452e+03,7.464455e+02
2.902344e+03,7.539757e+02
2.905237e+03,7.508417e+02
2.908130e+03,7.240275e+02
2.911022e+03,7.399650e+02
2.913915e+03,7.071842e+02
2.916808e+03,7.216225e+02
2.919700e+03,7.264601e+02
2.922593e+03,7.144008e+02
2.925486e+03,7.370612e+02
2.928379e+03,6.818044e+02
2.931271e+03,7.112523e+02
2.934164e+03,6.872452e+02
2.937057e+03,6.868040e+02
2.939949e+03,6.862809e+02
2.942842e+03,6.956957e+02
2.945735e+03,7.065418e+02
2.948627e+03,6.954636e+02
2.951520e+03,6.993396e+02
2.954413e+03,6.906996e+02
2.957306e+03,7.548944e+02
2.960198e+03,7.170453e+02
2.963091e+03,7.026996e+02
2.965984e+03,6.689907e+02
2.968876e+03,6.987887e+02
2.971769e+03,6.596224e+02
2.974662e+03,6.883956e+02
2.977554e+03,6.817728e+02
2.980447e+03,6.578458e+02
2.983340e+03,6.594078e+02
2.986233e+03,6.398376e+02
2.989125e+03,6.451102e+02
2.992018e+03,6.574947e+02
2.994911e+03,6.517418e+02
2.997803e+03,6.392310e+02
3.000696e+03,6.773010e+02
3.003589e+03,6.647783e+02
3.006481e+03,6.769090e+02
3.009374e+03,6.648278e+02
3.012267e+03,6.702978e+02
3.015160e+03,6.215013e+02
3.018052e+03,6.560775e+02
3.020945e+03,6.624221e+02
3.023838e+03,6.297376e+02
3.026730e+03,6.327956e+02
3.029623e+03,6.546458e+02
3.032516e+03,6.697768e+02
3.035408e+03,6.120652e+02
3.038301e+03,6.338267e+02
3.041194e+03,6.500187e+02
3.044087e+03,6.383274e+02
3.046979e+03,6.543441e+02
3.049872e+03,6.384399e+02
3.052765e+03,6.143064e+02
3.055657e+03,6.099899e+02
3.058550e+03,6.461809e+02
3.061443e+03,6.296722e+02
3.064335e+03,6.523122e+02
3.067228e+03,6.282036e+02
3.070121e+03,6.346104e+02
3.073014e+03,6.521789e+02
3.075906e+03,6.410764e+02
3.078799e+03,6.392448e+02
3.081692e+03,6.550381e+02
3.084584e+03,6.393590e+02
3.087477e+03,6.541580e+02
3.090370e+03,6.298823e+02
3.093262e+03,6.135499e+02
3.096155e+03,6.426074e+02
3.099048e+03,6.061641e+02
3.101941e+03,6.514738e+02
3.104833e+03,6.025081e+02
3.107726e+03,6.330429e+02
3.110619e+03,6.288583e+02
3.113511e+03,6.201705e+02
3.116404e+03,6.043683e+02
3.119297e+03,6.345344e+02
3.122189e+03,6.411419e+02
3.125082e+03,6.613743e+02
3.127975e+03,6.223144e+02
3.130868e+03,6.381251e+02
3.133760e+03,6.277536e+02
3.136653e+03,6.264696e+02
3.139546e+03,6.468698e+02
3.142438e+03,6.293626e+02
3.145331e+03,5.927543e+02
3.148224e+03,6.339503e+02
3.151116e+03,5.942827e+02
3.154009e+03,6.582346e+02
3.156902e+03,6.077584e+02
3.159795e+03,5.957618e+02
3.162687e+03,6.084281e+02
3.165580e+03,6.534667e+02
3.168473e+03,6.427582e+02
3.171365e+03,6.285377e+02
3.174258e+03,6.315846e+02
3.177151e+03,6.202116e+02
3.180043e+03,6.569232e+02
3.182936e+03,6.271700e+02
3.185829e+03,6.816708e+02
3.188722e+03,5.982467e+02
3.191614e+03,6.444177e+02
3.194507e+03,6.510908e+02
3.197400e+03,6.250959e+02
3.200292e+03,6.937839e+02
3.203185e+03,0.000000e+00
3.206078e+03,0.000000e+00
3.208970e+03,0.000000e+00
3.211863e+03,0.000000e+00
3.214756e+03,0.000000e+00
3.217649e+03,0.000000e+00
3.220541e+03,0.000000e+00
3.223434e+03,0.000000e+00
3.226327e+03,0.000000e+00
3.229219e+03,0.000000e+00
3.232112e+03,0.000000e+00
3.235005e+03,0.000000e+00
3.237897e+03,0.000000e+00
3.240790e+03,0.000000e+00
3.243683e+03,0.000000e+00
3.246576e+03,0.000000e+00
3.249468e+03,0.000000e+00
3.252361e+03,0.000000e+00
3.255254e+03,0.000000e+00
3.258146e+03,0.000000e+00
3.261039e+03,0.000000e+00
3.263932e+03,0.000000e+00
3.266824e+03,0.000000e+00
3.269717e+03,0.000000e+00
3.272610e+03,0.000000e+00
3.275503e+03,0.000000e+00
3.278395e+03,0.000000e+00
3.281288e+03,0.000000e+00
3.284181e+03,0.000000e+00
3.287073e+03,0.000000e+00
3.289966e+03,0.000000e+00
3.292859e+03,0.000000e+00
3.295751e+03,0.000000e+00
3.298644e+03,0.000000e+00
3.301537e+03,0.000000e+00
3.304430e+03,0.000000e+00
3.307322e+03,0.000000e+00
3.310215e+03,0.000000e+00
3.313108e+03,0.000000e+00
3.316000e+03,0.000000e+00
3.318893e+03,0.000000e+00
3.321786e+03,0.000000e+00
3.324678e+03,0.000000e+00
3.327571e+03,0.000000e+00
3.330464e+03,0.000000e+00
3.333357e+03,0.000000e+00
3.336249e+03,0.000000e+00
3.339142e+03,0.000000e+00
3.342035e+03,0.000000e+00
3.344927e+03,0.000000e+00
3.347820e+03,0.000000e+00
3.350713e+03,0.000000e+00
3.353605e+03,0.000000e+00
3.356498e+03,0.000000e+00
3.359391e+03,0.000000e+00
3.362284e+03,0.000000e+00
3.365176e+03,0.000000e+00
3.368069e+03,0.000000e+00
3.370962e+03,0.000000e+00
3.373854e+03,0.000000e+00
3.376747e+03,0.000000e+00
3.379640e+03,0.000000e+00
3.382532e+03,0.000000e+00
3.385425e+03,0.000000e+00
3.388318e+03,0.000000e+00
3.391211e+03,0.000000e+00
3.394103e+03,0.000000e+00
3.396996e+03,0.000000e+00
3.399889e+03,0.000000e+00
3.402781e+03,0.000000e+00
3.405674e+03,0.000000e+00
3.408567e+03,0.000000e+00
3.411459e+03,0.000000e+00
3.414352e+03,0.000000e+00
3.417245e+03,0.000000e+00
3.420138e+03,0.000000e+00
3.423030e+03,0.000000e+00
3.425923e+03,0.000000e+00
3.428816e+03,0.000000e+00
3.431708e+03,0.000000e+00
3.434601e+03,0.000000e+00
3.437494e+03,0.000000e+00
3.440386e+03,0.000000e+00
3.443279e+03,0.000000e+00
3.446172e+03,0.000000e+00
3.449065e+03,0.000000e+00
3.451957e+03,0.000000e+00
3.454850e+03,0.000000e+00
3.457743e+03,0.000000e+00
3.460635e+03,0.000000e+00
3.463528e+03,0.000000e+00
3.466421e+03,0.000000e+00
3.469313e+03,0.000000e+00
3.472206e+03,0.000000e+00
3.475099e+03,0.000000e+00
3.477992e+03,0.000000e+00
3.480884e+03,0.000000e+00
3.483777e+03,0.000000e+00
3.486670e+03,0.000000e+00
3.489563e+03,0.000000e+00
3.492455e+03,0.000000e+00
3.495348e+03,0.000000e+00
3.498240e+03,0.000000e+00
3.500169e+03,0.000000e+00