File: RAMAN_data/14032024_r1/blue fibre1.CSV
9.931763e+01,0.000000e+00
1.022103e+02,0.000000e+00
1.051030e+02,0.000000e+00
1.079957e+02,0.000000e+00
1.108884e+02,0.000000e+00
1.137811e+02,0.000000e+00
1.166738e+02,0.000000e+00
1.195665e+02,0.000000e+00
1.224592e+02,0.000000e+00
1.253519e+02,0.000000e+00
1.282446e+02,0.000000e+00
1.311373e+02,0.000000e+00
1.340300e+02,0.000000e+00
1.369227e+02,0.000000e+00
1.398154e+02,0.000000e+00
1.427081e+02,0.000000e+00
1.456008e+02,0.000000e+00
1.484935e+02,0.000000e+00
1.513862e+02,0.000000e+00
1.542789e+02,0.000000e+00
1.571716e+02,0.000000e+00
1.600643e+02,0.000000e+00
1.629570e+02,0.000000e+00
1.658497e+02,0.000000e+00
1.687424e+02,0.000000e+00
1.716351e+02,0.000000e+00
1.745278e+02,0.000000e+00
1.774205e+02,0.000000e+00
1.803132e+02,0.000000e+00
1.832059e+02,0.000000e+00
1.860986e+02,0.000000e+00
1.889913e+02,0.000000e+00
1.918840e+02,0.000000e+00
1.947767e+02,0.000000e+00
1.976694e+02,0.000000e+00
2.005621e+02,1.048589e+03
2.034548e+02,1.050865e+03
2.063475e+02,1.050914e+03
2.092402e+02,1.039992e+03
2.121329e+02,1.046414e+03
2.150256e+02,1.058031e+03
2.179183e+02,1.049615e+03
2.208110e+02,1.048511e+03
2.237037e+02,1.053081e+03
2.265964e+02,1.046600e+03
2.294892e+02,1.048586e+03
2.323819e+02,1.046205e+03
2.352746e+02,1.049776e+03
2.381673e+02,1.050037e+03
2.410600e+02,1.048682e+03
2.439527e+02,1.048766e+03
2.468454e+02,1.058498e+03
2.497381e+02,1.058100e+03
2.526308e+02,1.056126e+03
2.555235e+02,1.052473e+03
2.584161e+02,1.054741e+03
2.613088e+02,1.058748e+03
2.642015e+02,1.051580e+03
2.670942e+02,1.057804e+03
2.699869e+02,1.052493e+03
2.728796e+02,1.050443e+03
2.757723e+02,1.053363e+03
2.786650e+02,1.057048e+03
2.815577e+02,1.055788e+03
2.844504e+02,1.061196e+03
2.873431e+02,1.056990e+03
2.902358e+02,1.058120e+03
2.931285e+02,1.056467e+03
2.960212e+02,1.058737e+03
2.989139e+02,1.067824e+03
3.018066e+02,1.062837e+03
3.046993e+02,1.060456e+03
3.075920e+02,1.062096e+03
3.104847e+02,1.052966e+03
3.133774e+02,1.062945e+03
3.162701e+02,1.067357e+03
3.191628e+02,1.061442e+03
3.220555e+02,1.060832e+03
3.249482e+02,1.063453e+03
3.278409e+02,1.065871e+03
3.307336e+02,1.066139e+03
3.336263e+02,1.061758e+03
3.365190e+02,1.062865e+03
3.394117e+02,1.068149e+03
3.423044e+02,1.060117e+03
3.451971e+02,1.057377e+03
3.480898e+02,1.054910e+03
3.509825e+02,1.059174e+03
3.538752e+02,1.056250e+03
3.567680e+02,1.053911e+03
3.596607e+02,1.058540e+03
3.625534e+02,1.067705e+03
3.654461e+02,1.055562e+03
3.683388e+02,1.060587e+03
3.712315e+02,1.074057e+03
3.741242e+02,1.075569e+03
3.770169e+02,1.082911e+03
3.799096e+02,1.069587e+03
3.828023e+02,1.065762e+03
3.856950e+02,1.056487e+03
3.885877e+02,1.049975e+03
3.914804e+02,1.051255e+03
3.943731e+02,1.061475e+03
3.972658e+02,1.039220e+03
4.001585e+02,1.048596e+03
4.030512e+02,1.053898e+03
4.059439e+02,1.052048e+03
4.088366e+02,1.045029e+03
4.117293e+02,1.047473e+03
4.146220e+02,1.044801e+03
4.175147e+02,1.054818e+03
4.204074e+02,1.047316e+03
4.233001e+02,1.041505e+03
4.261928e+02,1.042833e+03
4.290855e+02,1.055522e+03
4.319782e+02,1.053101e+03
4.348709e+02,1.047945e+03
4.377636e+02,1.055386e+03
4.406563e+02,1.049069e+03
4.435490e+02,1.045171e+03
4.464417e+02,1.035179e+03
4.493344e+02,1.036231e+03
4.522271e+02,1.039108e+03
4.551198e+02,1.042558e+03
4.580125e+02,1.039682e+03
4.609052e+02,1.035312e+03
4.637979e+02,1.032664e+03
4.666906e+02,1.029787e+03
4.695833e+02,1.016166e+03
4.724760e+02,1.026103e+03
4.753687e+02,1.024776e+03
4.782614e+02,1.022916e+03
4.811541e+02,1.024275e+03
4.840468e+02,1.019721e+03
4.869395e+02,1.023241e+03
4.898322e+02,1.014047e+03
4.927249e+02,1.025214e+03
4.956176e+02,1.019562e+03
4.985103e+02,1.019296e+03
5.014030e+02,1.009982e+03
5.042957e+02,1.011110e+03
5.071884e+02,1.010823e+03
5.100811e+02,1.013510e+03
5.129738e+02,1.017070e+03
5.158665e+02,1.012915e+03
5.187592e+02,1.015922e+03
5.216519e+02,1.010472e+03
5.245446e+02,1.006118e+03
5.274373e+02,1.013040e+03
5.303300e+02,1.004573e+03
5.332227e+02,9.990775e+02
5.361154e+02,1.000073e+03
5.390081e+02,9.987205e+02
5.419008e+02,9.921411e+02
5.447935e+02,9.952450e+02
5.476862e+02,9.925820e+02
5.505789e+02,9.919334e+02
5.534716e+02,9.896959e+02
5.563643e+02,9.888299e+02
5.592570e+02,1.000009e+03
5.621497e+02,9.919265e+02
5.650424e+02,9.850635e+02
5.679351e+02,9.838240e+02
5.708278e+02,9.771762e+02
5.737205e+02,9.809046e+02
5.766132e+02,9.838313e+02
5.795059e+02,9.797944e+02
5.823986e+02,9.811175e+02
5.852913e+02,9.725695e+02
5.881840e+02,9.848544e+02
5.910767e+02,9.842514e+02
5.939694e+02,9.774291e+02
5.968621e+02,9.779853e+02
5.997548e+02,9.761879e+02
6.026475e+02,9.711080e+02
6.055402e+02,9.713513e+02
6.084329e+02,9.708932e+02
6.113256e+02,9.673202e+02
6.142183e+02,9.662410e+02
6.171110e+02,9.626525e+02
6.200037e+02,9.629341e+02
6.228964e+02,9.615429e+02
6.257891e+02,9.623201e+02
6.286818e+02,9.522631e+02
6.315745e+02,9.513723e+02
6.344672e+02,9.564102e+02
6.373599e+02,9.505937e+02
6.402526e+02,9.467438e+02
6.431453e+02,9.474278e+02
6.460380e+02,9.530381e+02
6.489307e+02,9.515253e+02
6.518234e+02,9.507796e+02
6.547161e+02,9.507292e+02
6.576088e+02,9.404427e+02
6.605015e+02,9.342781e+02
6.633942e+02,9.326008e+02
6.662869e+02,9.388366e+02
6.691796e+02,9.348799e+02
6.720723e+02,9.379213e+02
6.749650e+02,9.295382e+02
6.778577e+02,9.359124e+02
6.807504e+02,9.260092e+02
6.836431e+02,9.314891e+02
6.865358e+02,9.353602e+02
6.894285e+02,9.314908e+02
6.923212e+02,9.335870e+02
6.952139e+02,9.190026e+02
6.981066e+02,9.163640e+02
7.009993e+02,9.241213e+02
7.038920e+02,9.202475e+02
7.067847e+02,9.186918e+02
7.096774e+02,9.167617e+02
7.125701e+02,9.180609e+02
7.154628e+02,9.023116e+02
7.183555e+02,9.066759e+02
7.212482e+02,9.127401e+02
7.241409e+02,9.137743e+02
7.270336e+02,9.086912e+02
7.299263e+02,8.990734e+02
7.328190e+02,8.991003e+02
7.357117e+02,8.981259e+02
7.386044e+02,8.893605e+02
7.414971e+02,8.916982e+02
7.443898e+02,8.931108e+02
7.472825e+02,8.865322e+02
7.501752e+02,8.920438e+02
7.530679e+02,8.871209e+02
7.559606e+02,8.850077e+02
7.588533e+02,8.894745e+02
7.617460e+02,8.876952e+02
7.646387e+02,8.878395e+02
7.675314e+02,8.829069e+02
7.704241e+02,8.811083e+02
7.733168e+02,8.775226e+02
7.762095e+02,8.777593e+02
7.791022e+02,8.814407e+02
7.819949e+02,8.761570e+02
7.848876e+02,8.642390e+02
7.877803e+02,8.737463e+02
7.906730e+02,8.731119e+02
7.935657e+02,8.705789e+02
7.964584e+02,8.607650e+02
7.993511e+02,8.623228e+02
8.022438e+02,8.604178e+02
8.051365e+02,8.635461e+02
8.080292e+02,8.612457e+02
8.109219e+02,8.608328e+02
8.138146e+02,8.578001e+02
8.167073e+02,8.535880e+02
8.196000e+02,8.549591e+02
8.224927e+02,8.493405e+02
8.253854e+02,8.461013e+02
8.282781e+02,8.401307e+02
8.311708e+02,8.468487e+02
8.340635e+02,8.466016e+02
8.369562e+02,8.451815e+02
8.398489e+02,8.419890e+02
8.427416e+02,8.374932e+02
8.456343e+02,8.434816e+02
8.485270e+02,8.372949e+02
8.514197e+02,8.446156e+02
8.543124e+02,8.382587e+02
8.572051e+02,8.361763e+02
8.600978e+02,8.344617e+02
8.629905e+02,8.332286e+02
8.658832e+02,8.264921e+02
8.687759e+02,8.325751e+02
8.716686e+02,8.299431e+02
8.745613e+02,8.220789e+02
8.774540e+02,8.379036e+02
8.803467e+02,8.297023e+02
8.832394e+02,8.312298e+02
8.861321e+02,8.385552e+02
8.890248e+02,8.456230e+02
8.919175e+02,8.264026e+02
8.948102e+02,8.224151e+02
8.977029e+02,8.246256e+02
9.005956e+02,8.252435e+02
9.034883e+02,8.215240e+02
9.063810e+02,8.136758e+02
9.092737e+02,8.122743e+02
9.121664e+02,8.011351e+02
9.150591e+02,8.191794e+02
9.179518e+02,8.056123e+02
9.208445e+02,8.036241e+02
9.237372e+02,7.999359e+02
9.266299e+02,8.026172e+02
9.295226e+02,7.985453e+02
9.324153e+02,7.962217e+02
9.353080e+02,7.877040e+02
9.382007e+02,7.910041e+02
9.410934e+02,7.854005e+02
9.439861e+02,7.773497e+02
9.468788e+02,7.884586e+02
9.497715e+02,7.833046e+02
9.526642e+02,7.809157e+02
9.555569e+02,7.916988e+02
9.584496e+02,7.741415e+02
9.613423e+02,7.787373e+02
9.642350e+02,7.778633e+02
9.671277e+02,7.767426e+02
9.700204e+02,7.783766e+02
9.729131e+02,7.639291e+02
9.758058e+02,7.736687e+02
9.786985e+02,7.746086e+02
9.815912e+02,7.690372e+02
9.844839e+02,7.698380e+02
9.873766e+02,7.638123e+02
9.902693e+02,7.704374e+02
9.931620e+02,7.721492e+02
9.960547e+02,7.722919e+02
9.989474e+02,7.750193e+02
1.001840e+03,7.575912e+02
1.004733e+03,7.579934e+02
1.007626e+03,7.536615e+02
1.010518e+03,7.608521e+02
1.013411e+03,7.609148e+02
1.016304e+03,7.541173e+02
1.019196e+03,7.582546e+02
1.022089e+03,7.560701e+02
1.024982e+03,7.490075e+02
1.027875e+03,7.396974e+02
1.030767e+03,7.506832e+02
1.033660e+03,7.480563e+02
1.036552e+03,7.486320e+02
1.039445e+03,7.561088e+02
1.042338e+03,7.465831e+02
1.045231e+03,7.466200e+02
1.048123e+03,7.390056e+02
1.051016e+03,7.500070e+02
1.053909e+03,7.476360e+02
1.056802e+03,7.516818e+02
1.059694e+03,7.460051e+02
1.062587e+03,7.393148e+02
1.065479e+03,7.399688e+02
1.068372e+03,7.434934e+02
1.071265e+03,7.445869e+02
1.074158e+03,7.393860e+02
1.077050e+03,7.421416e+02
1.079943e+03,7.466002e+02
1.082836e+03,7.470992e+02
1.085729e+03,7.512395e+02
1.088621e+03,7.616418e+02
1.091514e+03,7.609528e+02
1.094406e+03,7.647701e+02
1.097299e+03,7.628864e+02
1.100192e+03,7.498897e+02
1.103085e+03,7.422826e+02
1.105977e+03,7.394249e+02
1.108870e+03,7.363015e+02
1.111763e+03,7.324719e+02
1.114656e+03,7.530143e+02
1.117548e+03,7.437789e+02
1.120441e+03,7.410201e+02
1.123334e+03,7.394873e+02
1.126226e+03,7.381595e+02
1.129119e+03,7.215840e+02
1.132012e+03,7.250911e+02
1.134904e+03,7.123737e+02
1.137797e+03,7.141271e+02
1.140690e+03,7.109604e+02
1.143583e+03,7.153386e+02
1.146475e+03,7.138059e+02
1.149368e+03,7.087824e+02
1.152261e+03,7.159079e+02
1.155153e+03,7.126619e+02
1.158046e+03,7.051580e+02
1.160939e+03,7.023707e+02
1.163831e+03,7.065480e+02
1.166724e+03,7.011630e+02
1.169617e+03,7.066075e+02
1.172510e+03,6.922897e+02
1.175402e+03,6.893707e+02
1.178295e+03,6.921820e+02
1.181188e+03,6.897828e+02
1.184080e+03,6.884747e+02
1.186973e+03,6.923481e+02
1.189866e+03,6.933351e+02
1.192758e+03,6.819697e+02
1.195651e+03,6.890364e+02
1.198544e+03,6.910812e+02
1.201437e+03,6.857435e+02
1.204329e+03,6.771381e+02
1.207222e+03,6.763814e+02
1.210115e+03,6.782106e+02
1.213007e+03,6.838599e+02
1.215900e+03,6.855165e+02
1.218793e+03,6.824281e+02
1.221685e+03,6.872524e+02
1.224578e+03,6.796194e+02
1.227471e+03,6.810276e+02
1.230364e+03,6.783652e+02
1.233256e+03,6.784815e+02
1.236149e+03,6.828591e+02
1.239042e+03,6.738551e+02
1.241934e+03,6.746764e+02
1.244827e+03,6.758192e+02
1.247720e+03,6.736088e+02
1.250612e+03,6.742492e+02
1.253505e+03,6.700717e+02
1.256398e+03,6.684542e+02
1.259291e+03,6.641442e+02
1.262183e+03,6.611962e+02
1.265076e+03,6.661776e+02
1.267969e+03,6.564981e+02
1.270861e+03,6.659196e+02
1.273754e+03,6.685722e+02
1.276647e+03,6.655778e+02
1.279539e+03,6.676866e+02
1.282432e+03,6.604297e+02
1.285325e+03,6.625905e+02
1.288218e+03,6.650969e+02
1.291110e+03,6.683408e+02
1.294003e+03,6.689058e+02
1.296896e+03,6.639178e+02
1.299788e+03,6.595397e+02
1.302681e+03,6.624408e+02
1.305574e+03,6.666368e+02
1.308466e+03,6.598796e+02
1.311359e+03,6.611009e+02
1.314252e+03,6.589482e+02
1.317145e+03,6.563950e+02
1.320037e+03,6.690167e+02
1.322930e+03,6.614130e+02
1.325823e+03,6.659495e+02
1.328715e+03,6.597548e+02
1.331608e+03,6.604830e+02
1.334501e+03,6.681985e+02
1.337393e+03,6.653710e+02
1.340286e+03,6.645717e+02
1.343179e+03,6.593716e+02
1.346072e+03,6.551536e+02
1.348964e+03,6.574816e+02
1.351857e+03,6.528150e+02
1.354750e+03,6.484549e+02
1.357642e+03,6.485275e+02
1.360535e+03,6.502433e+02
1.363428e+03,6.506020e+02
1.366320e+03,6.565569e+02
1.369213e+03,6.500804e+02
1.372106e+03,6.551627e+02
1.374999e+03,6.555322e+02
1.377891e+03,6.570365e+02
1.380784e+03,6.487763e+02
1.383677e+03,6.478915e+02
1.386569e+03,6.457760e+02
1.389462e+03,6.412540e+02
1.392355e+03,6.394303e+02
1.395247e+03,6.366463e+02
1.398140e+03,6.372938e+02
1.401033e+03,6.486117e+02
1.403926e+03,6.416330e+02
1.406818e+03,6.373332e+02
1.409711e+03,6.310109e+02
1.412604e+03,6.287804e+02
1.415496e+03,6.271810e+02
1.418389e+03,6.396589e+02
1.421282e+03,6.267227e+02
1.424174e+03,6.292643e+02
1.427067e+03,6.270720e+02
1.429960e+03,6.236074e+02
1.432853e+03,6.220687e+02
1.435745e+03,6.186859e+02
1.438638e+03,6.157612e+02
1.441531e+03,6.161328e+02
1.444423e+03,6.175793e+02
1.447316e+03,6.110712e+02
1.450209e+03,6.163682e+02
1.453101e+03,6.072897e+02
1.455994e+03,6.143572e+02
1.458887e+03,6.116865e+02
1.461780e+03,6.070651e+02
1.464672e+03,6.215462e+02
1.467565e+03,6.062350e+02
1.470458e+03,6.079479e+02
1.473350e+03,6.097219e+02
1.476243e+03,6.096804e+02
1.479136e+03,6.033313e+02
1.482028e+03,6.107765e+02
1.484921e+03,6.033019e+02
1.487814e+03,5.956608e+02
1.490707e+03,5.994616e+02
1.493599e+03,5.931885e+02
1.496492e+03,5.970211e+02
1.499385e+03,5.882120e+02
1.502277e+03,5.975538e+02
1.505170e+03,5.913830e+02
1.508063e+03,5.772568e+02
1.510955e+03,5.870863e+02
1.513848e+03,5.820587e+02
1.516741e+03,5.752726e+02
1.519634e+03,5.945614e+02
1.522526e+03,5.864288e+02
1.525419e+03,5.899782e+02
1.528312e+03,5.833187e+02
1.531204e+03,5.850540e+02
1.534097e+03,5.846318e+02
1.536990e+03,5.818835e+02
1.539882e+03,5.852146e+02
1.542775e+03,5.821378e+02
1.545668e+03,5.777932e+02
1.548561e+03,5.809148e+02
1.551453e+03,5.805005e+02
1.554346e+03,5.783810e+02
1.557239e+03,5.797487e+02
1.560131e+03,5.741899e+02
1.563024e+03,5.731041e+02
1.565917e+03,5.738582e+02
1.568809e+03,5.754783e+02
1.571702e+03,5.700072e+02
1.574595e+03,5.663760e+02
1.577488e+03,5.729703e+02
1.580380e+03,5.722330e+02
1.583273e+03,5.738961e+02
1.586166e+03,5.750084e+02
1.589058e+03,5.695959e+02
1.591951e+03,5.604262e+02
1.594844e+03,5.735706e+02
1.597736e+03,5.668644e+02
1.600629e+03,5.650364e+02
1.603522e+03,5.642637e+02
1.606415e+03,5.591107e+02
1.609307e+03,5.569717e+02
1.612200e+03,5.628820e+02
1.615093e+03,5.671843e+02
1.617985e+03,5.588429e+02
1.620878e+03,5.570056e+02
1.623771e+03,5.625447e+02
1.626663e+03,5.548789e+02
1.629556e+03,5.531562e+02
1.632449e+03,5.493817e+02
1.635342e+03,5.525939e+02
1.638234e+03,5.448185e+02
1.641127e+03,5.486261e+02
1.644020e+03,5.439844e+02
1.646912e+03,5.522413e+02
1.649805e+03,5.395455e+02
1.652698e+03,5.452554e+02
1.655590e+03,5.426076e+02
1.658483e+03,5.459928e+02
1.661376e+03,5.444639e+02
1.664269e+03,5.452914e+02
1.667161e+03,5.404279e+02
1.670054e+03,5.353009e+02
1.672947e+03,5.332225e+02
1.675839e+03,5.295038e+02
1.678732e+03,5.337257e+02
1.681625e+03,5.304028e+02
1.684517e+03,5.291874e+02
1.687410e+03,5.254459e+02
1.690303e+03,5.329023e+02
1.693196e+03,5.351433e+02
1.696088e+03,5.282105e+02
1.698981e+03,5.223660e+02
1.701874e+03,5.273221e+02
1.704766e+03,5.295388e+02
1.707659e+03,5.275454e+02
1.710552e+03,5.244462e+02
1.713444e+03,5.318196e+02
1.716337e+03,5.229152e+02
1.719230e+03,5.167633e+02
1.722123e+03,5.114195e+02
1.725015e+03,5.111080e+02
1.727908e+03,5.151574e+02
1.730801e+03,5.196158e+02
1.733693e+03,5.146345e+02
1.736586e+03,5.076036e+02
1.739479e+03,5.087077e+02
1.742371e+03,5.126786e+02
1.745264e+03,5.023904e+02
1.748157e+03,5.116026e+02
1.751050e+03,5.062571e+02
1.753942e+03,5.044322e+02
1.756835e+03,5.040209e+02
1.759728e+03,4.972941e+02
1.762620e+03,4.994105e+02
1.765513e+03,4.972611e+02
1.768406e+03,5.068860e+02
1.771298e+03,5.028215e+02
1.774191e+03,5.052176e+02
1.777084e+03,4.929893e+02
1.779977e+03,4.997526e+02
1.782869e+03,4.870002e+02
1.785762e+03,4.918690e+02
1.788655e+03,4.904862e+02
1.791547e+03,4.875082e+02
1.794440e+03,4.918618e+02
1.797333e+03,4.834160e+02
1.800225e+03,4.849342e+02
1.803118e+03,4.945908e+02
1.806011e+03,4.826284e+02
1.808904e+03,4.850921e+02
1.811796e+03,4.825010e+02
1.814689e+03,4.769653e+02
1.817582e+03,4.691796e+02
1.820474e+03,4.831183e+02
1.823367e+03,4.793726e+02
1.826260e+03,4.772984e+02
1.829152e+03,4.701704e+02
1.832045e+03,4.718881e+02
1.834938e+03,4.750432e+02
1.837831e+03,4.686571e+02
1.840723e+03,4.709010e+02
1.843616e+03,4.754283e+02
1.846509e+03,4.635003e+02
1.849401e+03,4.711121e+02
1.852294e+03,4.575167e+02
1.855187e+03,4.631860e+02
1.858079e+03,4.604173e+02
1.860972e+03,4.644368e+02
1.863865e+03,4.649279e+02
1.866758e+03,4.577220e+02
1.869650e+03,4.496339e+02
1.872543e+03,4.535765e+02
1.875436e+03,4.534998e+02
1.878328e+03,4.527313e+02
1.881221e+03,4.515805e+02
1.884114e+03,4.546758e+02
1.887006e+03,4.458238e+02
1.889899e+03,4.531520e+02
1.892792e+03,4.458731e+02
1.895685e+03,4.435207e+02
1.898577e+03,4.474374e+02
1.901470e+03,4.460493e+02
1.904363e+03,4.439666e+02
1.907255e+03,4.495810e+02
1.910148e+03,4.418865e+02
1.913041e+03,4.488631e+02
1.915933e+03,4.417395e+02
1.918826e+03,4.321701e+02
1.921719e+03,4.289127e+02
1.924612e+03,4.348018e+02
1.927504e+03,4.311914e+02
1.930397e+03,4.470851e+02
1.933290e+03,4.223588e+02
1.936182e+03,4.260535e+02
1.939075e+03,4.268969e+02
1.941968e+03,4.261936e+02
1.944860e+03,4.275104e+02
1.947753e+03,4.265681e+02
1.950646e+03,4.226681e+02
1.953539e+03,4.172389e+02
1.956431e+03,4.253692e+02
1.959324e+03,4.284968e+02
1.962217e+03,4.263152e+02
1.965109e+03,4.092203e+02
1.968002e+03,4.170089e+02
1.970895e+03,4.146118e+02
1.973787e+03,4.192227e+02
1.976680e+03,4.079492e+02
1.979573e+03,4.058932e+02
1.982466e+03,4.112560e+02
1.985358e+03,4.078626e+02
1.988251e+03,4.109441e+02
1.991144e+03,4.130288e+02
1.994036e+03,4.120101e+02
1.996929e+03,4.077077e+02
1.999822e+03,4.061214e+02
2.002714e+03,3.977960e+02
2.005607e+03,4.061955e+02
2.008500e+03,4.018889e+02
2.011393e+03,3.942498e+02
2.014285e+03,3.971566e+02
2.017178e+03,4.007993e+02
2.020071e+03,3.911608e+02
2.022963e+03,4.006547e+02
2.025856e+03,3.895300e+02
2.028749e+03,3.936319e+02
2.031641e+03,3.908177e+02
2.034534e+03,3.849573e+02
2.037427e+03,3.937656e+02
2.040320e+03,3.958282e+02
2.043212e+03,3.769404e+02
2.046105e+03,3.853575e+02
2.048998e+03,3.770707e+02
2.051890e+03,3.835616e+02
2.054783e+03,3.787226e+02
2.057676e+03,3.851897e+02
2.060568e+03,3.829821e+02
2.063461e+03,3.830508e+02
2.066354e+03,3.731876e+02
2.069247e+03,3.752914e+02
2.072139e+03,3.754420e+02
2.075032e+03,3.681976e+02
2.077925e+03,3.674872e+02
2.080817e+03,3.697618e+02
2.083710e+03,3.687649e+02
2.086603e+03,3.613121e+02
2.089496e+03,3.727220e+02
2.092388e+03,3.694837e+02
2.095281e+03,3.653203e+02
2.098174e+03,3.710572e+02
2.101066e+03,3.632168e+02
2.103959e+03,3.566484e+02
2.106852e+03,3.625403e+02
2.109744e+03,3.666094e+02
2.112637e+03,3.653959e+02
2.115530e+03,3.552643e+02
2.118422e+03,3.481539e+02
2.121315e+03,3.630432e+02
2.124208e+03,3.548631e+02
2.127101e+03,3.456131e+02
2.129993e+03,3.548372e+02
2.132886e+03,3.472271e+02
2.135779e+03,3.435317e+02
2.138671e+03,3.427997e+02
2.141564e+03,3.489631e+02
2.144457e+03,3.395363e+02
2.147350e+03,3.402040e+02
2.150242e+03,3.459038e+02
2.153135e+03,3.353622e+02
2.156028e+03,3.384032e+02
2.158920e+03,3.426071e+02
2.161813e+03,3.470273e+02
2.164706e+03,3.397610e+02
2.167598e+03,3.422368e+02
2.170491e+03,3.329872e+02
2.173384e+03,3.375919e+02
2.176277e+03,3.321933e+02
2.179169e+03,3.326425e+02
2.182062e+03,3.339603e+02
2.184955e+03,3.413231e+02
2.187847e+03,3.278180e+02
2.190740e+03,3.367342e+02
2.193633e+03,3.271694e+02
2.196525e+03,3.258033e+02
2.199418e+03,3.217745e+02
2.202311e+03,3.248449e+02
2.205204e+03,3.265179e+02
2.208096e+03,3.273369e+02
2.210989e+03,3.211805e+02
2.213882e+03,3.156186e+02
2.216774e+03,3.227258e+02
2.219667e+03,3.207374e+02
2.222560e+03,3.219804e+02
2.225452e+03,3.136790e+02
2.228345e+03,3.073456e+02
2.231238e+03,3.124557e+02
2.234131e+03,3.165629e+02
2.237023e+03,3.150905e+02
2.239916e+03,3.228847e+02
2.242809e+03,3.080162e+02
2.245701e+03,3.084889e+02
2.248594e+03,3.009374e+02
2.251487e+03,3.124996e+02
2.254379e+03,3.107059e+02
2.257272e+03,3.031005e+02
2.260165e+03,3.030352e+02
2.263058e+03,3.074091e+02
2.265950e+03,2.986309e+02
2.268843e+03,3.017935e+02
2.271736e+03,3.024082e+02
2.274628e+03,3.001023e+02
2.277521e+03,2.959029e+02
2.280414e+03,3.006124e+02
2.283306e+03,2.979831e+02
2.286199e+03,2.929750e+02
2.289092e+03,2.882789e+02
2.291985e+03,2.962685e+02
2.294877e+03,2.928702e+02
2.297770e+03,3.038610e+02
2.300663e+03,2.894148e+02
2.303555e+03,2.886165e+02
2.306448e+03,2.859404e+02
2.309341e+03,2.917024e+02
2.312233e+03,2.897716e+02
2.315126e+03,2.885138e+02
2.318019e+03,2.826659e+02
2.320912e+03,2.907761e+02
2.323804e+03,2.873430e+02
2.326697e+03,2.866832e+02
2.329590e+03,2.849254e+02
2.332482e+03,2.752297e+02
2.335375e+03,2.824088e+02
2.338268e+03,2.819244e+02
2.341160e+03,2.757200e+02
2.344053e+03,2.818896e+02
2.346946e+03,2.841050e+02
2.349839e+03,2.785977e+02
2.352731e+03,2.845508e+02
2.355624e+03,2.768007e+02
2.358517e+03,2.827762e+02
2.361409e+03,2.777087e+02
2.364302e+03,2.753107e+02
2.367195e+03,2.682271e+02
2.370087e+03,2.755860e+02
2.372980e+03,2.665343e+02
2.375873e+03,2.729516e+02
2.378766e+03,2.672357e+02
2.381658e+03,2.712775e+02
2.384551e+03,2.582120e+02
2.387444e+03,2.744803e+02
2.390336e+03,2.697640e+02
2.393229e+03,2.694665e+02
2.396122e+03,2.599794e+02
2.399014e+03,2.613742e+02
2.401907e+03,2.712495e+02
2.404800e+03,2.579767e+02
2.407693e+03,2.651393e+02
2.410585e+03,2.587025e+02
2.413478e+03,2.563383e+02
2.416371e+03,2.603553e+02
2.419263e+03,2.568475e+02
2.422156e+03,2.586846e+02
2.425049e+03,2.516181e+02
2.427941e+03,2.601824e+02
2.430834e+03,2.500141e+02
2.433727e+03,2.559489e+02
2.436620e+03,2.557767e+02
2.439512e+03,2.500120e+02
2.442405e+03,2.549245e+02
2.445298e+03,2.563057e+02
2.448190e+03,2.481543e+02
2.451083e+03,2.454978e+02
2.453976e+03,2.499003e+02
2.456868e+03,2.493632e+02
2.459761e+03,2.453203e+02
2.462654e+03,2.449581e+02
2.465547e+03,2.409547e+02
2.468439e+03,2.417467e+02
2.471332e+03,2.428279e+02
2.474225e+03,2.429827e+02
2.477117e+03,2.509044e+02
2.480010e+03,2.481775e+02
2.482903e+03,2.427228e+02
2.485795e+03,2.465019e+02
2.488688e+03,2.545336e+02
2.491581e+03,2.399970e+02
2.494474e+03,2.436128e+02
2.497366e+03,2.488951e+02
2.500259e+03,2.359801e+02
2.503152e+03,2.372059e+02
2.506044e+03,2.506267e+02
2.508937e+03,2.364178e+02
2.511830e+03,2.434989e+02
2.514722e+03,2.359104e+02
2.517615e+03,2.384089e+02
2.520508e+03,2.374870e+02
2.523401e+03,2.414668e+02
2.526293e+03,2.398572e+02
2.529186e+03,2.355485e+02
2.532079e+03,2.324621e+02
2.534971e+03,2.357918e+02
2.537864e+03,2.290584e+02
2.540757e+03,2.313488e+02
2.543649e+03,2.292280e+02
2.546542e+03,2.454696e+02
2.549435e+03,2.375345e+02
2.552328e+03,2.378205e+02
2.555220e+03,2.470792e+02
2.558113e+03,2.350153e+02
2.561006e+03,2.338846e+02
2.563898e+03,2.334596e+02
2.566791e+03,2.357164e+02
2.569684e+03,2.403817e+02
2.572576e+03,2.376432e+02
2.575469e+03,2.289236e+02
2.578362e+03,2.258839e+02
2.581255e+03,2.303351e+02
2.584147e+03,2.215801e+02
2.587040e+03,2.291657e+02
2.589933e+03,2.320635e+02
2.592825e+03,2.176901e+02
2.595718e+03,2.242676e+02
2.598611e+03,2.221787e+02
2.601503e+03,2.211184e+02
2.604396e+03,2.232473e+02
2.607289e+03,2.183155e+02
2.610182e+03,2.219044e+02
2.613074e+03,2.228543e+02
2.615967e+03,2.187355e+02
2.618860e+03,2.156305e+02
2.621752e+03,2.171502e+02
2.624645e+03,2.120371e+02
2.627538e+03,2.228277e+02
2.630430e+03,2.174192e+02
2.633323e+03,2.155831e+02
2.636216e+03,2.130333e+02
2.639109e+03,2.194440e+02
2.642001e+03,2.130835e+02
2.644894e+03,2.143482e+02
2.647787e+03,2.083021e+02
2.650679e+03,2.122837e+02
2.653572e+03,2.166187e+02
2.656465e+03,2.192351e+02
2.659357e+03,2.047003e+02
2.662250e+03,2.038047e+02
2.665143e+03,2.176811e+02
2.668036e+03,2.061565e+02
2.670928e+03,2.157085e+02
2.673821e+03,2.060249e+02
2.676714e+03,2.114770e+02
2.679606e+03,2.134031e+02
2.682499e+03,2.116127e+02
2.685392e+03,2.056805e+02
2.688284e+03,2.102403e+02
2.691177e+03,2.115097e+02
2.694070e+03,1.984066e+02
2.696963e+03,2.049510e+02
2.699855e+03,2.126448e+02
2.702748e+03,2.106309e+02
2.705641e+03,2.147306e+02
2.708533e+03,2.120966e+02
2.711426e+03,2.045400e+02
2.714319e+03,2.058486e+02
2.717211e+03,2.078242e+02
2.720104e+03,2.074783e+02
2.722997e+03,2.106148e+02
2.725890e+03,2.057158e+02
2.728782e+03,2.128858e+02
2.731675e+03,2.001852e+02
2.734568e+03,2.056785e+02
2.737460e+03,2.047800e+02
2.740353e+03,1.958283e+02
2.743246e+03,2.032583e+02
2.746138e+03,1.974819e+02
2.749031e+03,2.018140e+02
2.751924e+03,1.957930e+02
2.754817e+03,2.010073e+02
2.757709e+03,2.029872e+02
2.760602e+03,2.061656e+02
2.763495e+03,2.009801e+02
2.766387e+03,2.132676e+02
2.769280e+03,1.904827e+02
2.772173e+03,1.982820e+02
2.775065e+03,2.034772e+02
2.777958e+03,2.009312e+02
2.780851e+03,2.024772e+02
2.783744e+03,1.997181e+02
2.786636e+03,1.889137e+02
2.789529e+03,1.873699e+02
2.792422e+03,1.971513e+02
2.795314e+03,1.972658e+02
2.798207e+03,2.071977e+02
2.801100e+03,2.091043e+02
2.803992e+03,2.001372e+02
2.806885e+03,1.812798e+02
2.809778e+03,2.003201e+02
2.812671e+03,2.036299e+02
2.815563e+03,1.947495e+02
2.818456e+03,1.820852e+02
2.821349e+03,1.971221e+02
2.824241e+03,1.867393e+02
2.827134e+03,2.025168e+02
2.830027e+03,1.915513e+02
2.832919e+03,1.968638e+02
2.835812e+03,2.144624e+02
2.838705e+03,1.971211e+02
2.841598e+03,1.978796e+02
2.844490e+03,2.039337e+02
2.847383e+03,1.962666e+02
2.850276e+03,2.125306e+02
2.853168e+03,2.115134e+02
2.856061e+03,2.268080e+02
2.858954e+03,2.021399e+02
2.861846e+03,2.193803e+02
2.864739e+03,1.957105e+02
2.867632e+03,2.153416e+02
2.870525e+03,2.165284e+02
2.873417e+03,2.152586e+02
2.876310e+03,2.103512e+02
2.879203e+03,2.290648e+02
2.882095e+03,2.211719e+02
2.884988e+03,2.300775e+02
2.887881e+03,2.365475e+02
2.890773e+03,2.272030e+02
2.893666e+03,2.402688e+02
2.896559e+03,2.320728e+02
2.899452e+03,2.355793e+02
2.902344e+03,2.232623e+02
2.905237e+03,2.268577e+02
2.908130e+03,2.212053e+02
2.911022e+03,2.219189e+02
2.913915e+03,2.059795e+02
2.916808e+03,2.085783e+02
2.919700e+03,2.005888e+02
2.922593e+03,2.134748e+02
2.925486e+03,2.158266e+02
2.928379e+03,2.030421e+02
2.931271e+03,2.222909e+02
2.934164e+03,2.039998e+02
2.937057e+03,1.982096e+02
2.939949e+03,2.200771e+02
2.942842e+03,1.912316e+02
2.945735e+03,1.902476e+02
2.948627e+03,1.915050e+02
2.951520e+03,2.012416e+02
2.954413e+03,2.015327e+02
2.957306e+03,2.258544e+02
2.960198e+03,2.136123e+02
2.963091e+03,1.963380e+02
2.965984e+03,2.003156e+02
2.968876e+03,1.888717e+02
2.971769e+03,1.802106e+02
2.974662e+03,1.960784e+02
2.977554e+03,1.913080e+02
2.980447e+03,1.905100e+02
2.983340e+03,1.821315e+02
2.986233e+03,1.796677e+02
2.989125e+03,1.672041e+02
2.992018e+03,1.796093e+02
2.994911e+03,1.844290e+02
2.997803e+03,1.743319e+02
3.000696e+03,1.887041e+02
3.003589e+03,1.742653e+02
3.006481e+03,1.756541e+02
3.009374e+03,1.845528e+02
3.012267e+03,1.861897e+02
3.015160e+03,1.660614e+02
3.018052e+03,1.752157e+02
3.020945e+03,1.634157e+02
3.023838e+03,1.778809e+02
3.026730e+03,1.684783e+02
3.029623e+03,1.606651e+02
3.032516e+03,1.798429e+02
3.035408e+03,1.619645e+02
3.038301e+03,1.714300e+02
3.041194e+03,1.714802e+02
3.044087e+03,1.515404e+02
3.046979e+03,1.839026e+02
3.049872e+03,1.778204e+02
3.052765e+03,1.581962e+02
3.055657e+03,1.860856e+02
3.058550e+03,1.643083e+02
3.061443e+03,1.904187e+02
3.064335e+03,1.579714e+02
3.067228e+03,1.671819e+02
3.070121e+03,1.667731e+02
3.073014e+03,1.625578e+02
3.075906e+03,1.724580e+02
3.078799e+03,1.825505e+02
3.081692e+03,1.757458e+02
3.084584e+03,1.611853e+02
3.087477e+03,1.815450e+02
3.090370e+03,1.731931e+02
3.093262e+03,1.721908e+02
3.096155e+03,1.733750e+02
3.099048e+03,1.656005e+02
3.101941e+03,1.780306e+02
3.104833e+03,1.705457e+02
3.107726e+03,1.859337e+02
3.110619e+03,1.693261e+02
3.113511e+03,1.674647e+02
3.116404e+03,1.700132e+02
3.119297e+03,1.631688e+02
3.122189e+03,1.775993e+02
3.125082e+03,1.786329e+02
3.127975e+03,1.800826e+02
3.130868e+03,1.746826e+02
3.133760e+03,1.723345e+02
3.136653e+03,1.722724e+02
3.139546e+03,1.714364e+02
3.142438e+03,1.707181e+02
3.145331e+03,1.356674e+02
3.148224e+03,1.690303e+02
3.151116e+03,1.682217e+02
3.154009e+03,1.811723e+02
3.156902e+03,1.903320e+02
3.159795e+03,1.658412e+02
3.162687e+03,1.829432e+02
3.165580e+03,1.920772e+02
3.168473e+03,1.993657e+02
3.171365e+03,1.896022e+02
3.174258e+03,1.788685e+02
3.177151e+03,1.780739e+02
3.180043e+03,1.650957e+02
3.182936e+03,2.001687e+02
3.185829e+03,2.023143e+02
3.188722e+03,1.690144e+02
3.191614e+03,1.973480e+02
3.194507e+03,1.799103e+02
3.197400e+03,1.441776e+02
3.200292e+03,1.910350e+02
3.203185e+03,0.000000e+00
3.206078e+03,0.000000e+00
3.208970e+03,0.000000e+00
3.211863e+03,0.000000e+00
3.214756e+03,0.000000e+00
3.217649e+03,0.000000e+00
3.220541e+03,0.000000e+00
3.223434e+03,0.000000e+00
3.226327e+03,0.000000e+00
3.229219e+03,0.000000e+00
3.232112e+03,0.000000e+00
3.235005e+03,0.000000e+00
3.237897e+03,0.000000e+00
3.240790e+03,0.000000e+00
3.243683e+03,0.000000e+00
3.246576e+03,0.000000e+00
3.249468e+03,0.000000e+00
3.252361e+03,0.000000e+00
3.255254e+03,0.000000e+00
3.258146e+03,0.000000e+00
3.261039e+03,0.000000e+00
3.263932e+03,0.000000e+00
3.266824e+03,0.000000e+00
3.269717e+03,0.000000e+00
3.272610e+03,0.000000e+00
3.275503e+03,0.000000e+00
3.278395e+03,0.000000e+00
3.281288e+03,0.000000e+00
3.284181e+03,0.000000e+00
3.287073e+03,0.000000e+00
3.289966e+03,0.000000e+00
3.292859e+03,0.000000e+00
3.295751e+03,0.000000e+00
3.298644e+03,0.000000e+00
3.301537e+03,0.000000e+00
3.304430e+03,0.000000e+00
3.307322e+03,0.000000e+00
3.310215e+03,0.000000e+00
3.313108e+03,0.000000e+00
3.316000e+03,0.000000e+00
3.318893e+03,0.000000e+00
3.321786e+03,0.000000e+00
3.324678e+03,0.000000e+00
3.327571e+03,0.000000e+00
3.330464e+03,0.000000e+00
3.333357e+03,0.000000e+00
3.336249e+03,0.000000e+00
3.339142e+03,0.000000e+00
3.342035e+03,0.000000e+00
3.344927e+03,0.000000e+00
3.347820e+03,0.000000e+00
3.350713e+03,0.000000e+00
3.353605e+03,0.000000e+00
3.356498e+03,0.000000e+00
3.359391e+03,0.000000e+00
3.362284e+03,0.000000e+00
3.365176e+03,0.000000e+00
3.368069e+03,0.000000e+00
3.370962e+03,0.000000e+00
3.373854e+03,0.000000e+00
3.376747e+03,0.000000e+00
3.379640e+03,0.000000e+00
3.382532e+03,0.000000e+00
3.385425e+03,0.000000e+00
3.388318e+03,0.000000e+00
3.391211e+03,0.000000e+00
3.394103e+03,0.000000e+00
3.396996e+03,0.000000e+00
3.399889e+03,0.000000e+00
3.402781e+03,0.000000e+00
3.405674e+03,0.000000e+00
3.408567e+03,0.000000e+00
3.411459e+03,0.000000e+00
3.414352e+03,0.000000e+00
3.417245e+03,0.000000e+00
3.420138e+03,0.000000e+00
3.423030e+03,0.000000e+00
3.425923e+03,0.000000e+00
3.428816e+03,0.000000e+00
3.431708e+03,0.000000e+00
3.434601e+03,0.000000e+00
3.437494e+03,0.000000e+00
3.440386e+03,0.000000e+00
3.443279e+03,0.000000e+00
3.446172e+03,0.000000e+00
3.449065e+03,0.000000e+00
3.451957e+03,0.000000e+00
3.454850e+03,0.000000e+00
3.457743e+03,0.000000e+00
3.460635e+03,0.000000e+00
3.463528e+03,0.000000e+00
3.466421e+03,0.000000e+00
3.469313e+03,0.000000e+00
3.472206e+03,0.000000e+00
3.475099e+03,0.000000e+00
3.477992e+03,0.000000e+00
3.480884e+03,0.000000e+00
3.483777e+03,0.000000e+00
3.486670e+03,0.000000e+00
3.489563e+03,0.000000e+00
3.492455e+03,0.000000e+00
3.495348e+03,0.000000e+00
3.498240e+03,0.000000e+00
3.500169e+03,0.000000e+00