File: RAMAN_data/14032024_r1/clear frag1.CSV
9.931763e+01,0.000000e+00
1.022103e+02,0.000000e+00
1.051030e+02,0.000000e+00
1.079957e+02,0.000000e+00
1.108884e+02,0.000000e+00
1.137811e+02,0.000000e+00
1.166738e+02,0.000000e+00
1.195665e+02,0.000000e+00
1.224592e+02,0.000000e+00
1.253519e+02,0.000000e+00
1.282446e+02,0.000000e+00
1.311373e+02,0.000000e+00
1.340300e+02,0.000000e+00
1.369227e+02,0.000000e+00
1.398154e+02,0.000000e+00
1.427081e+02,0.000000e+00
1.456008e+02,0.000000e+00
1.484935e+02,0.000000e+00
1.513862e+02,0.000000e+00
1.542789e+02,0.000000e+00
1.571716e+02,0.000000e+00
1.600643e+02,0.000000e+00
1.629570e+02,0.000000e+00
1.658497e+02,0.000000e+00
1.687424e+02,0.000000e+00
1.716351e+02,0.000000e+00
1.745278e+02,0.000000e+00
1.774205e+02,0.000000e+00
1.803132e+02,0.000000e+00
1.832059e+02,0.000000e+00
1.860986e+02,0.000000e+00
1.889913e+02,0.000000e+00
1.918840e+02,0.000000e+00
1.947767e+02,0.000000e+00
1.976694e+02,0.000000e+00
2.005621e+02,7.424269e+02
2.034548e+02,7.473187e+02
2.063475e+02,7.485720e+02
2.092402e+02,7.381992e+02
2.121329e+02,7.410771e+02
2.150256e+02,7.413024e+02
2.179183e+02,7.400042e+02
2.208110e+02,7.441058e+02
2.237037e+02,7.446918e+02
2.265964e+02,7.387188e+02
2.294892e+02,7.388020e+02
2.323819e+02,7.388851e+02
2.352746e+02,7.396943e+02
2.381673e+02,7.428322e+02
2.410600e+02,7.478137e+02
2.439527e+02,7.450090e+02
2.468454e+02,7.337271e+02
2.497381e+02,7.404774e+02
2.526308e+02,7.418383e+02
2.555235e+02,7.398045e+02
2.584161e+02,7.444068e+02
2.613088e+02,7.411386e+02
2.642015e+02,7.330648e+02
2.670942e+02,7.360555e+02
2.699869e+02,7.376490e+02
2.728796e+02,7.366009e+02
2.757723e+02,7.408585e+02
2.786650e+02,7.325606e+02
2.815577e+02,7.367437e+02
2.844504e+02,7.346383e+02
2.873431e+02,7.335110e+02
2.902358e+02,7.347078e+02
2.931285e+02,7.351755e+02
2.960212e+02,7.396688e+02
2.989139e+02,7.413880e+02
3.018066e+02,7.398035e+02
3.046993e+02,7.413372e+02
3.075920e+02,7.417482e+02
3.104847e+02,7.321224e+02
3.133774e+02,7.383151e+02
3.162701e+02,7.395590e+02
3.191628e+02,7.357577e+02
3.220555e+02,7.393177e+02
3.249482e+02,7.357701e+02
3.278409e+02,7.353746e+02
3.307336e+02,7.301827e+02
3.336263e+02,7.290317e+02
3.365190e+02,7.364097e+02
3.394117e+02,7.436541e+02
3.423044e+02,7.345605e+02
3.451971e+02,7.372001e+02
3.480898e+02,7.421614e+02
3.509825e+02,7.349208e+02
3.538752e+02,7.348715e+02
3.567680e+02,7.417580e+02
3.596607e+02,7.349443e+02
3.625534e+02,7.327730e+02
3.654461e+02,7.357693e+02
3.683388e+02,7.317018e+02
3.712315e+02,7.340593e+02
3.741242e+02,7.364469e+02
3.770169e+02,7.485006e+02
3.799096e+02,7.431253e+02
3.828023e+02,7.278090e+02
3.856950e+02,7.332669e+02
3.885877e+02,7.298586e+02
3.914804e+02,7.211248e+02
3.943731e+02,7.220959e+02
3.972658e+02,7.233132e+02
4.001585e+02,7.242275e+02
4.030512e+02,7.187501e+02
4.059439e+02,7.178352e+02
4.088366e+02,7.154209e+02
4.117293e+02,7.162003e+02
4.146220e+02,7.136784e+02
4.175147e+02,7.124810e+02
4.204074e+02,7.205104e+02
4.233001e+02,7.131096e+02
4.261928e+02,7.135314e+02
4.290855e+02,7.130753e+02
4.319782e+02,7.221503e+02
4.348709e+02,7.200371e+02
4.377636e+02,7.203344e+02
4.406563e+02,7.137454e+02
4.435490e+02,7.056658e+02
4.464417e+02,7.086153e+02
4.493344e+02,7.080820e+02
4.522271e+02,7.105729e+02
4.551198e+02,7.096541e+02
4.580125e+02,7.136400e+02
4.609052e+02,7.071430e+02
4.637979e+02,7.070186e+02
4.666906e+02,7.013274e+02
4.695833e+02,6.949028e+02
4.724760e+02,6.956445e+02
4.753687e+02,6.972116e+02
4.782614e+02,6.931132e+02
4.811541e+02,6.986540e+02
4.840468e+02,6.916145e+02
4.869395e+02,6.888033e+02
4.898322e+02,6.927355e+02
4.927249e+02,6.921870e+02
4.956176e+02,6.888600e+02
4.985103e+02,6.922936e+02
5.014030e+02,6.888976e+02
5.042957e+02,6.862845e+02
5.071884e+02,6.867413e+02
5.100811e+02,6.888174e+02
5.129738e+02,6.959760e+02
5.158665e+02,6.957256e+02
5.187592e+02,6.869393e+02
5.216519e+02,6.799206e+02
5.245446e+02,6.866858e+02
5.274373e+02,6.756008e+02
5.303300e+02,6.772910e+02
5.332227e+02,6.805394e+02
5.361154e+02,6.729982e+02
5.390081e+02,6.752735e+02
5.419008e+02,6.672170e+02
5.447935e+02,6.745215e+02
5.476862e+02,6.748054e+02
5.505789e+02,6.667250e+02
5.534716e+02,6.648441e+02
5.563643e+02,6.734244e+02
5.592570e+02,6.602255e+02
5.621497e+02,6.664049e+02
5.650424e+02,6.623468e+02
5.679351e+02,6.592211e+02
5.708278e+02,6.623493e+02
5.737205e+02,6.602888e+02
5.766132e+02,6.640380e+02
5.795059e+02,6.512866e+02
5.823986e+02,6.568992e+02
5.852913e+02,6.548787e+02
5.881840e+02,6.614300e+02
5.910767e+02,6.596902e+02
5.939694e+02,6.502952e+02
5.968621e+02,6.516212e+02
5.997548e+02,6.537020e+02
6.026475e+02,6.487543e+02
6.055402e+02,6.520255e+02
6.084329e+02,6.528087e+02
6.113256e+02,6.471141e+02
6.142183e+02,6.526191e+02
6.171110e+02,6.536433e+02
6.200037e+02,6.497679e+02
6.228964e+02,6.431526e+02
6.257891e+02,6.459950e+02
6.286818e+02,6.450814e+02
6.315745e+02,6.377258e+02
6.344672e+02,6.366509e+02
6.373599e+02,6.433287e+02
6.402526e+02,6.314693e+02
6.431453e+02,6.301729e+02
6.460380e+02,6.304852e+02
6.489307e+02,6.325085e+02
6.518234e+02,6.303746e+02
6.547161e+02,6.309164e+02
6.576088e+02,6.294694e+02
6.605015e+02,6.325129e+02
6.633942e+02,6.295313e+02
6.662869e+02,6.326287e+02
6.691796e+02,6.302296e+02
6.720723e+02,6.262767e+02
6.749650e+02,6.309744e+02
6.778577e+02,6.302610e+02
6.807504e+02,6.205809e+02
6.836431e+02,6.231700e+02
6.865358e+02,6.213407e+02
6.894285e+02,6.171893e+02
6.923212e+02,6.221617e+02
6.952139e+02,6.176033e+02
6.981066e+02,6.142839e+02
7.009993e+02,6.151593e+02
7.038920e+02,6.184909e+02
7.067847e+02,6.138804e+02
7.096774e+02,6.154186e+02
7.125701e+02,6.096788e+02
7.154628e+02,6.135858e+02
7.183555e+02,6.052709e+02
7.212482e+02,6.039042e+02
7.241409e+02,6.083477e+02
7.270336e+02,6.012027e+02
7.299263e+02,6.068573e+02
7.328190e+02,6.016048e+02
7.357117e+02,6.024811e+02
7.386044e+02,6.000410e+02
7.414971e+02,6.049260e+02
7.443898e+02,6.022050e+02
7.472825e+02,5.955040e+02
7.501752e+02,5.997101e+02
7.530679e+02,6.019260e+02
7.559606e+02,5.953665e+02
7.588533e+02,5.962258e+02
7.617460e+02,5.952564e+02
7.646387e+02,5.952738e+02
7.675314e+02,5.923684e+02
7.704241e+02,5.891469e+02
7.733168e+02,5.850029e+02
7.762095e+02,5.858448e+02
7.791022e+02,5.853250e+02
7.819949e+02,5.873928e+02
7.848876e+02,5.897516e+02
7.877803e+02,5.860773e+02
7.906730e+02,5.920883e+02
7.935657e+02,5.807930e+02
7.964584e+02,5.795333e+02
7.993511e+02,5.820141e+02
8.022438e+02,5.751909e+02
8.051365e+02,5.816576e+02
8.080292e+02,5.828180e+02
8.109219e+02,5.810336e+02
8.138146e+02,5.755221e+02
8.167073e+02,5.746949e+02
8.196000e+02,5.734968e+02
8.224927e+02,5.651814e+02
8.253854e+02,5.704207e+02
8.282781e+02,5.723698e+02
8.311708e+02,5.701449e+02
8.340635e+02,5.661374e+02
8.369562e+02,5.651525e+02
8.398489e+02,5.718914e+02
8.427416e+02,5.710085e+02
8.456343e+02,5.586847e+02
8.485270e+02,5.625811e+02
8.514197e+02,5.582384e+02
8.543124e+02,5.624756e+02
8.572051e+02,5.616501e+02
8.600978e+02,5.585779e+02
8.629905e+02,5.630574e+02
8.658832e+02,5.594045e+02
8.687759e+02,5.611937e+02
8.716686e+02,5.544227e+02
8.745613e+02,5.614191e+02
8.774540e+02,5.596511e+02
8.803467e+02,5.603533e+02
8.832394e+02,5.641011e+02
8.861321e+02,5.641850e+02
8.890248e+02,5.583041e+02
8.919175e+02,5.588206e+02
8.948102e+02,5.563092e+02
8.977029e+02,5.480873e+02
9.005956e+02,5.547599e+02
9.034883e+02,5.542476e+02
9.063810e+02,5.442370e+02
9.092737e+02,5.488286e+02
9.121664e+02,5.501462e+02
9.150591e+02,5.420724e+02
9.179518e+02,5.437959e+02
9.208445e+02,5.363530e+02
9.237372e+02,5.387750e+02
9.266299e+02,5.377748e+02
9.295226e+02,5.450226e+02
9.324153e+02,5.329539e+02
9.353080e+02,5.382682e+02
9.382007e+02,5.298218e+02
9.410934e+02,5.313018e+02
9.439861e+02,5.260832e+02
9.468788e+02,5.367662e+02
9.497715e+02,5.305557e+02
9.526642e+02,5.272292e+02
9.555569e+02,5.275627e+02
9.584496e+02,5.319987e+02
9.613423e+02,5.298882e+02
9.642350e+02,5.360897e+02
9.671277e+02,5.293765e+02
9.700204e+02,5.306326e+02
9.729131e+02,5.235604e+02
9.758058e+02,5.247249e+02
9.786985e+02,5.213356e+02
9.815912e+02,5.217254e+02
9.844839e+02,5.254647e+02
9.873766e+02,5.231432e+02
9.902693e+02,5.218490e+02
9.931620e+02,5.255774e+02
9.960547e+02,5.224161e+02
9.989474e+02,5.217966e+02
1.001840e+03,5.117808e+02
1.004733e+03,5.138682e+02
1.007626e+03,5.188216e+02
1.010518e+03,5.182368e+02
1.013411e+03,5.102169e+02
1.016304e+03,5.127689e+02
1.019196e+03,5.165547e+02
1.022089e+03,5.099765e+02
1.024982e+03,5.100659e+02
1.027875e+03,5.130676e+02
1.030767e+03,5.100542e+02
1.033660e+03,5.095854e+02
1.036552e+03,5.089837e+02
1.039445e+03,5.026749e+02
1.042338e+03,5.103845e+02
1.045231e+03,5.088600e+02
1.048123e+03,5.125931e+02
1.051016e+03,5.077711e+02
1.053909e+03,5.179660e+02
1.056802e+03,5.188084e+02
1.059694e+03,5.223621e+02
1.062587e+03,5.243635e+02
1.065479e+03,5.119342e+02
1.068372e+03,5.074473e+02
1.071265e+03,5.044802e+02
1.074158e+03,5.131164e+02
1.077050e+03,5.134020e+02
1.079943e+03,5.067440e+02
1.082836e+03,5.161835e+02
1.085729e+03,5.194068e+02
1.088621e+03,5.296561e+02
1.091514e+03,5.319308e+02
1.094406e+03,5.378326e+02
1.097299e+03,5.260586e+02
1.100192e+03,5.197490e+02
1.103085e+03,5.097606e+02
1.105977e+03,5.150396e+02
1.108870e+03,5.089019e+02
1.111763e+03,5.131481e+02
1.114656e+03,5.210441e+02
1.117548e+03,5.192449e+02
1.120441e+03,5.163444e+02
1.123334e+03,5.164051e+02
1.126226e+03,5.183345e+02
1.129119e+03,5.166005e+02
1.132012e+03,5.002483e+02
1.134904e+03,5.027502e+02
1.137797e+03,4.925905e+02
1.140690e+03,4.891683e+02
1.143583e+03,4.917136e+02
1.146475e+03,4.892397e+02
1.149368e+03,4.915276e+02
1.152261e+03,4.887910e+02
1.155153e+03,4.890782e+02
1.158046e+03,4.854460e+02
1.160939e+03,4.835623e+02
1.163831e+03,4.803838e+02
1.166724e+03,4.832372e+02
1.169617e+03,4.760706e+02
1.172510e+03,4.786508e+02
1.175402e+03,4.792448e+02
1.178295e+03,4.742238e+02
1.181188e+03,4.774843e+02
1.184080e+03,4.738534e+02
1.186973e+03,4.746545e+02
1.189866e+03,4.735863e+02
1.192758e+03,4.610895e+02
1.195651e+03,4.749649e+02
1.198544e+03,4.729022e+02
1.201437e+03,4.701693e+02
1.204329e+03,4.720561e+02
1.207222e+03,4.661966e+02
1.210115e+03,4.672120e+02
1.213007e+03,4.682057e+02
1.215900e+03,4.690152e+02
1.218793e+03,4.681420e+02
1.221685e+03,4.636106e+02
1.224578e+03,4.671065e+02
1.227471e+03,4.640747e+02
1.230364e+03,4.663940e+02
1.233256e+03,4.607161e+02
1.236149e+03,4.658004e+02
1.239042e+03,4.624759e+02
1.241934e+03,4.654037e+02
1.244827e+03,4.646013e+02
1.247720e+03,4.597716e+02
1.250612e+03,4.619193e+02
1.253505e+03,4.642678e+02
1.256398e+03,4.683563e+02
1.259291e+03,4.609275e+02
1.262183e+03,4.660067e+02
1.265076e+03,4.623825e+02
1.267969e+03,4.612013e+02
1.270861e+03,4.598413e+02
1.273754e+03,4.663458e+02
1.276647e+03,4.598430e+02
1.279539e+03,4.639015e+02
1.282432e+03,4.578962e+02
1.285325e+03,4.640357e+02
1.288218e+03,4.708974e+02
1.291110e+03,4.856732e+02
1.294003e+03,4.829103e+02
1.296896e+03,4.684262e+02
1.299788e+03,4.626884e+02
1.302681e+03,4.670656e+02
1.305574e+03,4.646337e+02
1.308466e+03,4.600287e+02
1.311359e+03,4.583947e+02
1.314252e+03,4.596603e+02
1.317145e+03,4.662288e+02
1.320037e+03,4.568728e+02
1.322930e+03,4.597866e+02
1.325823e+03,4.623313e+02
1.328715e+03,4.638523e+02
1.331608e+03,4.574774e+02
1.334501e+03,4.655116e+02
1.337393e+03,4.609298e+02
1.340286e+03,4.623226e+02
1.343179e+03,4.570071e+02
1.346072e+03,4.618239e+02
1.348964e+03,4.624226e+02
1.351857e+03,4.527732e+02
1.354750e+03,4.532178e+02
1.357642e+03,4.500977e+02
1.360535e+03,4.557423e+02
1.363428e+03,4.561769e+02
1.366320e+03,4.551256e+02
1.369213e+03,4.546468e+02
1.372106e+03,4.577482e+02
1.374999e+03,4.610333e+02
1.377891e+03,4.619376e+02
1.380784e+03,4.597841e+02
1.383677e+03,4.498409e+02
1.386569e+03,4.460678e+02
1.389462e+03,4.470010e+02
1.392355e+03,4.425021e+02
1.395247e+03,4.395758e+02
1.398140e+03,4.436059e+02
1.401033e+03,4.408511e+02
1.403926e+03,4.390277e+02
1.406818e+03,4.411198e+02
1.409711e+03,4.393375e+02
1.412604e+03,4.399653e+02
1.415496e+03,4.438447e+02
1.418389e+03,4.414223e+02
1.421282e+03,4.395309e+02
1.424174e+03,4.414982e+02
1.427067e+03,4.361718e+02
1.429960e+03,4.416449e+02
1.432853e+03,4.413766e+02
1.435745e+03,4.455789e+02
1.438638e+03,4.456087e+02
1.441531e+03,4.438853e+02
1.444423e+03,4.414885e+02
1.447316e+03,4.357337e+02
1.450209e+03,4.340754e+02
1.453101e+03,4.411860e+02
1.455994e+03,4.357674e+02
1.458887e+03,4.403346e+02
1.461780e+03,4.359439e+02
1.464672e+03,4.365713e+02
1.467565e+03,4.357572e+02
1.470458e+03,4.335002e+02
1.473350e+03,4.341602e+02
1.476243e+03,4.347202e+02
1.479136e+03,4.280938e+02
1.482028e+03,4.255164e+02
1.484921e+03,4.205358e+02
1.487814e+03,4.250981e+02
1.490707e+03,4.192367e+02
1.493599e+03,4.212289e+02
1.496492e+03,4.180126e+02
1.499385e+03,4.124323e+02
1.502277e+03,4.205652e+02
1.505170e+03,4.164181e+02
1.508063e+03,4.106908e+02
1.510955e+03,4.174311e+02
1.513848e+03,4.152470e+02
1.516741e+03,4.079211e+02
1.519634e+03,4.149196e+02
1.522526e+03,4.095420e+02
1.525419e+03,4.142421e+02
1.528312e+03,4.116522e+02
1.531204e+03,4.096065e+02
1.534097e+03,4.145644e+02
1.536990e+03,4.122161e+02
1.539882e+03,4.104204e+02
1.542775e+03,4.089665e+02
1.545668e+03,4.042081e+02
1.548561e+03,4.063916e+02
1.551453e+03,4.072252e+02
1.554346e+03,4.037340e+02
1.557239e+03,4.060454e+02
1.560131e+03,4.034854e+02
1.563024e+03,4.089356e+02
1.565917e+03,4.102961e+02
1.568809e+03,4.033185e+02
1.571702e+03,4.031768e+02
1.574595e+03,4.003253e+02
1.577488e+03,4.007802e+02
1.580380e+03,4.005263e+02
1.583273e+03,4.022164e+02
1.586166e+03,4.030992e+02
1.589058e+03,4.002589e+02
1.591951e+03,4.063363e+02
1.594844e+03,3.969639e+02
1.597736e+03,3.994081e+02
1.600629e+03,4.026924e+02
1.603522e+03,4.036257e+02
1.606415e+03,3.952402e+02
1.609307e+03,3.965805e+02
1.612200e+03,3.978183e+02
1.615093e+03,3.956478e+02
1.617985e+03,3.955274e+02
1.620878e+03,3.952345e+02
1.623771e+03,3.899365e+02
1.626663e+03,3.895661e+02
1.629556e+03,3.867772e+02
1.632449e+03,3.854369e+02
1.635342e+03,3.913000e+02
1.638234e+03,3.893479e+02
1.641127e+03,3.881168e+02
1.644020e+03,3.951339e+02
1.646912e+03,3.866972e+02
1.649805e+03,3.904252e+02
1.652698e+03,3.866801e+02
1.655590e+03,3.830869e+02
1.658483e+03,3.873785e+02
1.661376e+03,3.849276e+02
1.664269e+03,3.846055e+02
1.667161e+03,3.855220e+02
1.670054e+03,3.844041e+02
1.672947e+03,3.754576e+02
1.675839e+03,3.755883e+02
1.678732e+03,3.752604e+02
1.681625e+03,3.738750e+02
1.684517e+03,3.771055e+02
1.687410e+03,3.740367e+02
1.690303e+03,3.817361e+02
1.693196e+03,3.740543e+02
1.696088e+03,3.675231e+02
1.698981e+03,3.708214e+02
1.701874e+03,3.760649e+02
1.704766e+03,3.729560e+02
1.707659e+03,3.782131e+02
1.710552e+03,3.710641e+02
1.713444e+03,3.659983e+02
1.716337e+03,3.676875e+02
1.719230e+03,3.683859e+02
1.722123e+03,3.652276e+02
1.725015e+03,3.634355e+02
1.727908e+03,3.684507e+02
1.730801e+03,3.674348e+02
1.733693e+03,3.657606e+02
1.736586e+03,3.597749e+02
1.739479e+03,3.605181e+02
1.742371e+03,3.646519e+02
1.745264e+03,3.724645e+02
1.748157e+03,3.664938e+02
1.751050e+03,3.612631e+02
1.753942e+03,3.600465e+02
1.756835e+03,3.656726e+02
1.759728e+03,3.599225e+02
1.762620e+03,3.513753e+02
1.765513e+03,3.594622e+02
1.768406e+03,3.591284e+02
1.771298e+03,3.541823e+02
1.774191e+03,3.482641e+02
1.777084e+03,3.602359e+02
1.779977e+03,3.507823e+02
1.782869e+03,3.592015e+02
1.785762e+03,3.598335e+02
1.788655e+03,3.469133e+02
1.791547e+03,3.417931e+02
1.794440e+03,3.518274e+02
1.797333e+03,3.490024e+02
1.800225e+03,3.501912e+02
1.803118e+03,3.504189e+02
1.806011e+03,3.414544e+02
1.808904e+03,3.499863e+02
1.811796e+03,3.431391e+02
1.814689e+03,3.446734e+02
1.817582e+03,3.363319e+02
1.820474e+03,3.408710e+02
1.823367e+03,3.412757e+02
1.826260e+03,3.411140e+02
1.829152e+03,3.439035e+02
1.832045e+03,3.468553e+02
1.834938e+03,3.416133e+02
1.837831e+03,3.370805e+02
1.840723e+03,3.422081e+02
1.843616e+03,3.429435e+02
1.846509e+03,3.336565e+02
1.849401e+03,3.304440e+02
1.852294e+03,3.251571e+02
1.855187e+03,3.261988e+02
1.858079e+03,3.354072e+02
1.860972e+03,3.312517e+02
1.863865e+03,3.327606e+02
1.866758e+03,3.319532e+02
1.869650e+03,3.248306e+02
1.872543e+03,3.282065e+02
1.875436e+03,3.293173e+02
1.878328e+03,3.290247e+02
1.881221e+03,3.216981e+02
1.884114e+03,3.267959e+02
1.887006e+03,3.253309e+02
1.889899e+03,3.249371e+02
1.892792e+03,3.251316e+02
1.895685e+03,3.207625e+02
1.898577e+03,3.188548e+02
1.901470e+03,3.156000e+02
1.904363e+03,3.153564e+02
1.907255e+03,3.134606e+02
1.910148e+03,3.251909e+02
1.913041e+03,3.226283e+02
1.915933e+03,3.215952e+02
1.918826e+03,3.226800e+02
1.921719e+03,3.102133e+02
1.924612e+03,3.194204e+02
1.927504e+03,3.085978e+02
1.930397e+03,3.193111e+02
1.933290e+03,3.122372e+02
1.936182e+03,3.107616e+02
1.939075e+03,3.132091e+02
1.941968e+03,3.031288e+02
1.944860e+03,3.068045e+02
1.947753e+03,3.104764e+02
1.950646e+03,3.055541e+02
1.953539e+03,3.082083e+02
1.956431e+03,3.004987e+02
1.959324e+03,3.033380e+02
1.962217e+03,3.105590e+02
1.965109e+03,3.049530e+02
1.968002e+03,3.013869e+02
1.970895e+03,2.980045e+02
1.973787e+03,3.053281e+02
1.976680e+03,2.968585e+02
1.979573e+03,3.031030e+02
1.982466e+03,3.005543e+02
1.985358e+03,2.982468e+02
1.988251e+03,2.982783e+02
1.991144e+03,3.005361e+02
1.994036e+03,3.007128e+02
1.996929e+03,2.973642e+02
1.999822e+03,2.952920e+02
2.002714e+03,2.985211e+02
2.005607e+03,2.934932e+02
2.008500e+03,2.947789e+02
2.011393e+03,2.859039e+02
2.014285e+03,2.983441e+02
2.017178e+03,2.952716e+02
2.020071e+03,2.912778e+02
2.022963e+03,2.901904e+02
2.025856e+03,2.884684e+02
2.028749e+03,2.966352e+02
2.031641e+03,2.790923e+02
2.034534e+03,2.778498e+02
2.037427e+03,2.884156e+02
2.040320e+03,2.870693e+02
2.043212e+03,2.848724e+02
2.046105e+03,2.890857e+02
2.048998e+03,2.834022e+02
2.051890e+03,2.770015e+02
2.054783e+03,2.747997e+02
2.057676e+03,2.865961e+02
2.060568e+03,2.738844e+02
2.063461e+03,2.801786e+02
2.066354e+03,2.788794e+02
2.069247e+03,2.825342e+02
2.072139e+03,2.796963e+02
2.075032e+03,2.738749e+02
2.077925e+03,2.688448e+02
2.080817e+03,2.777101e+02
2.083710e+03,2.627833e+02
2.086603e+03,2.718210e+02
2.089496e+03,2.748065e+02
2.092388e+03,2.694702e+02
2.095281e+03,2.726702e+02
2.098174e+03,2.646265e+02
2.101066e+03,2.709397e+02
2.103959e+03,2.622393e+02
2.106852e+03,2.720379e+02
2.109744e+03,2.667175e+02
2.112637e+03,2.630121e+02
2.115530e+03,2.627398e+02
2.118422e+03,2.529096e+02
2.121315e+03,2.649857e+02
2.124208e+03,2.610641e+02
2.127101e+03,2.608705e+02
2.129993e+03,2.613173e+02
2.132886e+03,2.647775e+02
2.135779e+03,2.607093e+02
2.138671e+03,2.606347e+02
2.141564e+03,2.592439e+02
2.144457e+03,2.556014e+02
2.147350e+03,2.533666e+02
2.150242e+03,2.635942e+02
2.153135e+03,2.528942e+02
2.156028e+03,2.541114e+02
2.158920e+03,2.484161e+02
2.161813e+03,2.503024e+02
2.164706e+03,2.534806e+02
2.167598e+03,2.509597e+02
2.170491e+03,2.551473e+02
2.173384e+03,2.494352e+02
2.176277e+03,2.536206e+02
2.179169e+03,2.479198e+02
2.182062e+03,2.555894e+02
2.184955e+03,2.489326e+02
2.187847e+03,2.506270e+02
2.190740e+03,2.444273e+02
2.193633e+03,2.392282e+02
2.196525e+03,2.482827e+02
2.199418e+03,2.548222e+02
2.202311e+03,2.475089e+02
2.205204e+03,2.415708e+02
2.208096e+03,2.389811e+02
2.210989e+03,2.338814e+02
2.213882e+03,2.409045e+02
2.216774e+03,2.357081e+02
2.219667e+03,2.375988e+02
2.222560e+03,2.354444e+02
2.225452e+03,2.451699e+02
2.228345e+03,2.331203e+02
2.231238e+03,2.439855e+02
2.234131e+03,2.325179e+02
2.237023e+03,2.397857e+02
2.239916e+03,2.320286e+02
2.242809e+03,2.299877e+02
2.245701e+03,2.338955e+02
2.248594e+03,2.288541e+02
2.251487e+03,2.307889e+02
2.254379e+03,2.256445e+02
2.257272e+03,2.330708e+02
2.260165e+03,2.345134e+02
2.263058e+03,2.346557e+02
2.265950e+03,2.313834e+02
2.268843e+03,2.218218e+02
2.271736e+03,2.288137e+02
2.274628e+03,2.273822e+02
2.277521e+03,2.274305e+02
2.280414e+03,2.267692e+02
2.283306e+03,2.281684e+02
2.286199e+03,2.240009e+02
2.289092e+03,2.232683e+02
2.291985e+03,2.227873e+02
2.294877e+03,2.224842e+02
2.297770e+03,2.277739e+02
2.300663e+03,2.244770e+02
2.303555e+03,2.232161e+02
2.306448e+03,2.228679e+02
2.309341e+03,2.210511e+02
2.312233e+03,2.108275e+02
2.315126e+03,2.197036e+02
2.318019e+03,2.126685e+02
2.320912e+03,2.153335e+02
2.323804e+03,2.156536e+02
2.326697e+03,2.158884e+02
2.329590e+03,2.190004e+02
2.332482e+03,2.188795e+02
2.335375e+03,2.144765e+02
2.338268e+03,2.149855e+02
2.341160e+03,2.181249e+02
2.344053e+03,2.182163e+02
2.346946e+03,2.107335e+02
2.349839e+03,2.123967e+02
2.352731e+03,2.177023e+02
2.355624e+03,2.077485e+02
2.358517e+03,2.181056e+02
2.361409e+03,2.170486e+02
2.364302e+03,2.110591e+02
2.367195e+03,2.060218e+02
2.370087e+03,2.137322e+02
2.372980e+03,2.111578e+02
2.375873e+03,2.096739e+02
2.378766e+03,2.144900e+02
2.381658e+03,2.053611e+02
2.384551e+03,2.036848e+02
2.387444e+03,2.036627e+02
2.390336e+03,2.020030e+02
2.393229e+03,2.002454e+02
2.396122e+03,2.014842e+02
2.399014e+03,1.980856e+02
2.401907e+03,2.062639e+02
2.404800e+03,2.044949e+02
2.407693e+03,2.027958e+02
2.410585e+03,1.931079e+02
2.413478e+03,1.955511e+02
2.416371e+03,1.961447e+02
2.419263e+03,1.962588e+02
2.422156e+03,2.026650e+02
2.425049e+03,1.874285e+02
2.427941e+03,1.960585e+02
2.430834e+03,1.958744e+02
2.433727e+03,1.938599e+02
2.436620e+03,1.952059e+02
2.439512e+03,1.862944e+02
2.442405e+03,1.892664e+02
2.445298e+03,1.974887e+02
2.448190e+03,1.853917e+02
2.451083e+03,1.993222e+02
2.453976e+03,1.901404e+02
2.456868e+03,1.889883e+02
2.459761e+03,1.899567e+02
2.462654e+03,1.904016e+02
2.465547e+03,1.935609e+02
2.468439e+03,1.857899e+02
2.471332e+03,1.925140e+02
2.474225e+03,1.859504e+02
2.477117e+03,1.938017e+02
2.480010e+03,1.997245e+02
2.482903e+03,1.857894e+02
2.485795e+03,1.911869e+02
2.488688e+03,1.919294e+02
2.491581e+03,1.878083e+02
2.494474e+03,1.843814e+02
2.497366e+03,1.885098e+02
2.500259e+03,1.814361e+02
2.503152e+03,1.878501e+02
2.506044e+03,1.867538e+02
2.508937e+03,1.873275e+02
2.511830e+03,1.859980e+02
2.514722e+03,1.850866e+02
2.517615e+03,1.827032e+02
2.520508e+03,1.866600e+02
2.523401e+03,1.863470e+02
2.526293e+03,1.872839e+02
2.529186e+03,1.739497e+02
2.532079e+03,1.813938e+02
2.534971e+03,1.808215e+02
2.537864e+03,1.759456e+02
2.540757e+03,1.821421e+02
2.543649e+03,1.825220e+02
2.546542e+03,1.854878e+02
2.549435e+03,1.859212e+02
2.552328e+03,1.853389e+02
2.555220e+03,1.865494e+02
2.558113e+03,1.916178e+02
2.561006e+03,1.841047e+02
2.563898e+03,1.915105e+02
2.566791e+03,1.833767e+02
2.569684e+03,1.834533e+02
2.572576e+03,1.875277e+02
2.575469e+03,1.804378e+02
2.578362e+03,1.825432e+02
2.581255e+03,1.811230e+02
2.584147e+03,1.826457e+02
2.587040e+03,1.709113e+02
2.589933e+03,1.833078e+02
2.592825e+03,1.752226e+02
2.595718e+03,1.763460e+02
2.598611e+03,1.751004e+02
2.601503e+03,1.812072e+02
2.604396e+03,1.688621e+02
2.607289e+03,1.766982e+02
2.610182e+03,1.708640e+02
2.613074e+03,1.706128e+02
2.615967e+03,1.711730e+02
2.618860e+03,1.664144e+02
2.621752e+03,1.728157e+02
2.624645e+03,1.720495e+02
2.627538e+03,1.744440e+02
2.630430e+03,1.732242e+02
2.633323e+03,1.790317e+02
2.636216e+03,1.616579e+02
2.639109e+03,1.688988e+02
2.642001e+03,1.700685e+02
2.644894e+03,1.690430e+02
2.647787e+03,1.649930e+02
2.650679e+03,1.704724e+02
2.653572e+03,1.749201e+02
2.656465e+03,1.728331e+02
2.659357e+03,1.683759e+02
2.662250e+03,1.713900e+02
2.665143e+03,1.707624e+02
2.668036e+03,1.725825e+02
2.670928e+03,1.758556e+02
2.673821e+03,1.718605e+02
2.676714e+03,1.722606e+02
2.679606e+03,1.724254e+02
2.682499e+03,1.698264e+02
2.685392e+03,1.637255e+02
2.688284e+03,1.677118e+02
2.691177e+03,1.669071e+02
2.694070e+03,1.611678e+02
2.696963e+03,1.690494e+02
2.699855e+03,1.633388e+02
2.702748e+03,1.774977e+02
2.705641e+03,1.673018e+02
2.708533e+03,1.724622e+02
2.711426e+03,1.642896e+02
2.714319e+03,1.726338e+02
2.717211e+03,1.711759e+02
2.720104e+03,1.718459e+02
2.722997e+03,1.672374e+02
2.725890e+03,1.612897e+02
2.728782e+03,1.704041e+02
2.731675e+03,1.576914e+02
2.734568e+03,1.702969e+02
2.737460e+03,1.664164e+02
2.740353e+03,1.661333e+02
2.743246e+03,1.563094e+02
2.746138e+03,1.606075e+02
2.749031e+03,1.653811e+02
2.751924e+03,1.664776e+02
2.754817e+03,1.578221e+02
2.757709e+03,1.650286e+02
2.760602e+03,1.615350e+02
2.763495e+03,1.626281e+02
2.766387e+03,1.648969e+02
2.769280e+03,1.657941e+02
2.772173e+03,1.659979e+02
2.775065e+03,1.525014e+02
2.777958e+03,1.614817e+02
2.780851e+03,1.636607e+02
2.783744e+03,1.681202e+02
2.786636e+03,1.583479e+02
2.789529e+03,1.549357e+02
2.792422e+03,1.684348e+02
2.795314e+03,1.557951e+02
2.798207e+03,1.558520e+02
2.801100e+03,1.597227e+02
2.803992e+03,1.662445e+02
2.806885e+03,1.554335e+02
2.809778e+03,1.623863e+02
2.812671e+03,1.556793e+02
2.815563e+03,1.570398e+02
2.818456e+03,1.536134e+02
2.821349e+03,1.671237e+02
2.824241e+03,1.559036e+02
2.827134e+03,1.618592e+02
2.830027e+03,1.822804e+02
2.832919e+03,1.759169e+02
2.835812e+03,1.755659e+02
2.838705e+03,1.999133e+02
2.841598e+03,2.053979e+02
2.844490e+03,2.083985e+02
2.847383e+03,2.195665e+02
2.850276e+03,2.172969e+02
2.853168e+03,2.217824e+02
2.856061e+03,2.128515e+02
2.858954e+03,2.036930e+02
2.861846e+03,2.016459e+02
2.864739e+03,1.971674e+02
2.867632e+03,2.034885e+02
2.870525e+03,2.125833e+02
2.873417e+03,2.187621e+02
2.876310e+03,2.365959e+02
2.879203e+03,2.467396e+02
2.882095e+03,2.506557e+02
2.884988e+03,2.296440e+02
2.887881e+03,2.321426e+02
2.890773e+03,2.216735e+02
2.893666e+03,2.085826e+02
2.896559e+03,2.153450e+02
2.899452e+03,2.337051e+02
2.902344e+03,2.135004e+02
2.905237e+03,2.110820e+02
2.908130e+03,1.972770e+02
2.911022e+03,2.115100e+02
2.913915e+03,1.961919e+02
2.916808e+03,2.030967e+02
2.919700e+03,1.921726e+02
2.922593e+03,1.856656e+02
2.925486e+03,2.027417e+02
2.928379e+03,1.859473e+02
2.931271e+03,1.914523e+02
2.934164e+03,1.877110e+02
2.937057e+03,1.746001e+02
2.939949e+03,1.706266e+02
2.942842e+03,1.689388e+02
2.945735e+03,1.919839e+02
2.948627e+03,1.711792e+02
2.951520e+03,1.784911e+02
2.954413e+03,1.674608e+02
2.957306e+03,2.059873e+02
2.960198e+03,1.843716e+02
2.963091e+03,1.608969e+02
2.965984e+03,1.588283e+02
2.968876e+03,1.600454e+02
2.971769e+03,1.605137e+02
2.974662e+03,1.651585e+02
2.977554e+03,1.431665e+02
2.980447e+03,1.420648e+02
2.983340e+03,1.585301e+02
2.986233e+03,1.449470e+02
2.989125e+03,1.562059e+02
2.992018e+03,1.680172e+02
2.994911e+03,1.612707e+02
2.997803e+03,1.440414e+02
3.000696e+03,1.545499e+02
3.003589e+03,1.599094e+02
3.006481e+03,1.696165e+02
3.009374e+03,1.408765e+02
3.012267e+03,1.626617e+02
3.015160e+03,1.619676e+02
3.018052e+03,1.402028e+02
3.020945e+03,1.508784e+02
3.023838e+03,1.343468e+02
3.026730e+03,1.432955e+02
3.029623e+03,1.456545e+02
3.032516e+03,1.414938e+02
3.035408e+03,1.179658e+02
3.038301e+03,1.550707e+02
3.041194e+03,1.286617e+02
3.044087e+03,1.212588e+02
3.046979e+03,1.449061e+02
3.049872e+03,1.518453e+02
3.052765e+03,1.424576e+02
3.055657e+03,1.347977e+02
3.058550e+03,1.557318e+02
3.061443e+03,1.541260e+02
3.064335e+03,1.381990e+02
3.067228e+03,1.390389e+02
3.070121e+03,1.454626e+02
3.073014e+03,1.393567e+02
3.075906e+03,1.601453e+02
3.078799e+03,1.523634e+02
3.081692e+03,1.457098e+02
3.084584e+03,1.355591e+02
3.087477e+03,1.446913e+02
3.090370e+03,1.636833e+02
3.093262e+03,1.322188e+02
3.096155e+03,1.339896e+02
3.099048e+03,1.419713e+02
3.101941e+03,1.377271e+02
3.104833e+03,1.350134e+02
3.107726e+03,1.577254e+02
3.110619e+03,1.587423e+02
3.113511e+03,1.491010e+02
3.116404e+03,1.485685e+02
3.119297e+03,1.613535e+02
3.122189e+03,1.552969e+02
3.125082e+03,1.580056e+02
3.127975e+03,1.559826e+02
3.130868e+03,1.603283e+02
3.133760e+03,1.685270e+02
3.136653e+03,1.386359e+02
3.139546e+03,1.444074e+02
3.142438e+03,1.539324e+02
3.145331e+03,1.344750e+02
3.148224e+03,1.535519e+02
3.151116e+03,1.436512e+02
3.154009e+03,1.833983e+02
3.156902e+03,1.655195e+02
3.159795e+03,1.421819e+02
3.162687e+03,1.573583e+02
3.165580e+03,1.626804e+02
3.168473e+03,1.716843e+02
3.171365e+03,1.553419e+02
3.174258e+03,1.605683e+02
3.177151e+03,1.554987e+02
3.180043e+03,1.687491e+02
3.182936e+03,1.809603e+02
3.185829e+03,1.678858e+02
3.188722e+03,1.507888e+02
3.191614e+03,1.546193e+02
3.194507e+03,1.725316e+02
3.197400e+03,1.484984e+02
3.200292e+03,1.588963e+02
3.203185e+03,0.000000e+00
3.206078e+03,0.000000e+00
3.208970e+03,0.000000e+00
3.211863e+03,0.000000e+00
3.214756e+03,0.000000e+00
3.217649e+03,0.000000e+00
3.220541e+03,0.000000e+00
3.223434e+03,0.000000e+00
3.226327e+03,0.000000e+00
3.229219e+03,0.000000e+00
3.232112e+03,0.000000e+00
3.235005e+03,0.000000e+00
3.237897e+03,0.000000e+00
3.240790e+03,0.000000e+00
3.243683e+03,0.000000e+00
3.246576e+03,0.000000e+00
3.249468e+03,0.000000e+00
3.252361e+03,0.000000e+00
3.255254e+03,0.000000e+00
3.258146e+03,0.000000e+00
3.261039e+03,0.000000e+00
3.263932e+03,0.000000e+00
3.266824e+03,0.000000e+00
3.269717e+03,0.000000e+00
3.272610e+03,0.000000e+00
3.275503e+03,0.000000e+00
3.278395e+03,0.000000e+00
3.281288e+03,0.000000e+00
3.284181e+03,0.000000e+00
3.287073e+03,0.000000e+00
3.289966e+03,0.000000e+00
3.292859e+03,0.000000e+00
3.295751e+03,0.000000e+00
3.298644e+03,0.000000e+00
3.301537e+03,0.000000e+00
3.304430e+03,0.000000e+00
3.307322e+03,0.000000e+00
3.310215e+03,0.000000e+00
3.313108e+03,0.000000e+00
3.316000e+03,0.000000e+00
3.318893e+03,0.000000e+00
3.321786e+03,0.000000e+00
3.324678e+03,0.000000e+00
3.327571e+03,0.000000e+00
3.330464e+03,0.000000e+00
3.333357e+03,0.000000e+00
3.336249e+03,0.000000e+00
3.339142e+03,0.000000e+00
3.342035e+03,0.000000e+00
3.344927e+03,0.000000e+00
3.347820e+03,0.000000e+00
3.350713e+03,0.000000e+00
3.353605e+03,0.000000e+00
3.356498e+03,0.000000e+00
3.359391e+03,0.000000e+00
3.362284e+03,0.000000e+00
3.365176e+03,0.000000e+00
3.368069e+03,0.000000e+00
3.370962e+03,0.000000e+00
3.373854e+03,0.000000e+00
3.376747e+03,0.000000e+00
3.379640e+03,0.000000e+00
3.382532e+03,0.000000e+00
3.385425e+03,0.000000e+00
3.388318e+03,0.000000e+00
3.391211e+03,0.000000e+00
3.394103e+03,0.000000e+00
3.396996e+03,0.000000e+00
3.399889e+03,0.000000e+00
3.402781e+03,0.000000e+00
3.405674e+03,0.000000e+00
3.408567e+03,0.000000e+00
3.411459e+03,0.000000e+00
3.414352e+03,0.000000e+00
3.417245e+03,0.000000e+00
3.420138e+03,0.000000e+00
3.423030e+03,0.000000e+00
3.425923e+03,0.000000e+00
3.428816e+03,0.000000e+00
3.431708e+03,0.000000e+00
3.434601e+03,0.000000e+00
3.437494e+03,0.000000e+00
3.440386e+03,0.000000e+00
3.443279e+03,0.000000e+00
3.446172e+03,0.000000e+00
3.449065e+03,0.000000e+00
3.451957e+03,0.000000e+00
3.454850e+03,0.000000e+00
3.457743e+03,0.000000e+00
3.460635e+03,0.000000e+00
3.463528e+03,0.000000e+00
3.466421e+03,0.000000e+00
3.469313e+03,0.000000e+00
3.472206e+03,0.000000e+00
3.475099e+03,0.000000e+00
3.477992e+03,0.000000e+00
3.480884e+03,0.000000e+00
3.483777e+03,0.000000e+00
3.486670e+03,0.000000e+00
3.489563e+03,0.000000e+00
3.492455e+03,0.000000e+00
3.495348e+03,0.000000e+00
3.498240e+03,0.000000e+00
3.500169e+03,0.000000e+00