File: RAMAN_data/14032024_r1/red fibre4.CSV
9.931763e+01,0.000000e+00
1.022103e+02,0.000000e+00
1.051030e+02,0.000000e+00
1.079957e+02,0.000000e+00
1.108884e+02,0.000000e+00
1.137811e+02,0.000000e+00
1.166738e+02,0.000000e+00
1.195665e+02,0.000000e+00
1.224592e+02,0.000000e+00
1.253519e+02,0.000000e+00
1.282446e+02,0.000000e+00
1.311373e+02,0.000000e+00
1.340300e+02,0.000000e+00
1.369227e+02,0.000000e+00
1.398154e+02,0.000000e+00
1.427081e+02,0.000000e+00
1.456008e+02,0.000000e+00
1.484935e+02,0.000000e+00
1.513862e+02,0.000000e+00
1.542789e+02,0.000000e+00
1.571716e+02,0.000000e+00
1.600643e+02,0.000000e+00
1.629570e+02,0.000000e+00
1.658497e+02,0.000000e+00
1.687424e+02,0.000000e+00
1.716351e+02,0.000000e+00
1.745278e+02,0.000000e+00
1.774205e+02,0.000000e+00
1.803132e+02,0.000000e+00
1.832059e+02,0.000000e+00
1.860986e+02,0.000000e+00
1.889913e+02,0.000000e+00
1.918840e+02,0.000000e+00
1.947767e+02,0.000000e+00
1.976694e+02,0.000000e+00
2.005621e+02,5.692327e+02
2.034548e+02,5.656247e+02
2.063475e+02,5.702156e+02
2.092402e+02,5.674492e+02
2.121329e+02,5.622958e+02
2.150256e+02,5.670710e+02
2.179183e+02,5.675593e+02
2.208110e+02,5.747554e+02
2.237037e+02,5.704015e+02
2.265964e+02,5.633766e+02
2.294892e+02,5.654889e+02
2.323819e+02,5.675328e+02
2.352746e+02,5.724110e+02
2.381673e+02,5.676959e+02
2.410600e+02,5.658259e+02
2.439527e+02,5.622470e+02
2.468454e+02,5.697607e+02
2.497381e+02,5.731326e+02
2.526308e+02,5.673118e+02
2.555235e+02,5.726661e+02
2.584161e+02,5.678433e+02
2.613088e+02,5.636104e+02
2.642015e+02,5.649401e+02
2.670942e+02,5.666619e+02
2.699869e+02,5.699388e+02
2.728796e+02,5.685130e+02
2.757723e+02,5.698006e+02
2.786650e+02,5.622985e+02
2.815577e+02,5.639417e+02
2.844504e+02,5.660400e+02
2.873431e+02,5.607137e+02
2.902358e+02,5.605521e+02
2.931285e+02,5.669739e+02
2.960212e+02,5.610844e+02
2.989139e+02,5.700544e+02
3.018066e+02,5.754309e+02
3.046993e+02,5.699887e+02
3.075920e+02,5.703930e+02
3.104847e+02,5.716288e+02
3.133774e+02,5.734183e+02
3.162701e+02,5.723543e+02
3.191628e+02,5.752657e+02
3.220555e+02,5.752391e+02
3.249482e+02,5.765530e+02
3.278409e+02,5.823681e+02
3.307336e+02,5.740078e+02
3.336263e+02,5.747343e+02
3.365190e+02,5.797190e+02
3.394117e+02,5.774349e+02
3.423044e+02,5.799474e+02
3.451971e+02,5.829088e+02
3.480898e+02,5.794214e+02
3.509825e+02,5.792182e+02
3.538752e+02,5.770094e+02
3.567680e+02,5.794338e+02
3.596607e+02,5.795245e+02
3.625534e+02,5.836669e+02
3.654461e+02,5.776561e+02
3.683388e+02,5.701653e+02
3.712315e+02,5.813791e+02
3.741242e+02,5.957048e+02
3.770169e+02,6.057929e+02
3.799096e+02,6.020333e+02
3.828023e+02,5.858068e+02
3.856950e+02,5.791276e+02
3.885877e+02,5.712808e+02
3.914804e+02,5.619877e+02
3.943731e+02,5.610455e+02
3.972658e+02,5.601041e+02
4.001585e+02,5.598864e+02
4.030512e+02,5.576375e+02
4.059439e+02,5.584463e+02
4.088366e+02,5.578823e+02
4.117293e+02,5.584935e+02
4.146220e+02,5.585238e+02
4.175147e+02,5.625909e+02
4.204074e+02,5.610469e+02
4.233001e+02,5.645517e+02
4.261928e+02,5.691107e+02
4.290855e+02,5.622682e+02
4.319782e+02,5.735724e+02
4.348709e+02,5.796874e+02
4.377636e+02,5.766125e+02
4.406563e+02,5.655658e+02
4.435490e+02,5.634945e+02
4.464417e+02,5.627191e+02
4.493344e+02,5.602007e+02
4.522271e+02,5.650242e+02
4.551198e+02,5.706987e+02
4.580125e+02,5.687549e+02
4.609052e+02,5.589368e+02
4.637979e+02,5.540344e+02
4.666906e+02,5.492482e+02
4.695833e+02,5.494297e+02
4.724760e+02,5.445180e+02
4.753687e+02,5.525450e+02
4.782614e+02,5.484648e+02
4.811541e+02,5.516215e+02
4.840468e+02,5.506028e+02
4.869395e+02,5.475022e+02
4.898322e+02,5.538870e+02
4.927249e+02,5.485240e+02
4.956176e+02,5.407064e+02
4.985103e+02,5.483807e+02
5.014030e+02,5.489998e+02
5.042957e+02,5.439345e+02
5.071884e+02,5.459060e+02
5.100811e+02,5.489553e+02
5.129738e+02,5.489739e+02
5.158665e+02,5.558129e+02
5.187592e+02,5.559575e+02
5.216519e+02,5.439784e+02
5.245446e+02,5.407473e+02
5.274373e+02,5.365584e+02
5.303300e+02,5.401482e+02
5.332227e+02,5.409495e+02
5.361154e+02,5.317988e+02
5.390081e+02,5.355330e+02
5.419008e+02,5.405708e+02
5.447935e+02,5.374296e+02
5.476862e+02,5.372715e+02
5.505789e+02,5.403197e+02
5.534716e+02,5.337432e+02
5.563643e+02,5.332484e+02
5.592570e+02,5.362679e+02
5.621497e+02,5.383333e+02
5.650424e+02,5.361004e+02
5.679351e+02,5.290524e+02
5.708278e+02,5.274092e+02
5.737205e+02,5.307057e+02
5.766132e+02,5.323267e+02
5.795059e+02,5.371050e+02
5.823986e+02,5.318649e+02
5.852913e+02,5.311332e+02
5.881840e+02,5.265675e+02
5.910767e+02,5.350790e+02
5.939694e+02,5.285715e+02
5.968621e+02,5.267993e+02
5.997548e+02,5.365866e+02
6.026475e+02,5.302169e+02
6.055402e+02,5.311685e+02
6.084329e+02,5.233503e+02
6.113256e+02,5.247439e+02
6.142183e+02,5.229461e+02
6.171110e+02,5.273079e+02
6.200037e+02,5.240621e+02
6.228964e+02,5.201950e+02
6.257891e+02,5.256136e+02
6.286818e+02,5.168333e+02
6.315745e+02,5.245161e+02
6.344672e+02,5.243245e+02
6.373599e+02,5.193249e+02
6.402526e+02,5.169994e+02
6.431453e+02,5.203776e+02
6.460380e+02,5.147181e+02
6.489307e+02,5.167964e+02
6.518234e+02,5.129202e+02
6.547161e+02,5.125967e+02
6.576088e+02,5.157977e+02
6.605015e+02,5.146397e+02
6.633942e+02,5.089743e+02
6.662869e+02,5.100196e+02
6.691796e+02,5.104624e+02
6.720723e+02,5.100776e+02
6.749650e+02,5.104612e+02
6.778577e+02,5.063561e+02
6.807504e+02,5.116418e+02
6.836431e+02,5.085899e+02
6.865358e+02,5.097832e+02
6.894285e+02,5.061248e+02
6.923212e+02,5.107237e+02
6.952139e+02,5.108157e+02
6.981066e+02,5.142513e+02
7.009993e+02,5.025644e+02
7.038920e+02,5.061361e+02
7.067847e+02,5.051917e+02
7.096774e+02,5.039270e+02
7.125701e+02,5.115582e+02
7.154628e+02,5.037928e+02
7.183555e+02,5.053384e+02
7.212482e+02,5.039381e+02
7.241409e+02,5.016089e+02
7.270336e+02,5.049732e+02
7.299263e+02,5.004767e+02
7.328190e+02,4.925377e+02
7.357117e+02,5.007632e+02
7.386044e+02,4.961589e+02
7.414971e+02,4.976406e+02
7.443898e+02,4.987296e+02
7.472825e+02,4.942416e+02
7.501752e+02,4.971021e+02
7.530679e+02,4.925772e+02
7.559606e+02,4.960273e+02
7.588533e+02,4.914087e+02
7.617460e+02,4.945370e+02
7.646387e+02,4.954903e+02
7.675314e+02,4.993525e+02
7.704241e+02,4.906307e+02
7.733168e+02,4.921177e+02
7.762095e+02,4.866078e+02
7.791022e+02,4.897053e+02
7.819949e+02,4.941561e+02
7.848876e+02,4.910588e+02
7.877803e+02,4.925756e+02
7.906730e+02,4.857187e+02
7.935657e+02,4.848351e+02
7.964584e+02,4.878538e+02
7.993511e+02,4.951877e+02
8.022438e+02,4.850190e+02
8.051365e+02,4.847672e+02
8.080292e+02,4.790244e+02
8.109219e+02,4.783732e+02
8.138146e+02,4.844464e+02
8.167073e+02,4.809833e+02
8.196000e+02,4.821200e+02
8.224927e+02,4.833481e+02
8.253854e+02,4.782021e+02
8.282781e+02,4.837325e+02
8.311708e+02,4.774102e+02
8.340635e+02,4.771550e+02
8.369562e+02,4.776768e+02
8.398489e+02,4.742609e+02
8.427416e+02,4.785363e+02
8.456343e+02,4.806224e+02
8.485270e+02,4.754585e+02
8.514197e+02,4.737537e+02
8.543124e+02,4.763183e+02
8.572051e+02,4.734616e+02
8.600978e+02,4.759814e+02
8.629905e+02,4.733571e+02
8.658832e+02,4.706565e+02
8.687759e+02,4.781960e+02
8.716686e+02,4.800081e+02
8.745613e+02,4.774121e+02
8.774540e+02,4.780372e+02
8.803467e+02,4.811029e+02
8.832394e+02,4.861546e+02
8.861321e+02,4.840599e+02
8.890248e+02,4.804282e+02
8.919175e+02,4.775257e+02
8.948102e+02,4.726756e+02
8.977029e+02,4.768314e+02
9.005956e+02,4.756865e+02
9.034883e+02,4.763065e+02
9.063810e+02,4.734007e+02
9.092737e+02,4.752654e+02
9.121664e+02,4.665255e+02
9.150591e+02,4.687451e+02
9.179518e+02,4.687534e+02
9.208445e+02,4.720731e+02
9.237372e+02,4.683098e+02
9.266299e+02,4.621066e+02
9.295226e+02,4.579987e+02
9.324153e+02,4.634533e+02
9.353080e+02,4.634717e+02
9.382007e+02,4.569961e+02
9.410934e+02,4.611396e+02
9.439861e+02,4.597886e+02
9.468788e+02,4.549957e+02
9.497715e+02,4.544952e+02
9.526642e+02,4.616536e+02
9.555569e+02,4.614793e+02
9.584496e+02,4.598788e+02
9.613423e+02,4.612827e+02
9.642350e+02,4.566673e+02
9.671277e+02,4.529086e+02
9.700204e+02,4.563285e+02
9.729131e+02,4.611556e+02
9.758058e+02,4.540690e+02
9.786985e+02,4.512413e+02
9.815912e+02,4.488670e+02
9.844839e+02,4.578733e+02
9.873766e+02,4.548113e+02
9.902693e+02,4.532395e+02
9.931620e+02,4.566728e+02
9.960547e+02,4.594217e+02
9.989474e+02,4.551820e+02
1.001840e+03,4.489336e+02
1.004733e+03,4.465170e+02
1.007626e+03,4.475252e+02
1.010518e+03,4.445699e+02
1.013411e+03,4.465995e+02
1.016304e+03,4.404408e+02
1.019196e+03,4.510476e+02
1.022089e+03,4.479720e+02
1.024982e+03,4.509478e+02
1.027875e+03,4.442684e+02
1.030767e+03,4.486616e+02
1.033660e+03,4.565354e+02
1.036552e+03,4.491869e+02
1.039445e+03,4.545614e+02
1.042338e+03,4.513070e+02
1.045231e+03,4.463147e+02
1.048123e+03,4.486832e+02
1.051016e+03,4.546574e+02
1.053909e+03,4.482669e+02
1.056802e+03,4.522177e+02
1.059694e+03,4.504999e+02
1.062587e+03,4.516838e+02
1.065479e+03,4.514280e+02
1.068372e+03,4.497057e+02
1.071265e+03,4.522054e+02
1.074158e+03,4.493015e+02
1.077050e+03,4.506526e+02
1.079943e+03,4.542229e+02
1.082836e+03,4.606079e+02
1.085729e+03,4.669841e+02
1.088621e+03,4.806052e+02
1.091514e+03,4.928615e+02
1.094406e+03,4.996159e+02
1.097299e+03,4.864023e+02
1.100192e+03,4.752659e+02
1.103085e+03,4.686059e+02
1.105977e+03,4.651898e+02
1.108870e+03,4.641606e+02
1.111763e+03,4.613415e+02
1.114656e+03,4.711011e+02
1.117548e+03,4.779766e+02
1.120441e+03,4.777889e+02
1.123334e+03,4.671313e+02
1.126226e+03,4.654048e+02
1.129119e+03,4.530685e+02
1.132012e+03,4.488813e+02
1.134904e+03,4.465985e+02
1.137797e+03,4.374666e+02
1.140690e+03,4.386619e+02
1.143583e+03,4.376353e+02
1.146475e+03,4.410431e+02
1.149368e+03,4.415755e+02
1.152261e+03,4.418980e+02
1.155153e+03,4.394785e+02
1.158046e+03,4.285193e+02
1.160939e+03,4.258654e+02
1.163831e+03,4.263971e+02
1.166724e+03,4.195313e+02
1.169617e+03,4.253978e+02
1.172510e+03,4.178315e+02
1.175402e+03,4.202670e+02
1.178295e+03,4.192011e+02
1.181188e+03,4.187985e+02
1.184080e+03,4.161024e+02
1.186973e+03,4.116999e+02
1.189866e+03,4.120450e+02
1.192758e+03,4.113370e+02
1.195651e+03,4.167474e+02
1.198544e+03,4.148325e+02
1.201437e+03,4.142657e+02
1.204329e+03,4.096804e+02
1.207222e+03,4.131696e+02
1.210115e+03,4.085563e+02
1.213007e+03,4.119995e+02
1.215900e+03,4.093458e+02
1.218793e+03,4.116909e+02
1.221685e+03,4.062992e+02
1.224578e+03,4.099871e+02
1.227471e+03,4.124375e+02
1.230364e+03,4.099892e+02
1.233256e+03,4.142911e+02
1.236149e+03,4.119103e+02
1.239042e+03,4.130407e+02
1.241934e+03,4.076255e+02
1.244827e+03,4.096267e+02
1.247720e+03,4.088072e+02
1.250612e+03,4.065614e+02
1.253505e+03,4.022609e+02
1.256398e+03,4.071317e+02
1.259291e+03,4.093382e+02
1.262183e+03,4.102752e+02
1.265076e+03,4.083920e+02
1.267969e+03,4.025580e+02
1.270861e+03,4.110385e+02
1.273754e+03,4.133597e+02
1.276647e+03,4.110273e+02
1.279539e+03,4.076703e+02
1.282432e+03,4.102488e+02
1.285325e+03,4.158370e+02
1.288218e+03,4.116499e+02
1.291110e+03,4.169800e+02
1.294003e+03,4.086062e+02
1.296896e+03,4.077664e+02
1.299788e+03,4.034817e+02
1.302681e+03,4.078510e+02
1.305574e+03,4.061090e+02
1.308466e+03,4.010233e+02
1.311359e+03,4.142801e+02
1.314252e+03,4.111969e+02
1.317145e+03,4.126602e+02
1.320037e+03,4.153781e+02
1.322930e+03,4.167238e+02
1.325823e+03,4.095214e+02
1.328715e+03,4.110225e+02
1.331608e+03,4.142391e+02
1.334501e+03,4.152910e+02
1.337393e+03,4.129381e+02
1.340286e+03,4.167850e+02
1.343179e+03,4.128666e+02
1.346072e+03,4.095577e+02
1.348964e+03,4.154952e+02
1.351857e+03,4.106604e+02
1.354750e+03,4.076390e+02
1.357642e+03,4.078734e+02
1.360535e+03,4.081393e+02
1.363428e+03,4.123385e+02
1.366320e+03,4.121563e+02
1.369213e+03,4.196880e+02
1.372106e+03,4.160345e+02
1.374999e+03,4.174931e+02
1.377891e+03,4.238248e+02
1.380784e+03,4.130394e+02
1.383677e+03,4.107109e+02
1.386569e+03,4.038248e+02
1.389462e+03,3.990102e+02
1.392355e+03,3.990381e+02
1.395247e+03,3.911614e+02
1.398140e+03,3.922665e+02
1.401033e+03,3.939698e+02
1.403926e+03,3.890363e+02
1.406818e+03,3.914423e+02
1.409711e+03,3.904419e+02
1.412604e+03,3.957235e+02
1.415496e+03,3.882389e+02
1.418389e+03,3.877520e+02
1.421282e+03,3.887049e+02
1.424174e+03,3.844870e+02
1.427067e+03,3.838412e+02
1.429960e+03,3.851572e+02
1.432853e+03,3.841503e+02
1.435745e+03,3.878449e+02
1.438638e+03,3.852420e+02
1.441531e+03,3.837945e+02
1.444423e+03,3.796748e+02
1.447316e+03,3.778117e+02
1.450209e+03,3.775944e+02
1.453101e+03,3.842535e+02
1.455994e+03,3.862946e+02
1.458887e+03,3.851830e+02
1.461780e+03,3.800431e+02
1.464672e+03,3.802339e+02
1.467565e+03,3.832237e+02
1.470458e+03,3.832520e+02
1.473350e+03,3.829291e+02
1.476243e+03,3.791231e+02
1.479136e+03,3.779102e+02
1.482028e+03,3.792884e+02
1.484921e+03,3.738865e+02
1.487814e+03,3.696930e+02
1.490707e+03,3.711357e+02
1.493599e+03,3.645723e+02
1.496492e+03,3.719261e+02
1.499385e+03,3.616053e+02
1.502277e+03,3.632656e+02
1.505170e+03,3.678698e+02
1.508063e+03,3.624064e+02
1.510955e+03,3.633934e+02
1.513848e+03,3.594936e+02
1.516741e+03,3.644448e+02
1.519634e+03,3.642165e+02
1.522526e+03,3.603452e+02
1.525419e+03,3.590427e+02
1.528312e+03,3.570710e+02
1.531204e+03,3.543389e+02
1.534097e+03,3.601525e+02
1.536990e+03,3.581482e+02
1.539882e+03,3.538285e+02
1.542775e+03,3.543387e+02
1.545668e+03,3.570278e+02
1.548561e+03,3.558535e+02
1.551453e+03,3.601737e+02
1.554346e+03,3.598148e+02
1.557239e+03,3.528565e+02
1.560131e+03,3.542965e+02
1.563024e+03,3.567939e+02
1.565917e+03,3.580414e+02
1.568809e+03,3.551090e+02
1.571702e+03,3.506007e+02
1.574595e+03,3.502227e+02
1.577488e+03,3.569604e+02
1.580380e+03,3.507064e+02
1.583273e+03,3.557254e+02
1.586166e+03,3.585331e+02
1.589058e+03,3.581996e+02
1.591951e+03,3.561127e+02
1.594844e+03,3.523064e+02
1.597736e+03,3.480682e+02
1.600629e+03,3.521183e+02
1.603522e+03,3.525109e+02
1.606415e+03,3.470372e+02
1.609307e+03,3.504756e+02
1.612200e+03,3.405569e+02
1.615093e+03,3.462007e+02
1.617985e+03,3.505810e+02
1.620878e+03,3.430008e+02
1.623771e+03,3.439760e+02
1.626663e+03,3.476738e+02
1.629556e+03,3.410280e+02
1.632449e+03,3.425757e+02
1.635342e+03,3.372860e+02
1.638234e+03,3.423387e+02
1.641127e+03,3.388080e+02
1.644020e+03,3.341796e+02
1.646912e+03,3.404299e+02
1.649805e+03,3.335433e+02
1.652698e+03,3.353576e+02
1.655590e+03,3.332016e+02
1.658483e+03,3.326083e+02
1.661376e+03,3.279502e+02
1.664269e+03,3.331948e+02
1.667161e+03,3.301125e+02
1.670054e+03,3.333968e+02
1.672947e+03,3.285636e+02
1.675839e+03,3.271187e+02
1.678732e+03,3.255652e+02
1.681625e+03,3.249049e+02
1.684517e+03,3.282099e+02
1.687410e+03,3.284214e+02
1.690303e+03,3.302298e+02
1.693196e+03,3.274142e+02
1.696088e+03,3.238866e+02
1.698981e+03,3.322386e+02
1.701874e+03,3.295693e+02
1.704766e+03,3.271351e+02
1.707659e+03,3.220771e+02
1.710552e+03,3.226194e+02
1.713444e+03,3.227504e+02
1.716337e+03,3.271938e+02
1.719230e+03,3.194891e+02
1.722123e+03,3.265405e+02
1.725015e+03,3.217983e+02
1.727908e+03,3.157683e+02
1.730801e+03,3.234045e+02
1.733693e+03,3.201618e+02
1.736586e+03,3.184265e+02
1.739479e+03,3.166884e+02
1.742371e+03,3.143554e+02
1.745264e+03,3.107783e+02
1.748157e+03,3.229422e+02
1.751050e+03,3.232933e+02
1.753942e+03,3.212193e+02
1.756835e+03,3.144481e+02
1.759728e+03,3.093333e+02
1.762620e+03,3.114986e+02
1.765513e+03,3.138976e+02
1.768406e+03,3.123423e+02
1.771298e+03,3.079155e+02
1.774191e+03,3.090794e+02
1.777084e+03,3.101518e+02
1.779977e+03,3.136601e+02
1.782869e+03,3.116975e+02
1.785762e+03,3.101734e+02
1.788655e+03,3.127895e+02
1.791547e+03,3.138780e+02
1.794440e+03,3.114951e+02
1.797333e+03,2.917847e+02
1.800225e+03,3.060804e+02
1.803118e+03,2.926533e+02
1.806011e+03,2.983126e+02
1.808904e+03,3.043563e+02
1.811796e+03,3.040025e+02
1.814689e+03,3.025276e+02
1.817582e+03,3.116794e+02
1.820474e+03,3.001972e+02
1.823367e+03,2.948183e+02
1.826260e+03,2.996299e+02
1.829152e+03,2.968306e+02
1.832045e+03,2.988455e+02
1.834938e+03,2.992519e+02
1.837831e+03,2.935158e+02
1.840723e+03,2.967903e+02
1.843616e+03,2.941228e+02
1.846509e+03,2.932852e+02
1.849401e+03,2.998384e+02
1.852294e+03,2.909660e+02
1.855187e+03,2.867856e+02
1.858079e+03,2.929376e+02
1.860972e+03,2.907211e+02
1.863865e+03,2.892438e+02
1.866758e+03,2.832406e+02
1.869650e+03,2.898038e+02
1.872543e+03,2.886081e+02
1.875436e+03,2.920903e+02
1.878328e+03,2.892059e+02
1.881221e+03,2.873131e+02
1.884114e+03,2.923664e+02
1.887006e+03,2.872744e+02
1.889899e+03,2.888552e+02
1.892792e+03,2.853133e+02
1.895685e+03,2.912994e+02
1.898577e+03,2.910804e+02
1.901470e+03,2.824740e+02
1.904363e+03,2.746333e+02
1.907255e+03,2.806010e+02
1.910148e+03,2.873963e+02
1.913041e+03,2.847318e+02
1.915933e+03,2.832932e+02
1.918826e+03,2.671859e+02
1.921719e+03,2.858404e+02
1.924612e+03,2.798033e+02
1.927504e+03,2.806227e+02
1.930397e+03,2.798537e+02
1.933290e+03,2.736118e+02
1.936182e+03,2.799098e+02
1.939075e+03,2.760932e+02
1.941968e+03,2.841763e+02
1.944860e+03,2.698984e+02
1.947753e+03,2.803329e+02
1.950646e+03,2.718665e+02
1.953539e+03,2.806207e+02
1.956431e+03,2.748828e+02
1.959324e+03,2.696093e+02
1.962217e+03,2.761421e+02
1.965109e+03,2.628016e+02
1.968002e+03,2.740998e+02
1.970895e+03,2.670868e+02
1.973787e+03,2.675569e+02
1.976680e+03,2.604235e+02
1.979573e+03,2.682445e+02
1.982466e+03,2.718487e+02
1.985358e+03,2.715084e+02
1.988251e+03,2.676548e+02
1.991144e+03,2.634422e+02
1.994036e+03,2.623989e+02
1.996929e+03,2.570924e+02
1.999822e+03,2.646382e+02
2.002714e+03,2.681590e+02
2.005607e+03,2.685250e+02
2.008500e+03,2.550490e+02
2.011393e+03,2.584868e+02
2.014285e+03,2.575369e+02
2.017178e+03,2.657174e+02
2.020071e+03,2.579294e+02
2.022963e+03,2.585687e+02
2.025856e+03,2.618797e+02
2.028749e+03,2.581727e+02
2.031641e+03,2.597466e+02
2.034534e+03,2.570753e+02
2.037427e+03,2.623363e+02
2.040320e+03,2.514922e+02
2.043212e+03,2.466316e+02
2.046105e+03,2.539869e+02
2.048998e+03,2.563561e+02
2.051890e+03,2.451580e+02
2.054783e+03,2.473696e+02
2.057676e+03,2.529035e+02
2.060568e+03,2.466079e+02
2.063461e+03,2.504927e+02
2.066354e+03,2.508097e+02
2.069247e+03,2.512742e+02
2.072139e+03,2.447744e+02
2.075032e+03,2.445722e+02
2.077925e+03,2.428393e+02
2.080817e+03,2.466003e+02
2.083710e+03,2.443089e+02
2.086603e+03,2.369375e+02
2.089496e+03,2.406929e+02
2.092388e+03,2.387358e+02
2.095281e+03,2.405537e+02
2.098174e+03,2.422224e+02
2.101066e+03,2.304926e+02
2.103959e+03,2.306220e+02
2.106852e+03,2.357541e+02
2.109744e+03,2.506561e+02
2.112637e+03,2.343657e+02
2.115530e+03,2.393425e+02
2.118422e+03,2.364616e+02
2.121315e+03,2.452028e+02
2.124208e+03,2.346099e+02
2.127101e+03,2.330572e+02
2.129993e+03,2.339619e+02
2.132886e+03,2.306118e+02
2.135779e+03,2.386675e+02
2.138671e+03,2.281560e+02
2.141564e+03,2.314946e+02
2.144457e+03,2.347416e+02
2.147350e+03,2.319370e+02
2.150242e+03,2.280040e+02
2.153135e+03,2.286391e+02
2.156028e+03,2.316615e+02
2.158920e+03,2.196982e+02
2.161813e+03,2.276483e+02
2.164706e+03,2.268157e+02
2.167598e+03,2.282327e+02
2.170491e+03,2.287144e+02
2.173384e+03,2.292990e+02
2.176277e+03,2.232970e+02
2.179169e+03,2.287866e+02
2.182062e+03,2.244671e+02
2.184955e+03,2.228691e+02
2.187847e+03,2.234964e+02
2.190740e+03,2.274134e+02
2.193633e+03,2.242852e+02
2.196525e+03,2.204442e+02
2.199418e+03,2.150270e+02
2.202311e+03,2.275370e+02
2.205204e+03,2.205821e+02
2.208096e+03,2.219554e+02
2.210989e+03,2.107014e+02
2.213882e+03,2.199825e+02
2.216774e+03,2.201161e+02
2.219667e+03,2.175588e+02
2.222560e+03,2.142681e+02
2.225452e+03,2.101785e+02
2.228345e+03,2.148688e+02
2.231238e+03,2.137854e+02
2.234131e+03,2.155760e+02
2.237023e+03,2.168970e+02
2.239916e+03,2.104020e+02
2.242809e+03,2.109221e+02
2.245701e+03,2.137217e+02
2.248594e+03,2.081194e+02
2.251487e+03,2.114494e+02
2.254379e+03,2.010773e+02
2.257272e+03,2.137917e+02
2.260165e+03,2.119351e+02
2.263058e+03,2.171155e+02
2.265950e+03,2.089574e+02
2.268843e+03,2.032482e+02
2.271736e+03,2.053588e+02
2.274628e+03,2.041898e+02
2.277521e+03,2.060783e+02
2.280414e+03,2.021380e+02
2.283306e+03,2.027233e+02
2.286199e+03,2.016768e+02
2.289092e+03,2.005360e+02
2.291985e+03,1.991975e+02
2.294877e+03,1.996794e+02
2.297770e+03,2.031478e+02
2.300663e+03,2.046167e+02
2.303555e+03,1.965851e+02
2.306448e+03,1.979900e+02
2.309341e+03,2.003863e+02
2.312233e+03,1.976907e+02
2.315126e+03,2.002776e+02
2.318019e+03,2.025486e+02
2.320912e+03,1.935324e+02
2.323804e+03,2.044623e+02
2.326697e+03,1.981342e+02
2.329590e+03,2.006344e+02
2.332482e+03,1.958950e+02
2.335375e+03,2.009982e+02
2.338268e+03,1.936993e+02
2.341160e+03,1.940659e+02
2.344053e+03,1.991423e+02
2.346946e+03,1.938908e+02
2.349839e+03,1.921804e+02
2.352731e+03,1.974201e+02
2.355624e+03,1.924683e+02
2.358517e+03,1.934945e+02
2.361409e+03,1.985376e+02
2.364302e+03,1.928739e+02
2.367195e+03,1.885865e+02
2.370087e+03,2.007522e+02
2.372980e+03,1.906819e+02
2.375873e+03,1.925272e+02
2.378766e+03,1.859652e+02
2.381658e+03,1.854981e+02
2.384551e+03,1.863337e+02
2.387444e+03,1.880421e+02
2.390336e+03,1.852430e+02
2.393229e+03,1.839715e+02
2.396122e+03,1.805824e+02
2.399014e+03,1.812441e+02
2.401907e+03,1.911288e+02
2.404800e+03,1.787768e+02
2.407693e+03,1.837038e+02
2.410585e+03,1.894397e+02
2.413478e+03,1.806237e+02
2.416371e+03,1.838868e+02
2.419263e+03,1.801403e+02
2.422156e+03,1.847879e+02
2.425049e+03,1.780708e+02
2.427941e+03,1.848738e+02
2.430834e+03,1.788590e+02
2.433727e+03,1.778608e+02
2.436620e+03,1.807730e+02
2.439512e+03,1.761620e+02
2.442405e+03,1.751107e+02
2.445298e+03,1.764986e+02
2.448190e+03,1.780124e+02
2.451083e+03,1.782821e+02
2.453976e+03,1.802446e+02
2.456868e+03,1.792844e+02
2.459761e+03,1.702550e+02
2.462654e+03,1.808176e+02
2.465547e+03,1.722127e+02
2.468439e+03,1.662469e+02
2.471332e+03,1.761945e+02
2.474225e+03,1.774552e+02
2.477117e+03,1.734878e+02
2.480010e+03,1.773242e+02
2.482903e+03,1.744141e+02
2.485795e+03,1.750287e+02
2.488688e+03,1.694839e+02
2.491581e+03,1.695825e+02
2.494474e+03,1.736268e+02
2.497366e+03,1.728608e+02
2.500259e+03,1.775636e+02
2.503152e+03,1.728553e+02
2.506044e+03,1.749432e+02
2.508937e+03,1.749246e+02
2.511830e+03,1.755042e+02
2.514722e+03,1.690941e+02
2.517615e+03,1.684918e+02
2.520508e+03,1.662718e+02
2.523401e+03,1.738496e+02
2.526293e+03,1.686516e+02
2.529186e+03,1.619323e+02
2.532079e+03,1.703512e+02
2.534971e+03,1.670419e+02
2.537864e+03,1.627849e+02
2.540757e+03,1.705770e+02
2.543649e+03,1.642296e+02
2.546542e+03,1.766385e+02
2.549435e+03,1.681500e+02
2.552328e+03,1.779362e+02
2.555220e+03,1.785562e+02
2.558113e+03,1.732483e+02
2.561006e+03,1.766552e+02
2.563898e+03,1.757224e+02
2.566791e+03,1.653339e+02
2.569684e+03,1.728733e+02
2.572576e+03,1.637709e+02
2.575469e+03,1.704538e+02
2.578362e+03,1.727437e+02
2.581255e+03,1.603191e+02
2.584147e+03,1.635385e+02
2.587040e+03,1.715653e+02
2.589933e+03,1.651752e+02
2.592825e+03,1.550775e+02
2.595718e+03,1.644399e+02
2.598611e+03,1.613325e+02
2.601503e+03,1.572168e+02
2.604396e+03,1.643439e+02
2.607289e+03,1.606204e+02
2.610182e+03,1.576768e+02
2.613074e+03,1.568413e+02
2.615967e+03,1.501724e+02
2.618860e+03,1.582177e+02
2.621752e+03,1.648378e+02
2.624645e+03,1.541970e+02
2.627538e+03,1.623284e+02
2.630430e+03,1.549962e+02
2.633323e+03,1.593531e+02
2.636216e+03,1.559137e+02
2.639109e+03,1.583672e+02
2.642001e+03,1.597069e+02
2.644894e+03,1.558778e+02
2.647787e+03,1.458268e+02
2.650679e+03,1.632089e+02
2.653572e+03,1.547280e+02
2.656465e+03,1.530669e+02
2.659357e+03,1.566671e+02
2.662250e+03,1.639126e+02
2.665143e+03,1.574838e+02
2.668036e+03,1.574884e+02
2.670928e+03,1.659247e+02
2.673821e+03,1.531859e+02
2.676714e+03,1.485001e+02
2.679606e+03,1.523294e+02
2.682499e+03,1.650322e+02
2.685392e+03,1.491177e+02
2.688284e+03,1.490160e+02
2.691177e+03,1.475970e+02
2.694070e+03,1.498939e+02
2.696963e+03,1.494127e+02
2.699855e+03,1.604361e+02
2.702748e+03,1.555213e+02
2.705641e+03,1.600237e+02
2.708533e+03,1.544522e+02
2.711426e+03,1.548583e+02
2.714319e+03,1.557737e+02
2.717211e+03,1.651221e+02
2.720104e+03,1.488739e+02
2.722997e+03,1.601795e+02
2.725890e+03,1.460671e+02
2.728782e+03,1.535676e+02
2.731675e+03,1.516249e+02
2.734568e+03,1.608610e+02
2.737460e+03,1.512696e+02
2.740353e+03,1.478326e+02
2.743246e+03,1.515224e+02
2.746138e+03,1.471153e+02
2.749031e+03,1.577891e+02
2.751924e+03,1.518316e+02
2.754817e+03,1.523517e+02
2.757709e+03,1.505449e+02
2.760602e+03,1.516202e+02
2.763495e+03,1.462195e+02
2.766387e+03,1.534561e+02
2.769280e+03,1.498331e+02
2.772173e+03,1.462349e+02
2.775065e+03,1.534801e+02
2.777958e+03,1.465658e+02
2.780851e+03,1.491043e+02
2.783744e+03,1.530498e+02
2.786636e+03,1.506512e+02
2.789529e+03,1.459416e+02
2.792422e+03,1.478617e+02
2.795314e+03,1.420141e+02
2.798207e+03,1.481462e+02
2.801100e+03,1.479212e+02
2.803992e+03,1.515519e+02
2.806885e+03,1.461270e+02
2.809778e+03,1.543988e+02
2.812671e+03,1.528527e+02
2.815563e+03,1.584794e+02
2.818456e+03,1.538767e+02
2.821349e+03,1.501563e+02
2.824241e+03,1.556391e+02
2.827134e+03,1.529048e+02
2.830027e+03,1.591805e+02
2.832919e+03,1.550638e+02
2.835812e+03,1.710052e+02
2.838705e+03,1.553148e+02
2.841598e+03,1.672926e+02
2.844490e+03,1.628720e+02
2.847383e+03,1.620515e+02
2.850276e+03,1.640016e+02
2.853168e+03,1.756733e+02
2.856061e+03,1.830884e+02
2.858954e+03,1.674564e+02
2.861846e+03,1.757793e+02
2.864739e+03,1.639607e+02
2.867632e+03,1.842799e+02
2.870525e+03,1.877082e+02
2.873417e+03,1.884322e+02
2.876310e+03,1.949480e+02
2.879203e+03,1.949976e+02
2.882095e+03,1.921401e+02
2.884988e+03,2.014902e+02
2.887881e+03,2.130501e+02
2.890773e+03,2.179811e+02
2.893666e+03,1.968366e+02
2.896559e+03,2.117698e+02
2.899452e+03,2.166819e+02
2.902344e+03,1.919953e+02
2.905237e+03,1.947651e+02
2.908130e+03,1.953476e+02
2.911022e+03,1.987433e+02
2.913915e+03,1.839985e+02
2.916808e+03,1.889336e+02
2.919700e+03,1.734583e+02
2.922593e+03,1.816161e+02
2.925486e+03,1.859665e+02
2.928379e+03,1.766216e+02
2.931271e+03,1.696840e+02
2.934164e+03,1.775503e+02
2.937057e+03,1.786502e+02
2.939949e+03,1.608473e+02
2.942842e+03,1.749136e+02
2.945735e+03,1.639291e+02
2.948627e+03,1.717707e+02
2.951520e+03,1.676281e+02
2.954413e+03,1.637702e+02
2.957306e+03,2.139466e+02
2.960198e+03,1.765677e+02
2.963091e+03,1.519574e+02
2.965984e+03,1.679159e+02
2.968876e+03,1.613952e+02
2.971769e+03,1.606481e+02
2.974662e+03,1.499869e+02
2.977554e+03,1.491906e+02
2.980447e+03,1.370561e+02
2.983340e+03,1.390078e+02
2.986233e+03,1.576505e+02
2.989125e+03,1.414565e+02
2.992018e+03,1.519727e+02
2.994911e+03,1.320295e+02
2.997803e+03,1.387270e+02
3.000696e+03,1.488039e+02
3.003589e+03,1.346139e+02
3.006481e+03,1.437570e+02
3.009374e+03,1.279292e+02
3.012267e+03,1.489688e+02
3.015160e+03,1.481148e+02
3.018052e+03,1.456741e+02
3.020945e+03,1.271221e+02
3.023838e+03,1.183942e+02
3.026730e+03,1.278989e+02
3.029623e+03,1.442081e+02
3.032516e+03,1.245675e+02
3.035408e+03,1.215801e+02
3.038301e+03,1.272368e+02
3.041194e+03,1.193517e+02
3.044087e+03,1.089157e+02
3.046979e+03,1.279383e+02
3.049872e+03,1.351656e+02
3.052765e+03,1.170092e+02
3.055657e+03,1.270560e+02
3.058550e+03,1.446186e+02
3.061443e+03,1.342126e+02
3.064335e+03,1.177344e+02
3.067228e+03,1.152974e+02
3.070121e+03,1.495392e+02
3.073014e+03,1.229800e+02
3.075906e+03,1.549931e+02
3.078799e+03,1.363401e+02
3.081692e+03,1.460038e+02
3.084584e+03,1.391968e+02
3.087477e+03,1.254859e+02
3.090370e+03,1.417267e+02
3.093262e+03,1.122849e+02
3.096155e+03,1.234543e+02
3.099048e+03,1.338530e+02
3.101941e+03,1.367930e+02
3.104833e+03,1.151768e+02
3.107726e+03,1.264878e+02
3.110619e+03,1.508604e+02
3.113511e+03,1.349415e+02
3.116404e+03,1.344293e+02
3.119297e+03,1.570433e+02
3.122189e+03,1.383933e+02
3.125082e+03,1.621354e+02
3.127975e+03,1.409715e+02
3.130868e+03,1.600158e+02
3.133760e+03,1.400930e+02
3.136653e+03,1.331800e+02
3.139546e+03,1.474257e+02
3.142438e+03,1.490741e+02
3.145331e+03,1.329223e+02
3.148224e+03,1.410947e+02
3.151116e+03,1.434963e+02
3.154009e+03,1.359279e+02
3.156902e+03,1.521747e+02
3.159795e+03,1.418337e+02
3.162687e+03,1.580255e+02
3.165580e+03,1.336756e+02
3.168473e+03,1.413454e+02
3.171365e+03,1.280867e+02
3.174258e+03,1.540586e+02
3.177151e+03,1.332365e+02
3.180043e+03,1.445573e+02
3.182936e+03,1.438359e+02
3.185829e+03,1.515195e+02
3.188722e+03,1.402425e+02
3.191614e+03,1.741326e+02
3.194507e+03,1.562603e+02
3.197400e+03,1.199650e+02
3.200292e+03,1.737184e+02
3.203185e+03,0.000000e+00
3.206078e+03,0.000000e+00
3.208970e+03,0.000000e+00
3.211863e+03,0.000000e+00
3.214756e+03,0.000000e+00
3.217649e+03,0.000000e+00
3.220541e+03,0.000000e+00
3.223434e+03,0.000000e+00
3.226327e+03,0.000000e+00
3.229219e+03,0.000000e+00
3.232112e+03,0.000000e+00
3.235005e+03,0.000000e+00
3.237897e+03,0.000000e+00
3.240790e+03,0.000000e+00
3.243683e+03,0.000000e+00
3.246576e+03,0.000000e+00
3.249468e+03,0.000000e+00
3.252361e+03,0.000000e+00
3.255254e+03,0.000000e+00
3.258146e+03,0.000000e+00
3.261039e+03,0.000000e+00
3.263932e+03,0.000000e+00
3.266824e+03,0.000000e+00
3.269717e+03,0.000000e+00
3.272610e+03,0.000000e+00
3.275503e+03,0.000000e+00
3.278395e+03,0.000000e+00
3.281288e+03,0.000000e+00
3.284181e+03,0.000000e+00
3.287073e+03,0.000000e+00
3.289966e+03,0.000000e+00
3.292859e+03,0.000000e+00
3.295751e+03,0.000000e+00
3.298644e+03,0.000000e+00
3.301537e+03,0.000000e+00
3.304430e+03,0.000000e+00
3.307322e+03,0.000000e+00
3.310215e+03,0.000000e+00
3.313108e+03,0.000000e+00
3.316000e+03,0.000000e+00
3.318893e+03,0.000000e+00
3.321786e+03,0.000000e+00
3.324678e+03,0.000000e+00
3.327571e+03,0.000000e+00
3.330464e+03,0.000000e+00
3.333357e+03,0.000000e+00
3.336249e+03,0.000000e+00
3.339142e+03,0.000000e+00
3.342035e+03,0.000000e+00
3.344927e+03,0.000000e+00
3.347820e+03,0.000000e+00
3.350713e+03,0.000000e+00
3.353605e+03,0.000000e+00
3.356498e+03,0.000000e+00
3.359391e+03,0.000000e+00
3.362284e+03,0.000000e+00
3.365176e+03,0.000000e+00
3.368069e+03,0.000000e+00
3.370962e+03,0.000000e+00
3.373854e+03,0.000000e+00
3.376747e+03,0.000000e+00
3.379640e+03,0.000000e+00
3.382532e+03,0.000000e+00
3.385425e+03,0.000000e+00
3.388318e+03,0.000000e+00
3.391211e+03,0.000000e+00
3.394103e+03,0.000000e+00
3.396996e+03,0.000000e+00
3.399889e+03,0.000000e+00
3.402781e+03,0.000000e+00
3.405674e+03,0.000000e+00
3.408567e+03,0.000000e+00
3.411459e+03,0.000000e+00
3.414352e+03,0.000000e+00
3.417245e+03,0.000000e+00
3.420138e+03,0.000000e+00
3.423030e+03,0.000000e+00
3.425923e+03,0.000000e+00
3.428816e+03,0.000000e+00
3.431708e+03,0.000000e+00
3.434601e+03,0.000000e+00
3.437494e+03,0.000000e+00
3.440386e+03,0.000000e+00
3.443279e+03,0.000000e+00
3.446172e+03,0.000000e+00
3.449065e+03,0.000000e+00
3.451957e+03,0.000000e+00
3.454850e+03,0.000000e+00
3.457743e+03,0.000000e+00
3.460635e+03,0.000000e+00
3.463528e+03,0.000000e+00
3.466421e+03,0.000000e+00
3.469313e+03,0.000000e+00
3.472206e+03,0.000000e+00
3.475099e+03,0.000000e+00
3.477992e+03,0.000000e+00
3.480884e+03,0.000000e+00
3.483777e+03,0.000000e+00
3.486670e+03,0.000000e+00
3.489563e+03,0.000000e+00
3.492455e+03,0.000000e+00
3.495348e+03,0.000000e+00
3.498240e+03,0.000000e+00
3.500169e+03,0.000000e+00