File: RAMAN_data/14032024_r1/red fibre1.CSV
9.931763e+01,0.000000e+00
1.022103e+02,0.000000e+00
1.051030e+02,0.000000e+00
1.079957e+02,0.000000e+00
1.108884e+02,0.000000e+00
1.137811e+02,0.000000e+00
1.166738e+02,0.000000e+00
1.195665e+02,0.000000e+00
1.224592e+02,0.000000e+00
1.253519e+02,0.000000e+00
1.282446e+02,0.000000e+00
1.311373e+02,0.000000e+00
1.340300e+02,0.000000e+00
1.369227e+02,0.000000e+00
1.398154e+02,0.000000e+00
1.427081e+02,0.000000e+00
1.456008e+02,0.000000e+00
1.484935e+02,0.000000e+00
1.513862e+02,0.000000e+00
1.542789e+02,0.000000e+00
1.571716e+02,0.000000e+00
1.600643e+02,0.000000e+00
1.629570e+02,0.000000e+00
1.658497e+02,0.000000e+00
1.687424e+02,0.000000e+00
1.716351e+02,0.000000e+00
1.745278e+02,0.000000e+00
1.774205e+02,0.000000e+00
1.803132e+02,0.000000e+00
1.832059e+02,0.000000e+00
1.860986e+02,0.000000e+00
1.889913e+02,0.000000e+00
1.918840e+02,0.000000e+00
1.947767e+02,0.000000e+00
1.976694e+02,0.000000e+00
2.005621e+02,4.083859e+02
2.034548e+02,4.066113e+02
2.063475e+02,4.099172e+02
2.092402e+02,4.080171e+02
2.121329e+02,4.127391e+02
2.150256e+02,4.057306e+02
2.179183e+02,4.015688e+02
2.208110e+02,4.062564e+02
2.237037e+02,4.088116e+02
2.265964e+02,4.020027e+02
2.294892e+02,4.011081e+02
2.323819e+02,4.067858e+02
2.352746e+02,4.076465e+02
2.381673e+02,4.096067e+02
2.410600e+02,4.039114e+02
2.439527e+02,4.039708e+02
2.468454e+02,4.025087e+02
2.497381e+02,4.120087e+02
2.526308e+02,4.043127e+02
2.555235e+02,4.066493e+02
2.584161e+02,4.055446e+02
2.613088e+02,4.073782e+02
2.642015e+02,4.037809e+02
2.670942e+02,4.024559e+02
2.699869e+02,4.089706e+02
2.728796e+02,4.019444e+02
2.757723e+02,4.004123e+02
2.786650e+02,4.065097e+02
2.815577e+02,4.000889e+02
2.844504e+02,4.015215e+02
2.873431e+02,4.033380e+02
2.902358e+02,3.996396e+02
2.931285e+02,4.002538e+02
2.960212e+02,4.032792e+02
2.989139e+02,4.038597e+02
3.018066e+02,4.051810e+02
3.046993e+02,4.065207e+02
3.075920e+02,4.074195e+02
3.104847e+02,4.089996e+02
3.133774e+02,4.095492e+02
3.162701e+02,4.104625e+02
3.191628e+02,4.076963e+02
3.220555e+02,4.031994e+02
3.249482e+02,4.114055e+02
3.278409e+02,4.160667e+02
3.307336e+02,4.199614e+02
3.336263e+02,4.119165e+02
3.365190e+02,4.031997e+02
3.394117e+02,4.186971e+02
3.423044e+02,4.069817e+02
3.451971e+02,4.149772e+02
3.480898e+02,4.113603e+02
3.509825e+02,4.200659e+02
3.538752e+02,4.138603e+02
3.567680e+02,4.135949e+02
3.596607e+02,4.122210e+02
3.625534e+02,4.129334e+02
3.654461e+02,4.104955e+02
3.683388e+02,4.126987e+02
3.712315e+02,4.213252e+02
3.741242e+02,4.365796e+02
3.770169e+02,4.356385e+02
3.799096e+02,4.354418e+02
3.828023e+02,4.203525e+02
3.856950e+02,4.139149e+02
3.885877e+02,4.068814e+02
3.914804e+02,3.990688e+02
3.943731e+02,3.999030e+02
3.972658e+02,4.025457e+02
4.001585e+02,4.002432e+02
4.030512e+02,4.008848e+02
4.059439e+02,4.019626e+02
4.088366e+02,3.993635e+02
4.117293e+02,3.991127e+02
4.146220e+02,4.000745e+02
4.175147e+02,4.023896e+02
4.204074e+02,4.002949e+02
4.233001e+02,4.078765e+02
4.261928e+02,4.036263e+02
4.290855e+02,4.059460e+02
4.319782e+02,4.154401e+02
4.348709e+02,4.171899e+02
4.377636e+02,4.104328e+02
4.406563e+02,4.087530e+02
4.435490e+02,4.113548e+02
4.464417e+02,4.022659e+02
4.493344e+02,3.957824e+02
4.522271e+02,4.049218e+02
4.551198e+02,4.131670e+02
4.580125e+02,4.132180e+02
4.609052e+02,4.001971e+02
4.637979e+02,3.932003e+02
4.666906e+02,3.942789e+02
4.695833e+02,3.928897e+02
4.724760e+02,3.951596e+02
4.753687e+02,3.881267e+02
4.782614e+02,3.917183e+02
4.811541e+02,3.912434e+02
4.840468e+02,3.901378e+02
4.869395e+02,3.938340e+02
4.898322e+02,3.941906e+02
4.927249e+02,4.002438e+02
4.956176e+02,3.981974e+02
4.985103e+02,3.872954e+02
5.014030e+02,3.922863e+02
5.042957e+02,3.854283e+02
5.071884e+02,3.889298e+02
5.100811e+02,3.892655e+02
5.129738e+02,3.911463e+02
5.158665e+02,4.010345e+02
5.187592e+02,4.019695e+02
5.216519e+02,3.892553e+02
5.245446e+02,3.880414e+02
5.274373e+02,3.859501e+02
5.303300e+02,3.824503e+02
5.332227e+02,3.809523e+02
5.361154e+02,3.829659e+02
5.390081e+02,3.794727e+02
5.419008e+02,3.847503e+02
5.447935e+02,3.776720e+02
5.476862e+02,3.786522e+02
5.505789e+02,3.745832e+02
5.534716e+02,3.718799e+02
5.563643e+02,3.779421e+02
5.592570e+02,3.828309e+02
5.621497e+02,3.768001e+02
5.650424e+02,3.842303e+02
5.679351e+02,3.780243e+02
5.708278e+02,3.787766e+02
5.737205e+02,3.739328e+02
5.766132e+02,3.724545e+02
5.795059e+02,3.786048e+02
5.823986e+02,3.767014e+02
5.852913e+02,3.736597e+02
5.881840e+02,3.748121e+02
5.910767e+02,3.755502e+02
5.939694e+02,3.769609e+02
5.968621e+02,3.738592e+02
5.997548e+02,3.695931e+02
6.026475e+02,3.715049e+02
6.055402e+02,3.718261e+02
6.084329e+02,3.695244e+02
6.113256e+02,3.706352e+02
6.142183e+02,3.670861e+02
6.171110e+02,3.715984e+02
6.200037e+02,3.758185e+02
6.228964e+02,3.648045e+02
6.257891e+02,3.618867e+02
6.286818e+02,3.668156e+02
6.315745e+02,3.663043e+02
6.344672e+02,3.694411e+02
6.373599e+02,3.704449e+02
6.402526e+02,3.643895e+02
6.431453e+02,3.688636e+02
6.460380e+02,3.645921e+02
6.489307e+02,3.630374e+02
6.518234e+02,3.659485e+02
6.547161e+02,3.669085e+02
6.576088e+02,3.671470e+02
6.605015e+02,3.626451e+02
6.633942e+02,3.638175e+02
6.662869e+02,3.646432e+02
6.691796e+02,3.648110e+02
6.720723e+02,3.608309e+02
6.749650e+02,3.576714e+02
6.778577e+02,3.610688e+02
6.807504e+02,3.560790e+02
6.836431e+02,3.584683e+02
6.865358e+02,3.616052e+02
6.894285e+02,3.567397e+02
6.923212e+02,3.615692e+02
6.952139e+02,3.579802e+02
6.981066e+02,3.546301e+02
7.009993e+02,3.585738e+02
7.038920e+02,3.624146e+02
7.067847e+02,3.543549e+02
7.096774e+02,3.537080e+02
7.125701e+02,3.602543e+02
7.154628e+02,3.543468e+02
7.183555e+02,3.596203e+02
7.212482e+02,3.607174e+02
7.241409e+02,3.593909e+02
7.270336e+02,3.622953e+02
7.299263e+02,3.546452e+02
7.328190e+02,3.529142e+02
7.357117e+02,3.544352e+02
7.386044e+02,3.502704e+02
7.414971e+02,3.474401e+02
7.443898e+02,3.512873e+02
7.472825e+02,3.491639e+02
7.501752e+02,3.521085e+02
7.530679e+02,3.498185e+02
7.559606e+02,3.498913e+02
7.588533e+02,3.471417e+02
7.617460e+02,3.517482e+02
7.646387e+02,3.527358e+02
7.675314e+02,3.455772e+02
7.704241e+02,3.447194e+02
7.733168e+02,3.445229e+02
7.762095e+02,3.440307e+02
7.791022e+02,3.447087e+02
7.819949e+02,3.469268e+02
7.848876e+02,3.431994e+02
7.877803e+02,3.454806e+02
7.906730e+02,3.439288e+02
7.935657e+02,3.437210e+02
7.964584e+02,3.421074e+02
7.993511e+02,3.412296e+02
8.022438e+02,3.371639e+02
8.051365e+02,3.438444e+02
8.080292e+02,3.412910e+02
8.109219e+02,3.396380e+02
8.138146e+02,3.442734e+02
8.167073e+02,3.373496e+02
8.196000e+02,3.373349e+02
8.224927e+02,3.372861e+02
8.253854e+02,3.375547e+02
8.282781e+02,3.370146e+02
8.311708e+02,3.368813e+02
8.340635e+02,3.325936e+02
8.369562e+02,3.355730e+02
8.398489e+02,3.405015e+02
8.427416e+02,3.370188e+02
8.456343e+02,3.328859e+02
8.485270e+02,3.343984e+02
8.514197e+02,3.333216e+02
8.543124e+02,3.363876e+02
8.572051e+02,3.369745e+02
8.600978e+02,3.379364e+02
8.629905e+02,3.368419e+02
8.658832e+02,3.376510e+02
8.687759e+02,3.407718e+02
8.716686e+02,3.366437e+02
8.745613e+02,3.391454e+02
8.774540e+02,3.381610e+02
8.803467e+02,3.384639e+02
8.832394e+02,3.365143e+02
8.861321e+02,3.372676e+02
8.890248e+02,3.383863e+02
8.919175e+02,3.374308e+02
8.948102e+02,3.390571e+02
8.977029e+02,3.370380e+02
9.005956e+02,3.349453e+02
9.034883e+02,3.300424e+02
9.063810e+02,3.284255e+02
9.092737e+02,3.300661e+02
9.121664e+02,3.258325e+02
9.150591e+02,3.353308e+02
9.179518e+02,3.299835e+02
9.208445e+02,3.300710e+02
9.237372e+02,3.255484e+02
9.266299e+02,3.284502e+02
9.295226e+02,3.225225e+02
9.324153e+02,3.262212e+02
9.353080e+02,3.261797e+02
9.382007e+02,3.239681e+02
9.410934e+02,3.231934e+02
9.439861e+02,3.218932e+02
9.468788e+02,3.219881e+02
9.497715e+02,3.225020e+02
9.526642e+02,3.216339e+02
9.555569e+02,3.257735e+02
9.584496e+02,3.228452e+02
9.613423e+02,3.188213e+02
9.642350e+02,3.215699e+02
9.671277e+02,3.271575e+02
9.700204e+02,3.250080e+02
9.729131e+02,3.199786e+02
9.758058e+02,3.250111e+02
9.786985e+02,3.183619e+02
9.815912e+02,3.205764e+02
9.844839e+02,3.209315e+02
9.873766e+02,3.219413e+02
9.902693e+02,3.249474e+02
9.931620e+02,3.259238e+02
9.960547e+02,3.312393e+02
9.989474e+02,3.211947e+02
1.001840e+03,3.191984e+02
1.004733e+03,3.174801e+02
1.007626e+03,3.143802e+02
1.010518e+03,3.117446e+02
1.013411e+03,3.198046e+02
1.016304e+03,3.197436e+02
1.019196e+03,3.174842e+02
1.022089e+03,3.134991e+02
1.024982e+03,3.147881e+02
1.027875e+03,3.154542e+02
1.030767e+03,3.207797e+02
1.033660e+03,3.200304e+02
1.036552e+03,3.220941e+02
1.039445e+03,3.218716e+02
1.042338e+03,3.158134e+02
1.045231e+03,3.198011e+02
1.048123e+03,3.222404e+02
1.051016e+03,3.208304e+02
1.053909e+03,3.263522e+02
1.056802e+03,3.206859e+02
1.059694e+03,3.207615e+02
1.062587e+03,3.234203e+02
1.065479e+03,3.231357e+02
1.068372e+03,3.250309e+02
1.071265e+03,3.245923e+02
1.074158e+03,3.261369e+02
1.077050e+03,3.274122e+02
1.079943e+03,3.272783e+02
1.082836e+03,3.337387e+02
1.085729e+03,3.383305e+02
1.088621e+03,3.558833e+02
1.091514e+03,3.676652e+02
1.094406e+03,3.763915e+02
1.097299e+03,3.642642e+02
1.100192e+03,3.458373e+02
1.103085e+03,3.426429e+02
1.105977e+03,3.389974e+02
1.108870e+03,3.350143e+02
1.111763e+03,3.401595e+02
1.114656e+03,3.494787e+02
1.117548e+03,3.479309e+02
1.120441e+03,3.479248e+02
1.123334e+03,3.406141e+02
1.126226e+03,3.376852e+02
1.129119e+03,3.279611e+02
1.132012e+03,3.241776e+02
1.134904e+03,3.193299e+02
1.137797e+03,3.131218e+02
1.140690e+03,3.176445e+02
1.143583e+03,3.190719e+02
1.146475e+03,3.208668e+02
1.149368e+03,3.226397e+02
1.152261e+03,3.206919e+02
1.155153e+03,3.168363e+02
1.158046e+03,3.102376e+02
1.160939e+03,3.079737e+02
1.163831e+03,3.085883e+02
1.166724e+03,3.057852e+02
1.169617e+03,3.060255e+02
1.172510e+03,3.039884e+02
1.175402e+03,3.046120e+02
1.178295e+03,3.017007e+02
1.181188e+03,3.016318e+02
1.184080e+03,3.001559e+02
1.186973e+03,2.946101e+02
1.189866e+03,2.982350e+02
1.192758e+03,2.990349e+02
1.195651e+03,3.002471e+02
1.198544e+03,3.006420e+02
1.201437e+03,2.956956e+02
1.204329e+03,2.992943e+02
1.207222e+03,2.977452e+02
1.210115e+03,2.979987e+02
1.213007e+03,2.907710e+02
1.215900e+03,2.989317e+02
1.218793e+03,2.947491e+02
1.221685e+03,2.916142e+02
1.224578e+03,2.955993e+02
1.227471e+03,2.919930e+02
1.230364e+03,2.969753e+02
1.233256e+03,3.037443e+02
1.236149e+03,2.985799e+02
1.239042e+03,2.988955e+02
1.241934e+03,2.964212e+02
1.244827e+03,2.969560e+02
1.247720e+03,2.978522e+02
1.250612e+03,2.983437e+02
1.253505e+03,2.986902e+02
1.256398e+03,3.026994e+02
1.259291e+03,2.978226e+02
1.262183e+03,2.971653e+02
1.265076e+03,2.978882e+02
1.267969e+03,2.961247e+02
1.270861e+03,3.009393e+02
1.273754e+03,2.997376e+02
1.276647e+03,3.006772e+02
1.279539e+03,2.986421e+02
1.282432e+03,2.990294e+02
1.285325e+03,2.985764e+02
1.288218e+03,3.052030e+02
1.291110e+03,3.066035e+02
1.294003e+03,3.021228e+02
1.296896e+03,3.016454e+02
1.299788e+03,3.030095e+02
1.302681e+03,3.003913e+02
1.305574e+03,3.010415e+02
1.308466e+03,2.995914e+02
1.311359e+03,3.038445e+02
1.314252e+03,3.001725e+02
1.317145e+03,3.074226e+02
1.320037e+03,3.094085e+02
1.322930e+03,3.055592e+02
1.325823e+03,3.062879e+02
1.328715e+03,3.073589e+02
1.331608e+03,3.084271e+02
1.334501e+03,3.148005e+02
1.337393e+03,3.118046e+02
1.340286e+03,3.113060e+02
1.343179e+03,3.067748e+02
1.346072e+03,3.044919e+02
1.348964e+03,3.038987e+02
1.351857e+03,2.989151e+02
1.354750e+03,3.032975e+02
1.357642e+03,3.001061e+02
1.360535e+03,3.050825e+02
1.363428e+03,3.072827e+02
1.366320e+03,3.038395e+02
1.369213e+03,3.090658e+02
1.372106e+03,3.187021e+02
1.374999e+03,3.135854e+02
1.377891e+03,3.161608e+02
1.380784e+03,3.107660e+02
1.383677e+03,3.120739e+02
1.386569e+03,3.028265e+02
1.389462e+03,2.972845e+02
1.392355e+03,3.048597e+02
1.395247e+03,2.966303e+02
1.398140e+03,2.974207e+02
1.401033e+03,2.918765e+02
1.403926e+03,2.974577e+02
1.406818e+03,2.968990e+02
1.409711e+03,2.988753e+02
1.412604e+03,2.962704e+02
1.415496e+03,2.960631e+02
1.418389e+03,2.988615e+02
1.421282e+03,2.916864e+02
1.424174e+03,2.889314e+02
1.427067e+03,2.889512e+02
1.429960e+03,2.862094e+02
1.432853e+03,2.823407e+02
1.435745e+03,2.858056e+02
1.438638e+03,2.836175e+02
1.441531e+03,2.840835e+02
1.444423e+03,2.888925e+02
1.447316e+03,2.833257e+02
1.450209e+03,2.819517e+02
1.453101e+03,2.840558e+02
1.455994e+03,2.872889e+02
1.458887e+03,2.868978e+02
1.461780e+03,2.834164e+02
1.464672e+03,2.880698e+02
1.467565e+03,2.838767e+02
1.470458e+03,2.844950e+02
1.473350e+03,2.856909e+02
1.476243e+03,2.861913e+02
1.479136e+03,2.797695e+02
1.482028e+03,2.792017e+02
1.484921e+03,2.786945e+02
1.487814e+03,2.786539e+02
1.490707e+03,2.727476e+02
1.493599e+03,2.762682e+02
1.496492e+03,2.774071e+02
1.499385e+03,2.773166e+02
1.502277e+03,2.715351e+02
1.505170e+03,2.739805e+02
1.508063e+03,2.759868e+02
1.510955e+03,2.729832e+02
1.513848e+03,2.711988e+02
1.516741e+03,2.706501e+02
1.519634e+03,2.741964e+02
1.522526e+03,2.748175e+02
1.525419e+03,2.681837e+02
1.528312e+03,2.698030e+02
1.531204e+03,2.719217e+02
1.534097e+03,2.708909e+02
1.536990e+03,2.728830e+02
1.539882e+03,2.647355e+02
1.542775e+03,2.685247e+02
1.545668e+03,2.686738e+02
1.548561e+03,2.698067e+02
1.551453e+03,2.722113e+02
1.554346e+03,2.719982e+02
1.557239e+03,2.678627e+02
1.560131e+03,2.725423e+02
1.563024e+03,2.668460e+02
1.565917e+03,2.695752e+02
1.568809e+03,2.708828e+02
1.571702e+03,2.699875e+02
1.574595e+03,2.683413e+02
1.577488e+03,2.698553e+02
1.580380e+03,2.678993e+02
1.583273e+03,2.752315e+02
1.586166e+03,2.704745e+02
1.589058e+03,2.691530e+02
1.591951e+03,2.663274e+02
1.594844e+03,2.653377e+02
1.597736e+03,2.700886e+02
1.600629e+03,2.701875e+02
1.603522e+03,2.658235e+02
1.606415e+03,2.649344e+02
1.609307e+03,2.645401e+02
1.612200e+03,2.615875e+02
1.615093e+03,2.648706e+02
1.617985e+03,2.668180e+02
1.620878e+03,2.645724e+02
1.623771e+03,2.604714e+02
1.626663e+03,2.600116e+02
1.629556e+03,2.609848e+02
1.632449e+03,2.593509e+02
1.635342e+03,2.705158e+02
1.638234e+03,2.638032e+02
1.641127e+03,2.595560e+02
1.644020e+03,2.605310e+02
1.646912e+03,2.593447e+02
1.649805e+03,2.560511e+02
1.652698e+03,2.612067e+02
1.655590e+03,2.576694e+02
1.658483e+03,2.559902e+02
1.661376e+03,2.554974e+02
1.664269e+03,2.542040e+02
1.667161e+03,2.561779e+02
1.670054e+03,2.535517e+02
1.672947e+03,2.540815e+02
1.675839e+03,2.482633e+02
1.678732e+03,2.515211e+02
1.681625e+03,2.510453e+02
1.684517e+03,2.576130e+02
1.687410e+03,2.503591e+02
1.690303e+03,2.516838e+02
1.693196e+03,2.501264e+02
1.696088e+03,2.489351e+02
1.698981e+03,2.515002e+02
1.701874e+03,2.474125e+02
1.704766e+03,2.496728e+02
1.707659e+03,2.561405e+02
1.710552e+03,2.524571e+02
1.713444e+03,2.478637e+02
1.716337e+03,2.507221e+02
1.719230e+03,2.475066e+02
1.722123e+03,2.519156e+02
1.725015e+03,2.486421e+02
1.727908e+03,2.429541e+02
1.730801e+03,2.390774e+02
1.733693e+03,2.415709e+02
1.736586e+03,2.463686e+02
1.739479e+03,2.440565e+02
1.742371e+03,2.420743e+02
1.745264e+03,2.467331e+02
1.748157e+03,2.469600e+02
1.751050e+03,2.480452e+02
1.753942e+03,2.415322e+02
1.756835e+03,2.433895e+02
1.759728e+03,2.460502e+02
1.762620e+03,2.450784e+02
1.765513e+03,2.421978e+02
1.768406e+03,2.417144e+02
1.771298e+03,2.366296e+02
1.774191e+03,2.457892e+02
1.777084e+03,2.373073e+02
1.779977e+03,2.381058e+02
1.782869e+03,2.421685e+02
1.785762e+03,2.425181e+02
1.788655e+03,2.369353e+02
1.791547e+03,2.340021e+02
1.794440e+03,2.373100e+02
1.797333e+03,2.309468e+02
1.800225e+03,2.399141e+02
1.803118e+03,2.437870e+02
1.806011e+03,2.296465e+02
1.808904e+03,2.345024e+02
1.811796e+03,2.383684e+02
1.814689e+03,2.304849e+02
1.817582e+03,2.306083e+02
1.820474e+03,2.349210e+02
1.823367e+03,2.279970e+02
1.826260e+03,2.307952e+02
1.829152e+03,2.344272e+02
1.832045e+03,2.312037e+02
1.834938e+03,2.318924e+02
1.837831e+03,2.315480e+02
1.840723e+03,2.275384e+02
1.843616e+03,2.309579e+02
1.846509e+03,2.333634e+02
1.849401e+03,2.287795e+02
1.852294e+03,2.240405e+02
1.855187e+03,2.237556e+02
1.858079e+03,2.265116e+02
1.860972e+03,2.308616e+02
1.863865e+03,2.323103e+02
1.866758e+03,2.214071e+02
1.869650e+03,2.304996e+02
1.872543e+03,2.195443e+02
1.875436e+03,2.257497e+02
1.878328e+03,2.189219e+02
1.881221e+03,2.222937e+02
1.884114e+03,2.267324e+02
1.887006e+03,2.255288e+02
1.889899e+03,2.234489e+02
1.892792e+03,2.204936e+02
1.895685e+03,2.170323e+02
1.898577e+03,2.285363e+02
1.901470e+03,2.230489e+02
1.904363e+03,2.224811e+02
1.907255e+03,2.252029e+02
1.910148e+03,2.160977e+02
1.913041e+03,2.222276e+02
1.915933e+03,2.201084e+02
1.918826e+03,2.215755e+02
1.921719e+03,2.169340e+02
1.924612e+03,2.129849e+02
1.927504e+03,2.147332e+02
1.930397e+03,2.238925e+02
1.933290e+03,2.102121e+02
1.936182e+03,2.113746e+02
1.939075e+03,2.164448e+02
1.941968e+03,2.189748e+02
1.944860e+03,2.166828e+02
1.947753e+03,2.176877e+02
1.950646e+03,2.142136e+02
1.953539e+03,2.137870e+02
1.956431e+03,2.114055e+02
1.959324e+03,2.171443e+02
1.962217e+03,2.122708e+02
1.965109e+03,2.124261e+02
1.968002e+03,2.109249e+02
1.970895e+03,2.109192e+02
1.973787e+03,2.136642e+02
1.976680e+03,2.037432e+02
1.979573e+03,2.075745e+02
1.982466e+03,2.063616e+02
1.985358e+03,2.109509e+02
1.988251e+03,2.088407e+02
1.991144e+03,2.067750e+02
1.994036e+03,2.054956e+02
1.996929e+03,2.049673e+02
1.999822e+03,2.072976e+02
2.002714e+03,2.057083e+02
2.005607e+03,2.072467e+02
2.008500e+03,2.099294e+02
2.011393e+03,2.086596e+02
2.014285e+03,2.020996e+02
2.017178e+03,2.077509e+02
2.020071e+03,2.022086e+02
2.022963e+03,2.050986e+02
2.025856e+03,2.035803e+02
2.028749e+03,2.012901e+02
2.031641e+03,2.052548e+02
2.034534e+03,2.069717e+02
2.037427e+03,2.032039e+02
2.040320e+03,1.978607e+02
2.043212e+03,1.998604e+02
2.046105e+03,1.997326e+02
2.048998e+03,1.976916e+02
2.051890e+03,1.962376e+02
2.054783e+03,1.940352e+02
2.057676e+03,1.973395e+02
2.060568e+03,1.920606e+02
2.063461e+03,2.011828e+02
2.066354e+03,2.022812e+02
2.069247e+03,1.941205e+02
2.072139e+03,1.916856e+02
2.075032e+03,1.953289e+02
2.077925e+03,1.940814e+02
2.080817e+03,1.908046e+02
2.083710e+03,1.871592e+02
2.086603e+03,1.910378e+02
2.089496e+03,1.965768e+02
2.092388e+03,1.910969e+02
2.095281e+03,1.974407e+02
2.098174e+03,1.954867e+02
2.101066e+03,1.834511e+02
2.103959e+03,1.887619e+02
2.106852e+03,1.875047e+02
2.109744e+03,1.857526e+02
2.112637e+03,1.859616e+02
2.115530e+03,1.867336e+02
2.118422e+03,1.782464e+02
2.121315e+03,1.854743e+02
2.124208e+03,1.854757e+02
2.127101e+03,1.811768e+02
2.129993e+03,1.810762e+02
2.132886e+03,1.903724e+02
2.135779e+03,1.854169e+02
2.138671e+03,1.833548e+02
2.141564e+03,1.897849e+02
2.144457e+03,1.817665e+02
2.147350e+03,1.793608e+02
2.150242e+03,1.891236e+02
2.153135e+03,1.854636e+02
2.156028e+03,1.865422e+02
2.158920e+03,1.813355e+02
2.161813e+03,1.799732e+02
2.164706e+03,1.859248e+02
2.167598e+03,1.833984e+02
2.170491e+03,1.754455e+02
2.173384e+03,1.808936e+02
2.176277e+03,1.842721e+02
2.179169e+03,1.804862e+02
2.182062e+03,1.731628e+02
2.184955e+03,1.822579e+02
2.187847e+03,1.819703e+02
2.190740e+03,1.757584e+02
2.193633e+03,1.745778e+02
2.196525e+03,1.694416e+02
2.199418e+03,1.774203e+02
2.202311e+03,1.730196e+02
2.205204e+03,1.709038e+02
2.208096e+03,1.734876e+02
2.210989e+03,1.740347e+02
2.213882e+03,1.747637e+02
2.216774e+03,1.714219e+02
2.219667e+03,1.758233e+02
2.222560e+03,1.722683e+02
2.225452e+03,1.766185e+02
2.228345e+03,1.714380e+02
2.231238e+03,1.696665e+02
2.234131e+03,1.764692e+02
2.237023e+03,1.754108e+02
2.239916e+03,1.664621e+02
2.242809e+03,1.734383e+02
2.245701e+03,1.739298e+02
2.248594e+03,1.671389e+02
2.251487e+03,1.709417e+02
2.254379e+03,1.683264e+02
2.257272e+03,1.703942e+02
2.260165e+03,1.631347e+02
2.263058e+03,1.675208e+02
2.265950e+03,1.663831e+02
2.268843e+03,1.632905e+02
2.271736e+03,1.680015e+02
2.274628e+03,1.684273e+02
2.277521e+03,1.675751e+02
2.280414e+03,1.645511e+02
2.283306e+03,1.654997e+02
2.286199e+03,1.646166e+02
2.289092e+03,1.626622e+02
2.291985e+03,1.592858e+02
2.294877e+03,1.660009e+02
2.297770e+03,1.592094e+02
2.300663e+03,1.596710e+02
2.303555e+03,1.633397e+02
2.306448e+03,1.549980e+02
2.309341e+03,1.636273e+02
2.312233e+03,1.681786e+02
2.315126e+03,1.615867e+02
2.318019e+03,1.604903e+02
2.320912e+03,1.599658e+02
2.323804e+03,1.565655e+02
2.326697e+03,1.666720e+02
2.329590e+03,1.538234e+02
2.332482e+03,1.574727e+02
2.335375e+03,1.506028e+02
2.338268e+03,1.540774e+02
2.341160e+03,1.566885e+02
2.344053e+03,1.605948e+02
2.346946e+03,1.576846e+02
2.349839e+03,1.540557e+02
2.352731e+03,1.540853e+02
2.355624e+03,1.542512e+02
2.358517e+03,1.587554e+02
2.361409e+03,1.543171e+02
2.364302e+03,1.623069e+02
2.367195e+03,1.511485e+02
2.370087e+03,1.624111e+02
2.372980e+03,1.528677e+02
2.375873e+03,1.559969e+02
2.378766e+03,1.542033e+02
2.381658e+03,1.534323e+02
2.384551e+03,1.530089e+02
2.387444e+03,1.501742e+02
2.390336e+03,1.511275e+02
2.393229e+03,1.475886e+02
2.396122e+03,1.524607e+02
2.399014e+03,1.429301e+02
2.401907e+03,1.554841e+02
2.404800e+03,1.484437e+02
2.407693e+03,1.457492e+02
2.410585e+03,1.531226e+02
2.413478e+03,1.412134e+02
2.416371e+03,1.480491e+02
2.419263e+03,1.486723e+02
2.422156e+03,1.532578e+02
2.425049e+03,1.471969e+02
2.427941e+03,1.529431e+02
2.430834e+03,1.418397e+02
2.433727e+03,1.500300e+02
2.436620e+03,1.444208e+02
2.439512e+03,1.493137e+02
2.442405e+03,1.491719e+02
2.445298e+03,1.461133e+02
2.448190e+03,1.475022e+02
2.451083e+03,1.452882e+02
2.453976e+03,1.487560e+02
2.456868e+03,1.483041e+02
2.459761e+03,1.454442e+02
2.462654e+03,1.480634e+02
2.465547e+03,1.470915e+02
2.468439e+03,1.385950e+02
2.471332e+03,1.458577e+02
2.474225e+03,1.410303e+02
2.477117e+03,1.461327e+02
2.480010e+03,1.491517e+02
2.482903e+03,1.453474e+02
2.485795e+03,1.392356e+02
2.488688e+03,1.419240e+02
2.491581e+03,1.440966e+02
2.494474e+03,1.400561e+02
2.497366e+03,1.406564e+02
2.500259e+03,1.383950e+02
2.503152e+03,1.455584e+02
2.506044e+03,1.393857e+02
2.508937e+03,1.447370e+02
2.511830e+03,1.471524e+02
2.514722e+03,1.441151e+02
2.517615e+03,1.435491e+02
2.520508e+03,1.480111e+02
2.523401e+03,1.390558e+02
2.526293e+03,1.365789e+02
2.529186e+03,1.400569e+02
2.532079e+03,1.425578e+02
2.534971e+03,1.468130e+02
2.537864e+03,1.312828e+02
2.540757e+03,1.396473e+02
2.543649e+03,1.489700e+02
2.546542e+03,1.567919e+02
2.549435e+03,1.378705e+02
2.552328e+03,1.547814e+02
2.555220e+03,1.595341e+02
2.558113e+03,1.467644e+02
2.561006e+03,1.508618e+02
2.563898e+03,1.423658e+02
2.566791e+03,1.409007e+02
2.569684e+03,1.449133e+02
2.572576e+03,1.481596e+02
2.575469e+03,1.443137e+02
2.578362e+03,1.464074e+02
2.581255e+03,1.438930e+02
2.584147e+03,1.448708e+02
2.587040e+03,1.434699e+02
2.589933e+03,1.377341e+02
2.592825e+03,1.352607e+02
2.595718e+03,1.392975e+02
2.598611e+03,1.364334e+02
2.601503e+03,1.395256e+02
2.604396e+03,1.380179e+02
2.607289e+03,1.433376e+02
2.610182e+03,1.302807e+02
2.613074e+03,1.352040e+02
2.615967e+03,1.302815e+02
2.618860e+03,1.354783e+02
2.621752e+03,1.292462e+02
2.624645e+03,1.399394e+02
2.627538e+03,1.343098e+02
2.630430e+03,1.351296e+02
2.633323e+03,1.286738e+02
2.636216e+03,1.316400e+02
2.639109e+03,1.347822e+02
2.642001e+03,1.392052e+02
2.644894e+03,1.347375e+02
2.647787e+03,1.357851e+02
2.650679e+03,1.328234e+02
2.653572e+03,1.326643e+02
2.656465e+03,1.398487e+02
2.659357e+03,1.372978e+02
2.662250e+03,1.346971e+02
2.665143e+03,1.374789e+02
2.668036e+03,1.355132e+02
2.670928e+03,1.316769e+02
2.673821e+03,1.370383e+02
2.676714e+03,1.309151e+02
2.679606e+03,1.390845e+02
2.682499e+03,1.325470e+02
2.685392e+03,1.348786e+02
2.688284e+03,1.340373e+02
2.691177e+03,1.325921e+02
2.694070e+03,1.356732e+02
2.696963e+03,1.326286e+02
2.699855e+03,1.296127e+02
2.702748e+03,1.309322e+02
2.705641e+03,1.335936e+02
2.708533e+03,1.324676e+02
2.711426e+03,1.392128e+02
2.714319e+03,1.345950e+02
2.717211e+03,1.383454e+02
2.720104e+03,1.386478e+02
2.722997e+03,1.239104e+02
2.725890e+03,1.313863e+02
2.728782e+03,1.229177e+02
2.731675e+03,1.312718e+02
2.734568e+03,1.311861e+02
2.737460e+03,1.298611e+02
2.740353e+03,1.325144e+02
2.743246e+03,1.307710e+02
2.746138e+03,1.255725e+02
2.749031e+03,1.391099e+02
2.751924e+03,1.258034e+02
2.754817e+03,1.325568e+02
2.757709e+03,1.316207e+02
2.760602e+03,1.386602e+02
2.763495e+03,1.375369e+02
2.766387e+03,1.295628e+02
2.769280e+03,1.319946e+02
2.772173e+03,1.271019e+02
2.775065e+03,1.310508e+02
2.777958e+03,1.337220e+02
2.780851e+03,1.257069e+02
2.783744e+03,1.303486e+02
2.786636e+03,1.322935e+02
2.789529e+03,1.257279e+02
2.792422e+03,1.447586e+02
2.795314e+03,1.233009e+02
2.798207e+03,1.365763e+02
2.801100e+03,1.353430e+02
2.803992e+03,1.350359e+02
2.806885e+03,1.268026e+02
2.809778e+03,1.375474e+02
2.812671e+03,1.473219e+02
2.815563e+03,1.274446e+02
2.818456e+03,1.282460e+02
2.821349e+03,1.242702e+02
2.824241e+03,1.358351e+02
2.827134e+03,1.362761e+02
2.830027e+03,1.315461e+02
2.832919e+03,1.384387e+02
2.835812e+03,1.419266e+02
2.838705e+03,1.394385e+02
2.841598e+03,1.375133e+02
2.844490e+03,1.386095e+02
2.847383e+03,1.353154e+02
2.850276e+03,1.519969e+02
2.853168e+03,1.390893e+02
2.856061e+03,1.494361e+02
2.858954e+03,1.394588e+02
2.861846e+03,1.584047e+02
2.864739e+03,1.514153e+02
2.867632e+03,1.566030e+02
2.870525e+03,1.710120e+02
2.873417e+03,1.606343e+02
2.876310e+03,1.621537e+02
2.879203e+03,1.607186e+02
2.882095e+03,1.670165e+02
2.884988e+03,1.778439e+02
2.887881e+03,1.767277e+02
2.890773e+03,1.855922e+02
2.893666e+03,1.770622e+02
2.896559e+03,1.833695e+02
2.899452e+03,1.842959e+02
2.902344e+03,1.751383e+02
2.905237e+03,1.647517e+02
2.908130e+03,1.607046e+02
2.911022e+03,1.739619e+02
2.913915e+03,1.645360e+02
2.916808e+03,1.623365e+02
2.919700e+03,1.654999e+02
2.922593e+03,1.559810e+02
2.925486e+03,1.725109e+02
2.928379e+03,1.463475e+02
2.931271e+03,1.559437e+02
2.934164e+03,1.664974e+02
2.937057e+03,1.359227e+02
2.939949e+03,1.563447e+02
2.942842e+03,1.424513e+02
2.945735e+03,1.553451e+02
2.948627e+03,1.501634e+02
2.951520e+03,1.544779e+02
2.954413e+03,1.423034e+02
2.957306e+03,1.804306e+02
2.960198e+03,1.542564e+02
2.963091e+03,1.448181e+02
2.965984e+03,1.443687e+02
2.968876e+03,1.273464e+02
2.971769e+03,1.398908e+02
2.974662e+03,1.289951e+02
2.977554e+03,1.323924e+02
2.980447e+03,1.240494e+02
2.983340e+03,1.260825e+02
2.986233e+03,1.352896e+02
2.989125e+03,1.287832e+02
2.992018e+03,1.314671e+02
2.994911e+03,1.225183e+02
2.997803e+03,1.353488e+02
3.000696e+03,1.236364e+02
3.003589e+03,1.180460e+02
3.006481e+03,1.324842e+02
3.009374e+03,1.284173e+02
3.012267e+03,1.249626e+02
3.015160e+03,1.196040e+02
3.018052e+03,1.067248e+02
3.020945e+03,1.326874e+02
3.023838e+03,1.163407e+02
3.026730e+03,1.133110e+02
3.029623e+03,1.249722e+02
3.032516e+03,1.113027e+02
3.035408e+03,1.027250e+02
3.038301e+03,1.222254e+02
3.041194e+03,1.148672e+02
3.044087e+03,1.175209e+02
3.046979e+03,1.134495e+02
3.049872e+03,1.252964e+02
3.052765e+03,1.233545e+02
3.055657e+03,1.202502e+02
3.058550e+03,1.304780e+02
3.061443e+03,1.285487e+02
3.064335e+03,1.142206e+02
3.067228e+03,1.104548e+02
3.070121e+03,1.257532e+02
3.073014e+03,1.127117e+02
3.075906e+03,1.154063e+02
3.078799e+03,9.993914e+01
3.081692e+03,1.368368e+02
3.084584e+03,1.135392e+02
3.087477e+03,1.220424e+02
3.090370e+03,1.203477e+02
3.093262e+03,1.113094e+02
3.096155e+03,1.467568e+02
3.099048e+03,1.206152e+02
3.101941e+03,1.169419e+02
3.104833e+03,1.087918e+02
3.107726e+03,1.364757e+02
3.110619e+03,1.349113e+02
3.113511e+03,1.100932e+02
3.116404e+03,1.279945e+02
3.119297e+03,1.342108e+02
3.122189e+03,1.235470e+02
3.125082e+03,1.465731e+02
3.127975e+03,1.400988e+02
3.130868e+03,1.249242e+02
3.133760e+03,1.250237e+02
3.136653e+03,1.077378e+02
3.139546e+03,1.269957e+02
3.142438e+03,1.385213e+02
3.145331e+03,1.047228e+02
3.148224e+03,1.356291e+02
3.151116e+03,1.230489e+02
3.154009e+03,1.404054e+02
3.156902e+03,1.278957e+02
3.159795e+03,1.368214e+02
3.162687e+03,1.381377e+02
3.165580e+03,1.279657e+02
3.168473e+03,1.512283e+02
3.171365e+03,1.389212e+02
3.174258e+03,1.367589e+02
3.177151e+03,1.158587e+02
3.180043e+03,1.410557e+02
3.182936e+03,1.551926e+02
3.185829e+03,1.400878e+02
3.188722e+03,1.206369e+02
3.191614e+03,1.431819e+02
3.194507e+03,1.523690e+02
3.197400e+03,1.202623e+02
3.200292e+03,1.525664e+02
3.203185e+03,0.000000e+00
3.206078e+03,0.000000e+00
3.208970e+03,0.000000e+00
3.211863e+03,0.000000e+00
3.214756e+03,0.000000e+00
3.217649e+03,0.000000e+00
3.220541e+03,0.000000e+00
3.223434e+03,0.000000e+00
3.226327e+03,0.000000e+00
3.229219e+03,0.000000e+00
3.232112e+03,0.000000e+00
3.235005e+03,0.000000e+00
3.237897e+03,0.000000e+00
3.240790e+03,0.000000e+00
3.243683e+03,0.000000e+00
3.246576e+03,0.000000e+00
3.249468e+03,0.000000e+00
3.252361e+03,0.000000e+00
3.255254e+03,0.000000e+00
3.258146e+03,0.000000e+00
3.261039e+03,0.000000e+00
3.263932e+03,0.000000e+00
3.266824e+03,0.000000e+00
3.269717e+03,0.000000e+00
3.272610e+03,0.000000e+00
3.275503e+03,0.000000e+00
3.278395e+03,0.000000e+00
3.281288e+03,0.000000e+00
3.284181e+03,0.000000e+00
3.287073e+03,0.000000e+00
3.289966e+03,0.000000e+00
3.292859e+03,0.000000e+00
3.295751e+03,0.000000e+00
3.298644e+03,0.000000e+00
3.301537e+03,0.000000e+00
3.304430e+03,0.000000e+00
3.307322e+03,0.000000e+00
3.310215e+03,0.000000e+00
3.313108e+03,0.000000e+00
3.316000e+03,0.000000e+00
3.318893e+03,0.000000e+00
3.321786e+03,0.000000e+00
3.324678e+03,0.000000e+00
3.327571e+03,0.000000e+00
3.330464e+03,0.000000e+00
3.333357e+03,0.000000e+00
3.336249e+03,0.000000e+00
3.339142e+03,0.000000e+00
3.342035e+03,0.000000e+00
3.344927e+03,0.000000e+00
3.347820e+03,0.000000e+00
3.350713e+03,0.000000e+00
3.353605e+03,0.000000e+00
3.356498e+03,0.000000e+00
3.359391e+03,0.000000e+00
3.362284e+03,0.000000e+00
3.365176e+03,0.000000e+00
3.368069e+03,0.000000e+00
3.370962e+03,0.000000e+00
3.373854e+03,0.000000e+00
3.376747e+03,0.000000e+00
3.379640e+03,0.000000e+00
3.382532e+03,0.000000e+00
3.385425e+03,0.000000e+00
3.388318e+03,0.000000e+00
3.391211e+03,0.000000e+00
3.394103e+03,0.000000e+00
3.396996e+03,0.000000e+00
3.399889e+03,0.000000e+00
3.402781e+03,0.000000e+00
3.405674e+03,0.000000e+00
3.408567e+03,0.000000e+00
3.411459e+03,0.000000e+00
3.414352e+03,0.000000e+00
3.417245e+03,0.000000e+00
3.420138e+03,0.000000e+00
3.423030e+03,0.000000e+00
3.425923e+03,0.000000e+00
3.428816e+03,0.000000e+00
3.431708e+03,0.000000e+00
3.434601e+03,0.000000e+00
3.437494e+03,0.000000e+00
3.440386e+03,0.000000e+00
3.443279e+03,0.000000e+00
3.446172e+03,0.000000e+00
3.449065e+03,0.000000e+00
3.451957e+03,0.000000e+00
3.454850e+03,0.000000e+00
3.457743e+03,0.000000e+00
3.460635e+03,0.000000e+00
3.463528e+03,0.000000e+00
3.466421e+03,0.000000e+00
3.469313e+03,0.000000e+00
3.472206e+03,0.000000e+00
3.475099e+03,0.000000e+00
3.477992e+03,0.000000e+00
3.480884e+03,0.000000e+00
3.483777e+03,0.000000e+00
3.486670e+03,0.000000e+00
3.489563e+03,0.000000e+00
3.492455e+03,0.000000e+00
3.495348e+03,0.000000e+00
3.498240e+03,0.000000e+00
3.500169e+03,0.000000e+00