File: RAMAN_data/14032024_r1/red fibre2.CSV
9.931763e+01,0.000000e+00
1.022103e+02,0.000000e+00
1.051030e+02,0.000000e+00
1.079957e+02,0.000000e+00
1.108884e+02,0.000000e+00
1.137811e+02,0.000000e+00
1.166738e+02,0.000000e+00
1.195665e+02,0.000000e+00
1.224592e+02,0.000000e+00
1.253519e+02,0.000000e+00
1.282446e+02,0.000000e+00
1.311373e+02,0.000000e+00
1.340300e+02,0.000000e+00
1.369227e+02,0.000000e+00
1.398154e+02,0.000000e+00
1.427081e+02,0.000000e+00
1.456008e+02,0.000000e+00
1.484935e+02,0.000000e+00
1.513862e+02,0.000000e+00
1.542789e+02,0.000000e+00
1.571716e+02,0.000000e+00
1.600643e+02,0.000000e+00
1.629570e+02,0.000000e+00
1.658497e+02,0.000000e+00
1.687424e+02,0.000000e+00
1.716351e+02,0.000000e+00
1.745278e+02,0.000000e+00
1.774205e+02,0.000000e+00
1.803132e+02,0.000000e+00
1.832059e+02,0.000000e+00
1.860986e+02,0.000000e+00
1.889913e+02,0.000000e+00
1.918840e+02,0.000000e+00
1.947767e+02,0.000000e+00
1.976694e+02,0.000000e+00
2.005621e+02,4.995246e+02
2.034548e+02,5.006845e+02
2.063475e+02,5.060054e+02
2.092402e+02,5.044161e+02
2.121329e+02,4.981583e+02
2.150256e+02,5.041503e+02
2.179183e+02,4.998045e+02
2.208110e+02,5.023977e+02
2.237037e+02,5.051251e+02
2.265964e+02,5.030373e+02
2.294892e+02,5.094057e+02
2.323819e+02,5.067714e+02
2.352746e+02,5.023213e+02
2.381673e+02,5.044428e+02
2.410600e+02,4.952068e+02
2.439527e+02,5.062007e+02
2.468454e+02,5.045013e+02
2.497381e+02,5.057109e+02
2.526308e+02,5.067124e+02
2.555235e+02,5.060435e+02
2.584161e+02,5.044122e+02
2.613088e+02,5.067452e+02
2.642015e+02,5.128098e+02
2.670942e+02,5.081489e+02
2.699869e+02,5.085103e+02
2.728796e+02,5.014765e+02
2.757723e+02,5.073201e+02
2.786650e+02,5.048388e+02
2.815577e+02,5.087072e+02
2.844504e+02,5.096537e+02
2.873431e+02,5.064157e+02
2.902358e+02,5.074958e+02
2.931285e+02,5.106316e+02
2.960212e+02,5.117872e+02
2.989139e+02,5.129225e+02
3.018066e+02,5.123964e+02
3.046993e+02,5.110032e+02
3.075920e+02,5.097202e+02
3.104847e+02,5.160663e+02
3.133774e+02,5.064680e+02
3.162701e+02,5.166298e+02
3.191628e+02,5.116695e+02
3.220555e+02,5.094961e+02
3.249482e+02,5.196624e+02
3.278409e+02,5.176315e+02
3.307336e+02,5.197546e+02
3.336263e+02,5.182158e+02
3.365190e+02,5.093720e+02
3.394117e+02,5.156496e+02
3.423044e+02,5.178475e+02
3.451971e+02,5.248858e+02
3.480898e+02,5.186635e+02
3.509825e+02,5.151492e+02
3.538752e+02,5.177009e+02
3.567680e+02,5.154890e+02
3.596607e+02,5.215487e+02
3.625534e+02,5.216692e+02
3.654461e+02,5.194411e+02
3.683388e+02,5.152588e+02
3.712315e+02,5.231584e+02
3.741242e+02,5.301961e+02
3.770169e+02,5.376525e+02
3.799096e+02,5.319791e+02
3.828023e+02,5.246423e+02
3.856950e+02,5.201933e+02
3.885877e+02,5.178690e+02
3.914804e+02,5.134565e+02
3.943731e+02,5.141014e+02
3.972658e+02,5.093844e+02
4.001585e+02,5.135054e+02
4.030512e+02,5.124607e+02
4.059439e+02,5.096362e+02
4.088366e+02,5.115509e+02
4.117293e+02,5.052389e+02
4.146220e+02,5.060025e+02
4.175147e+02,5.161476e+02
4.204074e+02,5.157712e+02
4.233001e+02,5.116989e+02
4.261928e+02,5.122761e+02
4.290855e+02,5.159588e+02
4.319782e+02,5.206730e+02
4.348709e+02,5.284680e+02
4.377636e+02,5.267462e+02
4.406563e+02,5.142652e+02
4.435490e+02,5.087173e+02
4.464417e+02,5.144763e+02
4.493344e+02,5.169440e+02
4.522271e+02,5.153004e+02
4.551198e+02,5.203469e+02
4.580125e+02,5.138564e+02
4.609052e+02,5.100229e+02
4.637979e+02,5.115277e+02
4.666906e+02,5.058725e+02
4.695833e+02,5.056287e+02
4.724760e+02,5.086996e+02
4.753687e+02,5.018559e+02
4.782614e+02,5.056876e+02
4.811541e+02,5.008380e+02
4.840468e+02,5.059862e+02
4.869395e+02,5.031913e+02
4.898322e+02,5.094043e+02
4.927249e+02,5.050461e+02
4.956176e+02,5.099167e+02
4.985103e+02,5.092899e+02
5.014030e+02,5.036457e+02
5.042957e+02,5.018445e+02
5.071884e+02,4.997263e+02
5.100811e+02,5.065415e+02
5.129738e+02,5.097035e+02
5.158665e+02,5.099837e+02
5.187592e+02,5.161018e+02
5.216519e+02,5.049909e+02
5.245446e+02,5.018346e+02
5.274373e+02,5.025602e+02
5.303300e+02,5.011100e+02
5.332227e+02,5.011490e+02
5.361154e+02,4.978338e+02
5.390081e+02,5.054401e+02
5.419008e+02,4.970857e+02
5.447935e+02,4.964953e+02
5.476862e+02,4.989001e+02
5.505789e+02,4.990620e+02
5.534716e+02,4.975258e+02
5.563643e+02,5.035797e+02
5.592570e+02,5.024450e+02
5.621497e+02,5.031481e+02
5.650424e+02,5.024159e+02
5.679351e+02,4.989938e+02
5.708278e+02,5.020555e+02
5.737205e+02,5.013588e+02
5.766132e+02,5.074413e+02
5.795059e+02,4.972701e+02
5.823986e+02,5.006677e+02
5.852913e+02,4.960493e+02
5.881840e+02,4.938473e+02
5.910767e+02,5.004694e+02
5.939694e+02,5.003691e+02
5.968621e+02,4.933425e+02
5.997548e+02,4.962530e+02
6.026475e+02,4.940442e+02
6.055402e+02,5.048305e+02
6.084329e+02,5.017709e+02
6.113256e+02,4.959214e+02
6.142183e+02,4.945892e+02
6.171110e+02,4.899741e+02
6.200037e+02,4.917522e+02
6.228964e+02,4.947964e+02
6.257891e+02,4.913998e+02
6.286818e+02,4.898467e+02
6.315745e+02,4.875958e+02
6.344672e+02,4.894410e+02
6.373599e+02,4.945663e+02
6.402526e+02,4.944055e+02
6.431453e+02,4.865272e+02
6.460380e+02,4.808513e+02
6.489307e+02,4.835879e+02
6.518234e+02,4.893497e+02
6.547161e+02,4.870418e+02
6.576088e+02,4.845305e+02
6.605015e+02,4.814743e+02
6.633942e+02,4.810708e+02
6.662869e+02,4.773396e+02
6.691796e+02,4.852464e+02
6.720723e+02,4.901151e+02
6.749650e+02,4.859142e+02
6.778577e+02,4.772745e+02
6.807504e+02,4.833761e+02
6.836431e+02,4.812239e+02
6.865358e+02,4.872786e+02
6.894285e+02,4.855889e+02
6.923212e+02,4.792194e+02
6.952139e+02,4.801375e+02
6.981066e+02,4.790612e+02
7.009993e+02,4.757845e+02
7.038920e+02,4.802639e+02
7.067847e+02,4.816762e+02
7.096774e+02,4.844659e+02
7.125701e+02,4.830970e+02
7.154628e+02,4.776314e+02
7.183555e+02,4.790739e+02
7.212482e+02,4.790043e+02
7.241409e+02,4.766294e+02
7.270336e+02,4.736773e+02
7.299263e+02,4.758595e+02
7.328190e+02,4.757491e+02
7.357117e+02,4.795748e+02
7.386044e+02,4.807172e+02
7.414971e+02,4.747919e+02
7.443898e+02,4.750640e+02
7.472825e+02,4.714100e+02
7.501752e+02,4.742159e+02
7.530679e+02,4.741181e+02
7.559606e+02,4.740027e+02
7.588533e+02,4.743975e+02
7.617460e+02,4.702741e+02
7.646387e+02,4.766273e+02
7.675314e+02,4.708585e+02
7.704241e+02,4.668119e+02
7.733168e+02,4.635177e+02
7.762095e+02,4.724488e+02
7.791022e+02,4.682367e+02
7.819949e+02,4.760912e+02
7.848876e+02,4.647450e+02
7.877803e+02,4.700035e+02
7.906730e+02,4.754543e+02
7.935657e+02,4.662290e+02
7.964584e+02,4.670050e+02
7.993511e+02,4.677660e+02
8.022438e+02,4.662081e+02
8.051365e+02,4.672434e+02
8.080292e+02,4.657040e+02
8.109219e+02,4.670466e+02
8.138146e+02,4.647734e+02
8.167073e+02,4.585201e+02
8.196000e+02,4.636892e+02
8.224927e+02,4.620166e+02
8.253854e+02,4.639448e+02
8.282781e+02,4.657049e+02
8.311708e+02,4.604914e+02
8.340635e+02,4.651051e+02
8.369562e+02,4.700794e+02
8.398489e+02,4.662284e+02
8.427416e+02,4.638477e+02
8.456343e+02,4.627495e+02
8.485270e+02,4.628577e+02
8.514197e+02,4.576295e+02
8.543124e+02,4.559547e+02
8.572051e+02,4.588150e+02
8.600978e+02,4.595896e+02
8.629905e+02,4.585956e+02
8.658832e+02,4.602769e+02
8.687759e+02,4.653954e+02
8.716686e+02,4.633422e+02
8.745613e+02,4.640284e+02
8.774540e+02,4.661512e+02
8.803467e+02,4.657743e+02
8.832394e+02,4.652933e+02
8.861321e+02,4.706134e+02
8.890248e+02,4.683427e+02
8.919175e+02,4.688228e+02
8.948102e+02,4.583532e+02
8.977029e+02,4.564715e+02
9.005956e+02,4.615367e+02
9.034883e+02,4.613124e+02
9.063810e+02,4.596108e+02
9.092737e+02,4.567277e+02
9.121664e+02,4.499305e+02
9.150591e+02,4.592553e+02
9.179518e+02,4.543280e+02
9.208445e+02,4.504955e+02
9.237372e+02,4.556616e+02
9.266299e+02,4.500255e+02
9.295226e+02,4.596527e+02
9.324153e+02,4.550844e+02
9.353080e+02,4.524700e+02
9.382007e+02,4.532939e+02
9.410934e+02,4.504052e+02
9.439861e+02,4.468856e+02
9.468788e+02,4.450762e+02
9.497715e+02,4.507856e+02
9.526642e+02,4.526020e+02
9.555569e+02,4.524974e+02
9.584496e+02,4.514373e+02
9.613423e+02,4.491614e+02
9.642350e+02,4.494612e+02
9.671277e+02,4.496320e+02
9.700204e+02,4.506865e+02
9.729131e+02,4.499964e+02
9.758058e+02,4.470241e+02
9.786985e+02,4.496393e+02
9.815912e+02,4.479536e+02
9.844839e+02,4.499710e+02
9.873766e+02,4.500385e+02
9.902693e+02,4.525359e+02
9.931620e+02,4.476729e+02
9.960547e+02,4.487539e+02
9.989474e+02,4.455787e+02
1.001840e+03,4.456970e+02
1.004733e+03,4.393409e+02
1.007626e+03,4.432387e+02
1.010518e+03,4.473544e+02
1.013411e+03,4.427669e+02
1.016304e+03,4.406102e+02
1.019196e+03,4.401660e+02
1.022089e+03,4.486534e+02
1.024982e+03,4.462257e+02
1.027875e+03,4.488207e+02
1.030767e+03,4.439090e+02
1.033660e+03,4.438054e+02
1.036552e+03,4.457316e+02
1.039445e+03,4.505975e+02
1.042338e+03,4.453883e+02
1.045231e+03,4.462370e+02
1.048123e+03,4.473335e+02
1.051016e+03,4.475910e+02
1.053909e+03,4.502806e+02
1.056802e+03,4.498884e+02
1.059694e+03,4.519986e+02
1.062587e+03,4.462865e+02
1.065479e+03,4.499079e+02
1.068372e+03,4.543627e+02
1.071265e+03,4.497798e+02
1.074158e+03,4.541261e+02
1.077050e+03,4.554028e+02
1.079943e+03,4.554176e+02
1.082836e+03,4.559137e+02
1.085729e+03,4.604730e+02
1.088621e+03,4.762545e+02
1.091514e+03,4.776427e+02
1.094406e+03,4.799981e+02
1.097299e+03,4.750952e+02
1.100192e+03,4.736161e+02
1.103085e+03,4.645284e+02
1.105977e+03,4.658643e+02
1.108870e+03,4.624244e+02
1.111763e+03,4.611909e+02
1.114656e+03,4.709620e+02
1.117548e+03,4.749017e+02
1.120441e+03,4.700810e+02
1.123334e+03,4.682308e+02
1.126226e+03,4.599526e+02
1.129119e+03,4.554588e+02
1.132012e+03,4.538209e+02
1.134904e+03,4.505124e+02
1.137797e+03,4.448793e+02
1.140690e+03,4.446691e+02
1.143583e+03,4.509943e+02
1.146475e+03,4.545680e+02
1.149368e+03,4.552407e+02
1.152261e+03,4.559966e+02
1.155153e+03,4.534064e+02
1.158046e+03,4.420284e+02
1.160939e+03,4.440913e+02
1.163831e+03,4.451697e+02
1.166724e+03,4.440363e+02
1.169617e+03,4.411625e+02
1.172510e+03,4.419552e+02
1.175402e+03,4.474727e+02
1.178295e+03,4.445758e+02
1.181188e+03,4.414391e+02
1.184080e+03,4.464696e+02
1.186973e+03,4.375006e+02
1.189866e+03,4.435555e+02
1.192758e+03,4.400188e+02
1.195651e+03,4.397736e+02
1.198544e+03,4.358852e+02
1.201437e+03,4.369879e+02
1.204329e+03,4.411706e+02
1.207222e+03,4.438948e+02
1.210115e+03,4.417190e+02
1.213007e+03,4.440757e+02
1.215900e+03,4.427128e+02
1.218793e+03,4.360612e+02
1.221685e+03,4.370426e+02
1.224578e+03,4.476844e+02
1.227471e+03,4.425939e+02
1.230364e+03,4.379821e+02
1.233256e+03,4.370970e+02
1.236149e+03,4.492492e+02
1.239042e+03,4.435871e+02
1.241934e+03,4.443339e+02
1.244827e+03,4.381962e+02
1.247720e+03,4.450837e+02
1.250612e+03,4.396166e+02
1.253505e+03,4.409197e+02
1.256398e+03,4.433604e+02
1.259291e+03,4.419867e+02
1.262183e+03,4.422553e+02
1.265076e+03,4.412822e+02
1.267969e+03,4.464117e+02
1.270861e+03,4.460440e+02
1.273754e+03,4.471051e+02
1.276647e+03,4.472656e+02
1.279539e+03,4.470983e+02
1.282432e+03,4.456200e+02
1.285325e+03,4.494230e+02
1.288218e+03,4.508979e+02
1.291110e+03,4.454930e+02
1.294003e+03,4.477823e+02
1.296896e+03,4.479200e+02
1.299788e+03,4.440512e+02
1.302681e+03,4.453459e+02
1.305574e+03,4.471618e+02
1.308466e+03,4.496024e+02
1.311359e+03,4.458879e+02
1.314252e+03,4.450995e+02
1.317145e+03,4.487703e+02
1.320037e+03,4.488913e+02
1.322930e+03,4.424196e+02
1.325823e+03,4.538556e+02
1.328715e+03,4.460769e+02
1.331608e+03,4.529605e+02
1.334501e+03,4.528479e+02
1.337393e+03,4.550499e+02
1.340286e+03,4.592785e+02
1.343179e+03,4.538401e+02
1.346072e+03,4.502205e+02
1.348964e+03,4.519849e+02
1.351857e+03,4.488897e+02
1.354750e+03,4.505301e+02
1.357642e+03,4.487194e+02
1.360535e+03,4.539152e+02
1.363428e+03,4.536662e+02
1.366320e+03,4.565465e+02
1.369213e+03,4.585938e+02
1.372106e+03,4.558223e+02
1.374999e+03,4.518550e+02
1.377891e+03,4.579240e+02
1.380784e+03,4.607469e+02
1.383677e+03,4.511129e+02
1.386569e+03,4.503257e+02
1.389462e+03,4.411611e+02
1.392355e+03,4.440210e+02
1.395247e+03,4.436193e+02
1.398140e+03,4.411203e+02
1.401033e+03,4.360269e+02
1.403926e+03,4.401597e+02
1.406818e+03,4.369398e+02
1.409711e+03,4.369520e+02
1.412604e+03,4.397448e+02
1.415496e+03,4.393100e+02
1.418389e+03,4.386452e+02
1.421282e+03,4.371619e+02
1.424174e+03,4.376274e+02
1.427067e+03,4.328116e+02
1.429960e+03,4.336650e+02
1.432853e+03,4.350542e+02
1.435745e+03,4.354754e+02
1.438638e+03,4.353202e+02
1.441531e+03,4.390219e+02
1.444423e+03,4.341571e+02
1.447316e+03,4.320080e+02
1.450209e+03,4.377037e+02
1.453101e+03,4.365800e+02
1.455994e+03,4.380277e+02
1.458887e+03,4.347486e+02
1.461780e+03,4.381391e+02
1.464672e+03,4.303395e+02
1.467565e+03,4.352622e+02
1.470458e+03,4.340619e+02
1.473350e+03,4.381190e+02
1.476243e+03,4.355554e+02
1.479136e+03,4.336220e+02
1.482028e+03,4.303087e+02
1.484921e+03,4.273340e+02
1.487814e+03,4.261942e+02
1.490707e+03,4.172864e+02
1.493599e+03,4.239898e+02
1.496492e+03,4.242331e+02
1.499385e+03,4.273530e+02
1.502277e+03,4.275338e+02
1.505170e+03,4.217528e+02
1.508063e+03,4.270602e+02
1.510955e+03,4.200938e+02
1.513848e+03,4.239589e+02
1.516741e+03,4.253987e+02
1.519634e+03,4.268672e+02
1.522526e+03,4.237426e+02
1.525419e+03,4.248629e+02
1.528312e+03,4.218984e+02
1.531204e+03,4.252950e+02
1.534097e+03,4.173569e+02
1.536990e+03,4.225238e+02
1.539882e+03,4.232500e+02
1.542775e+03,4.196125e+02
1.545668e+03,4.237253e+02
1.548561e+03,4.177690e+02
1.551453e+03,4.270468e+02
1.554346e+03,4.180643e+02
1.557239e+03,4.219051e+02
1.560131e+03,4.254471e+02
1.563024e+03,4.222169e+02
1.565917e+03,4.265268e+02
1.568809e+03,4.235719e+02
1.571702e+03,4.240752e+02
1.574595e+03,4.278765e+02
1.577488e+03,4.259620e+02
1.580380e+03,4.210772e+02
1.583273e+03,4.259817e+02
1.586166e+03,4.244605e+02
1.589058e+03,4.235249e+02
1.591951e+03,4.280568e+02
1.594844e+03,4.237082e+02
1.597736e+03,4.253034e+02
1.600629e+03,4.232752e+02
1.603522e+03,4.236028e+02
1.606415e+03,4.247302e+02
1.609307e+03,4.166535e+02
1.612200e+03,4.180624e+02
1.615093e+03,4.144315e+02
1.617985e+03,4.147134e+02
1.620878e+03,4.159483e+02
1.623771e+03,4.131419e+02
1.626663e+03,4.102306e+02
1.629556e+03,4.082743e+02
1.632449e+03,4.060387e+02
1.635342e+03,4.140795e+02
1.638234e+03,4.127730e+02
1.641127e+03,4.041249e+02
1.644020e+03,4.098157e+02
1.646912e+03,4.107356e+02
1.649805e+03,4.086141e+02
1.652698e+03,4.067520e+02
1.655590e+03,4.083164e+02
1.658483e+03,4.098169e+02
1.661376e+03,4.071085e+02
1.664269e+03,3.989441e+02
1.667161e+03,4.024599e+02
1.670054e+03,3.993809e+02
1.672947e+03,4.017805e+02
1.675839e+03,3.922799e+02
1.678732e+03,4.018454e+02
1.681625e+03,3.978005e+02
1.684517e+03,4.045571e+02
1.687410e+03,3.978099e+02
1.690303e+03,3.896216e+02
1.693196e+03,4.044356e+02
1.696088e+03,3.910501e+02
1.698981e+03,3.896459e+02
1.701874e+03,3.914354e+02
1.704766e+03,3.943837e+02
1.707659e+03,4.000378e+02
1.710552e+03,3.920240e+02
1.713444e+03,3.917307e+02
1.716337e+03,3.928561e+02
1.719230e+03,3.990541e+02
1.722123e+03,3.889702e+02
1.725015e+03,3.958985e+02
1.727908e+03,3.881308e+02
1.730801e+03,3.937995e+02
1.733693e+03,3.880357e+02
1.736586e+03,3.874720e+02
1.739479e+03,3.954298e+02
1.742371e+03,3.893791e+02
1.745264e+03,3.801876e+02
1.748157e+03,3.942018e+02
1.751050e+03,3.805429e+02
1.753942e+03,3.876615e+02
1.756835e+03,3.885964e+02
1.759728e+03,3.804785e+02
1.762620e+03,3.860336e+02
1.765513e+03,3.868785e+02
1.768406e+03,3.856733e+02
1.771298e+03,3.873048e+02
1.774191e+03,3.813304e+02
1.777084e+03,3.824363e+02
1.779977e+03,3.771803e+02
1.782869e+03,3.793404e+02
1.785762e+03,3.806700e+02
1.788655e+03,3.828061e+02
1.791547e+03,3.781333e+02
1.794440e+03,3.776219e+02
1.797333e+03,3.786616e+02
1.800225e+03,3.800305e+02
1.803118e+03,3.834317e+02
1.806011e+03,3.725547e+02
1.808904e+03,3.786571e+02
1.811796e+03,3.701708e+02
1.814689e+03,3.802904e+02
1.817582e+03,3.769643e+02
1.820474e+03,3.704188e+02
1.823367e+03,3.711328e+02
1.826260e+03,3.711016e+02
1.829152e+03,3.686295e+02
1.832045e+03,3.723727e+02
1.834938e+03,3.721340e+02
1.837831e+03,3.727441e+02
1.840723e+03,3.692186e+02
1.843616e+03,3.709149e+02
1.846509e+03,3.680918e+02
1.849401e+03,3.670878e+02
1.852294e+03,3.688741e+02
1.855187e+03,3.629464e+02
1.858079e+03,3.679453e+02
1.860972e+03,3.661099e+02
1.863865e+03,3.614750e+02
1.866758e+03,3.635754e+02
1.869650e+03,3.704392e+02
1.872543e+03,3.645808e+02
1.875436e+03,3.741933e+02
1.878328e+03,3.558524e+02
1.881221e+03,3.645116e+02
1.884114e+03,3.618066e+02
1.887006e+03,3.643199e+02
1.889899e+03,3.571524e+02
1.892792e+03,3.622746e+02
1.895685e+03,3.567570e+02
1.898577e+03,3.551812e+02
1.901470e+03,3.624535e+02
1.904363e+03,3.538502e+02
1.907255e+03,3.594502e+02
1.910148e+03,3.566968e+02
1.913041e+03,3.553979e+02
1.915933e+03,3.550287e+02
1.918826e+03,3.552648e+02
1.921719e+03,3.491505e+02
1.924612e+03,3.551861e+02
1.927504e+03,3.534610e+02
1.930397e+03,3.573191e+02
1.933290e+03,3.491887e+02
1.936182e+03,3.595445e+02
1.939075e+03,3.462309e+02
1.941968e+03,3.483830e+02
1.944860e+03,3.493832e+02
1.947753e+03,3.560351e+02
1.950646e+03,3.570648e+02
1.953539e+03,3.497773e+02
1.956431e+03,3.529904e+02
1.959324e+03,3.515239e+02
1.962217e+03,3.543922e+02
1.965109e+03,3.420179e+02
1.968002e+03,3.438448e+02
1.970895e+03,3.468731e+02
1.973787e+03,3.491996e+02
1.976680e+03,3.488981e+02
1.979573e+03,3.424997e+02
1.982466e+03,3.477265e+02
1.985358e+03,3.400089e+02
1.988251e+03,3.428607e+02
1.991144e+03,3.424846e+02
1.994036e+03,3.428822e+02
1.996929e+03,3.423603e+02
1.999822e+03,3.370113e+02
2.002714e+03,3.473277e+02
2.005607e+03,3.398264e+02
2.008500e+03,3.339168e+02
2.011393e+03,3.356621e+02
2.014285e+03,3.336070e+02
2.017178e+03,3.417220e+02
2.020071e+03,3.363788e+02
2.022963e+03,3.329245e+02
2.025856e+03,3.306481e+02
2.028749e+03,3.292949e+02
2.031641e+03,3.293105e+02
2.034534e+03,3.272328e+02
2.037427e+03,3.290890e+02
2.040320e+03,3.315965e+02
2.043212e+03,3.259435e+02
2.046105e+03,3.324354e+02
2.048998e+03,3.278760e+02
2.051890e+03,3.279871e+02
2.054783e+03,3.295312e+02
2.057676e+03,3.326866e+02
2.060568e+03,3.206981e+02
2.063461e+03,3.254628e+02
2.066354e+03,3.242939e+02
2.069247e+03,3.223197e+02
2.072139e+03,3.249769e+02
2.075032e+03,3.241382e+02
2.077925e+03,3.228251e+02
2.080817e+03,3.217759e+02
2.083710e+03,3.189907e+02
2.086603e+03,3.157503e+02
2.089496e+03,3.187509e+02
2.092388e+03,3.191209e+02
2.095281e+03,3.182737e+02
2.098174e+03,3.201632e+02
2.101066e+03,3.142693e+02
2.103959e+03,3.103206e+02
2.106852e+03,3.130154e+02
2.109744e+03,3.186999e+02
2.112637e+03,3.147369e+02
2.115530e+03,3.067455e+02
2.118422e+03,3.156024e+02
2.121315e+03,3.126837e+02
2.124208e+03,3.072239e+02
2.127101e+03,3.074221e+02
2.129993e+03,3.119027e+02
2.132886e+03,3.174456e+02
2.135779e+03,3.169413e+02
2.138671e+03,3.045788e+02
2.141564e+03,3.065156e+02
2.144457e+03,3.120546e+02
2.147350e+03,2.985722e+02
2.150242e+03,3.022921e+02
2.153135e+03,3.136183e+02
2.156028e+03,3.077307e+02
2.158920e+03,3.064185e+02
2.161813e+03,3.085501e+02
2.164706e+03,3.047747e+02
2.167598e+03,3.073777e+02
2.170491e+03,3.107451e+02
2.173384e+03,3.088574e+02
2.176277e+03,2.998628e+02
2.179169e+03,2.987715e+02
2.182062e+03,2.989320e+02
2.184955e+03,3.016919e+02
2.187847e+03,3.000496e+02
2.190740e+03,3.042171e+02
2.193633e+03,3.000497e+02
2.196525e+03,2.949169e+02
2.199418e+03,3.014754e+02
2.202311e+03,2.987620e+02
2.205204e+03,3.034080e+02
2.208096e+03,2.881697e+02
2.210989e+03,2.971537e+02
2.213882e+03,2.950110e+02
2.216774e+03,2.963293e+02
2.219667e+03,2.953604e+02
2.222560e+03,2.905365e+02
2.225452e+03,2.891862e+02
2.228345e+03,2.959651e+02
2.231238e+03,2.888517e+02
2.234131e+03,2.904976e+02
2.237023e+03,2.861308e+02
2.239916e+03,2.893121e+02
2.242809e+03,2.978280e+02
2.245701e+03,2.941325e+02
2.248594e+03,2.897089e+02
2.251487e+03,2.872740e+02
2.254379e+03,2.889311e+02
2.257272e+03,2.831367e+02
2.260165e+03,2.803098e+02
2.263058e+03,2.864544e+02
2.265950e+03,2.820567e+02
2.268843e+03,2.832274e+02
2.271736e+03,2.823544e+02
2.274628e+03,2.879640e+02
2.277521e+03,2.804621e+02
2.280414e+03,2.865791e+02
2.283306e+03,2.810721e+02
2.286199e+03,2.811349e+02
2.289092e+03,2.733982e+02
2.291985e+03,2.734123e+02
2.294877e+03,2.804489e+02
2.297770e+03,2.726466e+02
2.300663e+03,2.779572e+02
2.303555e+03,2.827368e+02
2.306448e+03,2.737574e+02
2.309341e+03,2.726012e+02
2.312233e+03,2.767766e+02
2.315126e+03,2.727544e+02
2.318019e+03,2.747539e+02
2.320912e+03,2.794975e+02
2.323804e+03,2.728555e+02
2.326697e+03,2.797217e+02
2.329590e+03,2.691020e+02
2.332482e+03,2.749103e+02
2.335375e+03,2.681457e+02
2.338268e+03,2.700178e+02
2.341160e+03,2.722816e+02
2.344053e+03,2.727735e+02
2.346946e+03,2.681987e+02
2.349839e+03,2.739076e+02
2.352731e+03,2.649968e+02
2.355624e+03,2.683355e+02
2.358517e+03,2.677881e+02
2.361409e+03,2.675275e+02
2.364302e+03,2.652578e+02
2.367195e+03,2.631435e+02
2.370087e+03,2.676764e+02
2.372980e+03,2.620953e+02
2.375873e+03,2.700536e+02
2.378766e+03,2.615092e+02
2.381658e+03,2.610692e+02
2.384551e+03,2.646606e+02
2.387444e+03,2.574293e+02
2.390336e+03,2.608473e+02
2.393229e+03,2.643252e+02
2.396122e+03,2.574985e+02
2.399014e+03,2.563942e+02
2.401907e+03,2.641651e+02
2.404800e+03,2.524896e+02
2.407693e+03,2.582380e+02
2.410585e+03,2.635241e+02
2.413478e+03,2.627651e+02
2.416371e+03,2.528693e+02
2.419263e+03,2.584671e+02
2.422156e+03,2.565724e+02
2.425049e+03,2.586182e+02
2.427941e+03,2.555375e+02
2.430834e+03,2.535560e+02
2.433727e+03,2.513363e+02
2.436620e+03,2.603644e+02
2.439512e+03,2.529620e+02
2.442405e+03,2.550798e+02
2.445298e+03,2.580444e+02
2.448190e+03,2.518742e+02
2.451083e+03,2.525430e+02
2.453976e+03,2.523483e+02
2.456868e+03,2.493058e+02
2.459761e+03,2.491987e+02
2.462654e+03,2.524144e+02
2.465547e+03,2.503967e+02
2.468439e+03,2.465796e+02
2.471332e+03,2.470462e+02
2.474225e+03,2.428653e+02
2.477117e+03,2.503445e+02
2.480010e+03,2.505463e+02
2.482903e+03,2.464019e+02
2.485795e+03,2.546709e+02
2.488688e+03,2.453581e+02
2.491581e+03,2.556565e+02
2.494474e+03,2.473841e+02
2.497366e+03,2.501028e+02
2.500259e+03,2.422467e+02
2.503152e+03,2.507608e+02
2.506044e+03,2.580241e+02
2.508937e+03,2.469650e+02
2.511830e+03,2.458345e+02
2.514722e+03,2.447430e+02
2.517615e+03,2.495870e+02
2.520508e+03,2.494241e+02
2.523401e+03,2.516836e+02
2.526293e+03,2.498705e+02
2.529186e+03,2.395193e+02
2.532079e+03,2.475771e+02
2.534971e+03,2.430389e+02
2.537864e+03,2.313267e+02
2.540757e+03,2.443066e+02
2.543649e+03,2.470683e+02
2.546542e+03,2.573607e+02
2.549435e+03,2.544385e+02
2.552328e+03,2.583457e+02
2.555220e+03,2.543595e+02
2.558113e+03,2.554600e+02
2.561006e+03,2.520491e+02
2.563898e+03,2.547173e+02
2.566791e+03,2.483996e+02
2.569684e+03,2.479941e+02
2.572576e+03,2.543668e+02
2.575469e+03,2.411820e+02
2.578362e+03,2.440678e+02
2.581255e+03,2.416424e+02
2.584147e+03,2.435058e+02
2.587040e+03,2.426873e+02
2.589933e+03,2.385114e+02
2.592825e+03,2.288291e+02
2.595718e+03,2.407836e+02
2.598611e+03,2.344655e+02
2.601503e+03,2.400910e+02
2.604396e+03,2.336694e+02
2.607289e+03,2.391683e+02
2.610182e+03,2.395289e+02
2.613074e+03,2.260000e+02
2.615967e+03,2.348717e+02
2.618860e+03,2.340823e+02
2.621752e+03,2.395901e+02
2.624645e+03,2.337335e+02
2.627538e+03,2.377756e+02
2.630430e+03,2.325714e+02
2.633323e+03,2.358222e+02
2.636216e+03,2.292175e+02
2.639109e+03,2.337304e+02
2.642001e+03,2.382649e+02
2.644894e+03,2.429900e+02
2.647787e+03,2.264784e+02
2.650679e+03,2.262217e+02
2.653572e+03,2.338374e+02
2.656465e+03,2.400546e+02
2.659357e+03,2.264230e+02
2.662250e+03,2.323933e+02
2.665143e+03,2.364222e+02
2.668036e+03,2.334249e+02
2.670928e+03,2.389725e+02
2.673821e+03,2.315198e+02
2.676714e+03,2.331581e+02
2.679606e+03,2.297285e+02
2.682499e+03,2.274510e+02
2.685392e+03,2.207080e+02
2.688284e+03,2.250023e+02
2.691177e+03,2.326347e+02
2.694070e+03,2.310988e+02
2.696963e+03,2.282500e+02
2.699855e+03,2.369228e+02
2.702748e+03,2.291640e+02
2.705641e+03,2.313185e+02
2.708533e+03,2.359887e+02
2.711426e+03,2.327860e+02
2.714319e+03,2.348806e+02
2.717211e+03,2.389426e+02
2.720104e+03,2.395327e+02
2.722997e+03,2.267682e+02
2.725890e+03,2.263878e+02
2.728782e+03,2.350637e+02
2.731675e+03,2.192796e+02
2.734568e+03,2.338331e+02
2.737460e+03,2.244072e+02
2.740353e+03,2.304628e+02
2.743246e+03,2.251986e+02
2.746138e+03,2.266589e+02
2.749031e+03,2.329098e+02
2.751924e+03,2.208733e+02
2.754817e+03,2.241110e+02
2.757709e+03,2.281102e+02
2.760602e+03,2.252663e+02
2.763495e+03,2.359850e+02
2.766387e+03,2.362982e+02
2.769280e+03,2.274309e+02
2.772173e+03,2.298618e+02
2.775065e+03,2.309220e+02
2.777958e+03,2.383320e+02
2.780851e+03,2.326157e+02
2.783744e+03,2.264158e+02
2.786636e+03,2.219247e+02
2.789529e+03,2.317013e+02
2.792422e+03,2.328364e+02
2.795314e+03,2.318027e+02
2.798207e+03,2.272444e+02
2.801100e+03,2.216958e+02
2.803992e+03,2.233081e+02
2.806885e+03,2.237304e+02
2.809778e+03,2.437314e+02
2.812671e+03,2.319128e+02
2.815563e+03,2.359775e+02
2.818456e+03,2.333787e+02
2.821349e+03,2.185510e+02
2.824241e+03,2.254480e+02
2.827134e+03,2.232734e+02
2.830027e+03,2.242480e+02
2.832919e+03,2.280848e+02
2.835812e+03,2.228869e+02
2.838705e+03,2.255405e+02
2.841598e+03,2.392985e+02
2.844490e+03,2.321871e+02
2.847383e+03,2.457275e+02
2.850276e+03,2.460158e+02
2.853168e+03,2.392005e+02
2.856061e+03,2.308596e+02
2.858954e+03,2.346457e+02
2.861846e+03,2.522681e+02
2.864739e+03,2.348959e+02
2.867632e+03,2.390471e+02
2.870525e+03,2.478447e+02
2.873417e+03,2.449251e+02
2.876310e+03,2.510799e+02
2.879203e+03,2.486732e+02
2.882095e+03,2.508163e+02
2.884988e+03,2.539076e+02
2.887881e+03,2.576493e+02
2.890773e+03,2.602083e+02
2.893666e+03,2.613331e+02
2.896559e+03,2.589619e+02
2.899452e+03,2.726204e+02
2.902344e+03,2.449390e+02
2.905237e+03,2.432935e+02
2.908130e+03,2.471644e+02
2.911022e+03,2.525456e+02
2.913915e+03,2.269309e+02
2.916808e+03,2.527605e+02
2.919700e+03,2.365548e+02
2.922593e+03,2.419539e+02
2.925486e+03,2.564919e+02
2.928379e+03,2.335223e+02
2.931271e+03,2.427129e+02
2.934164e+03,2.320306e+02
2.937057e+03,2.312858e+02
2.939949e+03,2.364159e+02
2.942842e+03,2.379595e+02
2.945735e+03,2.358358e+02
2.948627e+03,2.223442e+02
2.951520e+03,2.257207e+02
2.954413e+03,2.333299e+02
2.957306e+03,2.471814e+02
2.960198e+03,2.478189e+02
2.963091e+03,2.356421e+02
2.965984e+03,2.132469e+02
2.968876e+03,2.402639e+02
2.971769e+03,2.170269e+02
2.974662e+03,2.284127e+02
2.977554e+03,2.255080e+02
2.980447e+03,2.074248e+02
2.983340e+03,2.156895e+02
2.986233e+03,2.041617e+02
2.989125e+03,2.244035e+02
2.992018e+03,2.076862e+02
2.994911e+03,2.121751e+02
2.997803e+03,2.167803e+02
3.000696e+03,2.163994e+02
3.003589e+03,2.229448e+02
3.006481e+03,2.277761e+02
3.009374e+03,2.228274e+02
3.012267e+03,2.136564e+02
3.015160e+03,1.975557e+02
3.018052e+03,2.122763e+02
3.020945e+03,2.215472e+02
3.023838e+03,2.086645e+02
3.026730e+03,2.104133e+02
3.029623e+03,2.021593e+02
3.032516e+03,1.969063e+02
3.035408e+03,1.957022e+02
3.038301e+03,2.117767e+02
3.041194e+03,1.905023e+02
3.044087e+03,1.865183e+02
3.046979e+03,2.236207e+02
3.049872e+03,2.024577e+02
3.052765e+03,2.073897e+02
3.055657e+03,2.083693e+02
3.058550e+03,2.069634e+02
3.061443e+03,2.228871e+02
3.064335e+03,2.035584e+02
3.067228e+03,2.021243e+02
3.070121e+03,2.073408e+02
3.073014e+03,2.151404e+02
3.075906e+03,2.172333e+02
3.078799e+03,2.056674e+02
3.081692e+03,2.079586e+02
3.084584e+03,2.188447e+02
3.087477e+03,2.096502e+02
3.090370e+03,2.211204e+02
3.093262e+03,1.825040e+02
3.096155e+03,2.139220e+02
3.099048e+03,2.142975e+02
3.101941e+03,2.064118e+02
3.104833e+03,2.110933e+02
3.107726e+03,2.214536e+02
3.110619e+03,2.219694e+02
3.113511e+03,1.956098e+02
3.116404e+03,2.316814e+02
3.119297e+03,2.049918e+02
3.122189e+03,2.255971e+02
3.125082e+03,2.241469e+02
3.127975e+03,2.262708e+02
3.130868e+03,2.210060e+02
3.133760e+03,2.363170e+02
3.136653e+03,1.968611e+02
3.139546e+03,2.072478e+02
3.142438e+03,2.233725e+02
3.145331e+03,1.557824e+02
3.148224e+03,2.193909e+02
3.151116e+03,2.126270e+02
3.154009e+03,2.132052e+02
3.156902e+03,2.102486e+02
3.159795e+03,1.851594e+02
3.162687e+03,2.144191e+02
3.165580e+03,2.180597e+02
3.168473e+03,2.232166e+02
3.171365e+03,2.194937e+02
3.174258e+03,2.003571e+02
3.177151e+03,2.023772e+02
3.180043e+03,2.167992e+02
3.182936e+03,2.274639e+02
3.185829e+03,1.997710e+02
3.188722e+03,2.077531e+02
3.191614e+03,2.179802e+02
3.194507e+03,2.259273e+02
3.197400e+03,1.980418e+02
3.200292e+03,2.416330e+02
3.203185e+03,0.000000e+00
3.206078e+03,0.000000e+00
3.208970e+03,0.000000e+00
3.211863e+03,0.000000e+00
3.214756e+03,0.000000e+00
3.217649e+03,0.000000e+00
3.220541e+03,0.000000e+00
3.223434e+03,0.000000e+00
3.226327e+03,0.000000e+00
3.229219e+03,0.000000e+00
3.232112e+03,0.000000e+00
3.235005e+03,0.000000e+00
3.237897e+03,0.000000e+00
3.240790e+03,0.000000e+00
3.243683e+03,0.000000e+00
3.246576e+03,0.000000e+00
3.249468e+03,0.000000e+00
3.252361e+03,0.000000e+00
3.255254e+03,0.000000e+00
3.258146e+03,0.000000e+00
3.261039e+03,0.000000e+00
3.263932e+03,0.000000e+00
3.266824e+03,0.000000e+00
3.269717e+03,0.000000e+00
3.272610e+03,0.000000e+00
3.275503e+03,0.000000e+00
3.278395e+03,0.000000e+00
3.281288e+03,0.000000e+00
3.284181e+03,0.000000e+00
3.287073e+03,0.000000e+00
3.289966e+03,0.000000e+00
3.292859e+03,0.000000e+00
3.295751e+03,0.000000e+00
3.298644e+03,0.000000e+00
3.301537e+03,0.000000e+00
3.304430e+03,0.000000e+00
3.307322e+03,0.000000e+00
3.310215e+03,0.000000e+00
3.313108e+03,0.000000e+00
3.316000e+03,0.000000e+00
3.318893e+03,0.000000e+00
3.321786e+03,0.000000e+00
3.324678e+03,0.000000e+00
3.327571e+03,0.000000e+00
3.330464e+03,0.000000e+00
3.333357e+03,0.000000e+00
3.336249e+03,0.000000e+00
3.339142e+03,0.000000e+00
3.342035e+03,0.000000e+00
3.344927e+03,0.000000e+00
3.347820e+03,0.000000e+00
3.350713e+03,0.000000e+00
3.353605e+03,0.000000e+00
3.356498e+03,0.000000e+00
3.359391e+03,0.000000e+00
3.362284e+03,0.000000e+00
3.365176e+03,0.000000e+00
3.368069e+03,0.000000e+00
3.370962e+03,0.000000e+00
3.373854e+03,0.000000e+00
3.376747e+03,0.000000e+00
3.379640e+03,0.000000e+00
3.382532e+03,0.000000e+00
3.385425e+03,0.000000e+00
3.388318e+03,0.000000e+00
3.391211e+03,0.000000e+00
3.394103e+03,0.000000e+00
3.396996e+03,0.000000e+00
3.399889e+03,0.000000e+00
3.402781e+03,0.000000e+00
3.405674e+03,0.000000e+00
3.408567e+03,0.000000e+00
3.411459e+03,0.000000e+00
3.414352e+03,0.000000e+00
3.417245e+03,0.000000e+00
3.420138e+03,0.000000e+00
3.423030e+03,0.000000e+00
3.425923e+03,0.000000e+00
3.428816e+03,0.000000e+00
3.431708e+03,0.000000e+00
3.434601e+03,0.000000e+00
3.437494e+03,0.000000e+00
3.440386e+03,0.000000e+00
3.443279e+03,0.000000e+00
3.446172e+03,0.000000e+00
3.449065e+03,0.000000e+00
3.451957e+03,0.000000e+00
3.454850e+03,0.000000e+00
3.457743e+03,0.000000e+00
3.460635e+03,0.000000e+00
3.463528e+03,0.000000e+00
3.466421e+03,0.000000e+00
3.469313e+03,0.000000e+00
3.472206e+03,0.000000e+00
3.475099e+03,0.000000e+00
3.477992e+03,0.000000e+00
3.480884e+03,0.000000e+00
3.483777e+03,0.000000e+00
3.486670e+03,0.000000e+00
3.489563e+03,0.000000e+00
3.492455e+03,0.000000e+00
3.495348e+03,0.000000e+00
3.498240e+03,0.000000e+00
3.500169e+03,0.000000e+00