File: RAMAN_data/14032024_r1/red fibre5.CSV
9.931763e+01,0.000000e+00
1.022103e+02,0.000000e+00
1.051030e+02,0.000000e+00
1.079957e+02,0.000000e+00
1.108884e+02,0.000000e+00
1.137811e+02,0.000000e+00
1.166738e+02,0.000000e+00
1.195665e+02,0.000000e+00
1.224592e+02,0.000000e+00
1.253519e+02,0.000000e+00
1.282446e+02,0.000000e+00
1.311373e+02,0.000000e+00
1.340300e+02,0.000000e+00
1.369227e+02,0.000000e+00
1.398154e+02,0.000000e+00
1.427081e+02,0.000000e+00
1.456008e+02,0.000000e+00
1.484935e+02,0.000000e+00
1.513862e+02,0.000000e+00
1.542789e+02,0.000000e+00
1.571716e+02,0.000000e+00
1.600643e+02,0.000000e+00
1.629570e+02,0.000000e+00
1.658497e+02,0.000000e+00
1.687424e+02,0.000000e+00
1.716351e+02,0.000000e+00
1.745278e+02,0.000000e+00
1.774205e+02,0.000000e+00
1.803132e+02,0.000000e+00
1.832059e+02,0.000000e+00
1.860986e+02,0.000000e+00
1.889913e+02,0.000000e+00
1.918840e+02,0.000000e+00
1.947767e+02,0.000000e+00
1.976694e+02,0.000000e+00
2.005621e+02,9.035396e+03
2.034548e+02,9.062777e+03
2.063475e+02,9.085974e+03
2.092402e+02,9.064691e+03
2.121329e+02,9.070270e+03
2.150256e+02,9.095550e+03
2.179183e+02,9.116163e+03
2.208110e+02,9.149819e+03
2.237037e+02,9.158415e+03
2.265964e+02,9.152636e+03
2.294892e+02,9.153252e+03
2.323819e+02,9.188379e+03
2.352746e+02,9.215959e+03
2.381673e+02,9.224254e+03
2.410600e+02,9.220465e+03
2.439527e+02,9.229073e+03
2.468454e+02,9.257939e+03
2.497381e+02,9.288545e+03
2.526308e+02,9.289266e+03
2.555235e+02,9.308771e+03
2.584161e+02,9.319521e+03
2.613088e+02,9.334147e+03
2.642015e+02,9.385810e+03
2.670942e+02,9.402656e+03
2.699869e+02,9.433377e+03
2.728796e+02,9.458649e+03
2.757723e+02,9.456274e+03
2.786650e+02,9.499005e+03
2.815577e+02,9.489270e+03
2.844504e+02,9.518085e+03
2.873431e+02,9.533704e+03
2.902358e+02,9.516229e+03
2.931285e+02,9.512767e+03
2.960212e+02,9.540396e+03
2.989139e+02,9.565829e+03
3.018066e+02,9.575184e+03
3.046993e+02,9.590388e+03
3.075920e+02,9.617348e+03
3.104847e+02,9.607238e+03
3.133774e+02,9.647905e+03
3.162701e+02,9.655785e+03
3.191628e+02,9.664996e+03
3.220555e+02,9.682012e+03
3.249482e+02,9.691229e+03
3.278409e+02,9.723246e+03
3.307336e+02,9.761962e+03
3.336263e+02,9.772049e+03
3.365190e+02,9.756579e+03
3.394117e+02,9.781113e+03
3.423044e+02,9.838207e+03
3.451971e+02,9.860688e+03
3.480898e+02,9.844137e+03
3.509825e+02,9.841465e+03
3.538752e+02,9.889717e+03
3.567680e+02,9.916918e+03
3.596607e+02,9.947585e+03
3.625534e+02,9.967565e+03
3.654461e+02,9.917916e+03
3.683388e+02,9.966269e+03
3.712315e+02,9.998003e+03
3.741242e+02,1.000877e+04
3.770169e+02,1.002283e+04
3.799096e+02,1.005618e+04
3.828023e+02,1.004207e+04
3.856950e+02,1.004791e+04
3.885877e+02,1.006803e+04
3.914804e+02,1.010160e+04
3.943731e+02,1.010594e+04
3.972658e+02,1.008732e+04
4.001585e+02,1.011468e+04
4.030512e+02,1.014960e+04
4.059439e+02,1.016237e+04
4.088366e+02,1.016795e+04
4.117293e+02,1.016932e+04
4.146220e+02,1.018195e+04
4.175147e+02,1.017936e+04
4.204074e+02,1.022963e+04
4.233001e+02,1.022403e+04
4.261928e+02,1.025799e+04
4.290855e+02,1.025922e+04
4.319782e+02,1.028759e+04
4.348709e+02,1.031608e+04
4.377636e+02,1.034657e+04
4.406563e+02,1.035266e+04
4.435490e+02,1.033201e+04
4.464417e+02,1.036820e+04
4.493344e+02,1.037829e+04
4.522271e+02,1.039148e+04
4.551198e+02,1.042415e+04
4.580125e+02,1.040805e+04
4.609052e+02,1.043935e+04
4.637979e+02,1.042825e+04
4.666906e+02,1.043876e+04
4.695833e+02,1.045449e+04
4.724760e+02,1.046649e+04
4.753687e+02,1.047004e+04
4.782614e+02,1.045661e+04
4.811541e+02,1.045938e+04
4.840468e+02,1.050394e+04
4.869395e+02,1.050040e+04
4.898322e+02,1.046578e+04
4.927249e+02,1.046252e+04
4.956176e+02,1.051117e+04
4.985103e+02,1.049434e+04
5.014030e+02,1.050519e+04
5.042957e+02,1.048511e+04
5.071884e+02,1.047571e+04
5.100811e+02,1.051676e+04
5.129738e+02,1.050879e+04
5.158665e+02,1.051016e+04
5.187592e+02,1.055425e+04
5.216519e+02,1.051000e+04
5.245446e+02,1.052774e+04
5.274373e+02,1.053621e+04
5.303300e+02,1.055899e+04
5.332227e+02,1.053093e+04
5.361154e+02,1.052743e+04
5.390081e+02,1.048128e+04
5.419008e+02,1.050280e+04
5.447935e+02,1.049892e+04
5.476862e+02,1.055075e+04
5.505789e+02,1.056939e+04
5.534716e+02,1.057334e+04
5.563643e+02,1.054901e+04
5.592570e+02,1.056474e+04
5.621497e+02,1.056475e+04
5.650424e+02,1.054699e+04
5.679351e+02,1.050223e+04
5.708278e+02,1.049867e+04
5.737205e+02,1.052616e+04
5.766132e+02,1.051922e+04
5.795059e+02,1.051895e+04
5.823986e+02,1.049857e+04
5.852913e+02,1.051251e+04
5.881840e+02,1.053725e+04
5.910767e+02,1.055942e+04
5.939694e+02,1.055882e+04
5.968621e+02,1.054794e+04
5.997548e+02,1.051618e+04
6.026475e+02,1.051871e+04
6.055402e+02,1.055220e+04
6.084329e+02,1.054451e+04
6.113256e+02,1.057097e+04
6.142183e+02,1.058917e+04
6.171110e+02,1.059520e+04
6.200037e+02,1.051443e+04
6.228964e+02,1.050900e+04
6.257891e+02,1.054944e+04
6.286818e+02,1.053756e+04
6.315745e+02,1.048686e+04
6.344672e+02,1.048848e+04
6.373599e+02,1.049181e+04
6.402526e+02,1.051541e+04
6.431453e+02,1.047507e+04
6.460380e+02,1.045662e+04
6.489307e+02,1.048004e+04
6.518234e+02,1.048597e+04
6.547161e+02,1.048124e+04
6.576088e+02,1.046156e+04
6.605015e+02,1.047921e+04
6.633942e+02,1.045991e+04
6.662869e+02,1.043848e+04
6.691796e+02,1.045864e+04
6.720723e+02,1.046966e+04
6.749650e+02,1.045246e+04
6.778577e+02,1.047206e+04
6.807504e+02,1.048440e+04
6.836431e+02,1.046103e+04
6.865358e+02,1.041220e+04
6.894285e+02,1.040706e+04
6.923212e+02,1.042922e+04
6.952139e+02,1.041657e+04
6.981066e+02,1.042776e+04
7.009993e+02,1.041995e+04
7.038920e+02,1.040575e+04
7.067847e+02,1.035589e+04
7.096774e+02,1.039349e+04
7.125701e+02,1.041309e+04
7.154628e+02,1.043014e+04
7.183555e+02,1.041545e+04
7.212482e+02,1.039561e+04
7.241409e+02,1.035717e+04
7.270336e+02,1.036611e+04
7.299263e+02,1.031993e+04
7.328190e+02,1.036561e+04
7.357117e+02,1.033970e+04
7.386044e+02,1.033486e+04
7.414971e+02,1.029698e+04
7.443898e+02,1.031385e+04
7.472825e+02,1.036706e+04
7.501752e+02,1.031352e+04
7.530679e+02,1.029636e+04
7.559606e+02,1.028736e+04
7.588533e+02,1.030850e+04
7.617460e+02,1.033397e+04
7.646387e+02,1.028277e+04
7.675314e+02,1.029673e+04
7.704241e+02,1.025493e+04
7.733168e+02,1.025663e+04
7.762095e+02,1.026284e+04
7.791022e+02,1.025341e+04
7.819949e+02,1.022679e+04
7.848876e+02,1.023232e+04
7.877803e+02,1.024131e+04
7.906730e+02,1.027017e+04
7.935657e+02,1.030709e+04
7.964584e+02,1.030805e+04
7.993511e+02,1.025002e+04
8.022438e+02,1.023740e+04
8.051365e+02,1.023156e+04
8.080292e+02,1.019595e+04
8.109219e+02,1.019239e+04
8.138146e+02,1.013674e+04
8.167073e+02,1.016406e+04
8.196000e+02,1.018707e+04
8.224927e+02,1.018191e+04
8.253854e+02,1.014667e+04
8.282781e+02,1.013587e+04
8.311708e+02,1.012261e+04
8.340635e+02,1.011575e+04
8.369562e+02,1.014386e+04
8.398489e+02,1.014000e+04
8.427416e+02,1.011383e+04
8.456343e+02,1.010273e+04
8.485270e+02,1.008202e+04
8.514197e+02,1.009330e+04
8.543124e+02,1.009899e+04
8.572051e+02,1.010977e+04
8.600978e+02,1.007708e+04
8.629905e+02,1.003830e+04
8.658832e+02,1.005175e+04
8.687759e+02,1.003688e+04
8.716686e+02,1.005891e+04
8.745613e+02,1.002561e+04
8.774540e+02,1.001239e+04
8.803467e+02,1.000332e+04
8.832394e+02,1.001893e+04
8.861321e+02,9.999426e+03
8.890248e+02,9.976413e+03
8.919175e+02,1.000604e+04
8.948102e+02,9.982803e+03
8.977029e+02,9.969531e+03
9.005956e+02,9.962240e+03
9.034883e+02,9.962803e+03
9.063810e+02,9.939896e+03
9.092737e+02,9.924436e+03
9.121664e+02,9.948444e+03
9.150591e+02,9.928457e+03
9.179518e+02,9.931638e+03
9.208445e+02,9.900252e+03
9.237372e+02,9.896798e+03
9.266299e+02,9.914899e+03
9.295226e+02,9.890094e+03
9.324153e+02,9.881355e+03
9.353080e+02,9.870099e+03
9.382007e+02,9.862343e+03
9.410934e+02,9.842813e+03
9.439861e+02,9.819885e+03
9.468788e+02,9.825078e+03
9.497715e+02,9.840575e+03
9.526642e+02,9.776364e+03
9.555569e+02,9.746405e+03
9.584496e+02,9.764327e+03
9.613423e+02,9.773281e+03
9.642350e+02,9.767269e+03
9.671277e+02,9.746448e+03
9.700204e+02,9.696231e+03
9.729131e+02,9.676995e+03
9.758058e+02,9.722722e+03
9.786985e+02,9.690953e+03
9.815912e+02,9.670594e+03
9.844839e+02,9.655632e+03
9.873766e+02,9.654210e+03
9.902693e+02,9.652469e+03
9.931620e+02,9.684298e+03
9.960547e+02,9.687105e+03
9.989474e+02,9.688986e+03
1.001840e+03,9.614181e+03
1.004733e+03,9.583510e+03
1.007626e+03,9.607459e+03
1.010518e+03,9.595471e+03
1.013411e+03,9.607825e+03
1.016304e+03,9.567527e+03
1.019196e+03,9.552249e+03
1.022089e+03,9.565176e+03
1.024982e+03,9.559783e+03
1.027875e+03,9.546750e+03
1.030767e+03,9.538649e+03
1.033660e+03,9.542610e+03
1.036552e+03,9.531740e+03
1.039445e+03,9.532660e+03
1.042338e+03,9.505641e+03
1.045231e+03,9.494534e+03
1.048123e+03,9.467714e+03
1.051016e+03,9.506749e+03
1.053909e+03,9.471962e+03
1.056802e+03,9.462796e+03
1.059694e+03,9.465904e+03
1.062587e+03,9.457632e+03
1.065479e+03,9.433562e+03
1.068372e+03,9.428519e+03
1.071265e+03,9.460801e+03
1.074158e+03,9.452103e+03
1.077050e+03,9.395614e+03
1.079943e+03,9.408266e+03
1.082836e+03,9.425011e+03
1.085729e+03,9.444672e+03
1.088621e+03,9.416896e+03
1.091514e+03,9.377543e+03
1.094406e+03,9.368687e+03
1.097299e+03,9.368166e+03
1.100192e+03,9.378318e+03
1.103085e+03,9.371613e+03
1.105977e+03,9.378026e+03
1.108870e+03,9.377156e+03
1.111763e+03,9.405332e+03
1.114656e+03,9.405065e+03
1.117548e+03,9.464399e+03
1.120441e+03,9.468309e+03
1.123334e+03,9.410587e+03
1.126226e+03,9.375422e+03
1.129119e+03,9.359760e+03
1.132012e+03,9.378312e+03
1.134904e+03,9.324113e+03
1.137797e+03,9.301466e+03
1.140690e+03,9.291275e+03
1.143583e+03,9.321610e+03
1.146475e+03,9.330718e+03
1.149368e+03,9.330693e+03
1.152261e+03,9.313067e+03
1.155153e+03,9.235612e+03
1.158046e+03,9.192250e+03
1.160939e+03,9.194387e+03
1.163831e+03,9.203190e+03
1.166724e+03,9.182800e+03
1.169617e+03,9.149603e+03
1.172510e+03,9.129787e+03
1.175402e+03,9.144044e+03
1.178295e+03,9.170528e+03
1.181188e+03,9.186233e+03
1.184080e+03,9.146915e+03
1.186973e+03,9.103025e+03
1.189866e+03,9.109927e+03
1.192758e+03,9.113248e+03
1.195651e+03,9.091806e+03
1.198544e+03,9.081212e+03
1.201437e+03,9.027487e+03
1.204329e+03,8.971759e+03
1.207222e+03,9.030937e+03
1.210115e+03,9.038763e+03
1.213007e+03,9.008971e+03
1.215900e+03,8.988400e+03
1.218793e+03,8.976578e+03
1.221685e+03,8.996311e+03
1.224578e+03,9.007356e+03
1.227471e+03,9.012931e+03
1.230364e+03,9.025400e+03
1.233256e+03,8.973041e+03
1.236149e+03,8.998563e+03
1.239042e+03,8.998692e+03
1.241934e+03,8.984779e+03
1.244827e+03,8.918512e+03
1.247720e+03,8.909619e+03
1.250612e+03,8.895504e+03
1.253505e+03,8.919904e+03
1.256398e+03,8.900547e+03
1.259291e+03,8.906620e+03
1.262183e+03,8.903219e+03
1.265076e+03,8.908864e+03
1.267969e+03,8.964451e+03
1.270861e+03,8.956762e+03
1.273754e+03,8.926645e+03
1.276647e+03,8.867400e+03
1.279539e+03,8.815447e+03
1.282432e+03,8.798427e+03
1.285325e+03,8.833731e+03
1.288218e+03,8.801813e+03
1.291110e+03,8.774552e+03
1.294003e+03,8.776274e+03
1.296896e+03,8.720949e+03
1.299788e+03,8.711166e+03
1.302681e+03,8.733164e+03
1.305574e+03,8.690875e+03
1.308466e+03,8.689872e+03
1.311359e+03,8.652374e+03
1.314252e+03,8.633714e+03
1.317145e+03,8.653378e+03
1.320037e+03,8.645691e+03
1.322930e+03,8.659668e+03
1.325823e+03,8.646636e+03
1.328715e+03,8.630877e+03
1.331608e+03,8.652933e+03
1.334501e+03,8.670770e+03
1.337393e+03,8.635710e+03
1.340286e+03,8.620674e+03
1.343179e+03,8.625963e+03
1.346072e+03,8.617226e+03
1.348964e+03,8.634521e+03
1.351857e+03,8.641437e+03
1.354750e+03,8.621544e+03
1.357642e+03,8.627898e+03
1.360535e+03,8.684000e+03
1.363428e+03,8.729837e+03
1.366320e+03,8.784942e+03
1.369213e+03,8.774075e+03
1.372106e+03,8.801687e+03
1.374999e+03,8.747054e+03
1.377891e+03,8.719498e+03
1.380784e+03,8.660326e+03
1.383677e+03,8.623865e+03
1.386569e+03,8.585070e+03
1.389462e+03,8.569423e+03
1.392355e+03,8.546137e+03
1.395247e+03,8.529465e+03
1.398140e+03,8.528021e+03
1.401033e+03,8.550122e+03
1.403926e+03,8.511244e+03
1.406818e+03,8.498884e+03
1.409711e+03,8.514033e+03
1.412604e+03,8.482814e+03
1.415496e+03,8.431730e+03
1.418389e+03,8.434878e+03
1.421282e+03,8.377855e+03
1.424174e+03,8.366686e+03
1.427067e+03,8.359241e+03
1.429960e+03,8.366194e+03
1.432853e+03,8.351895e+03
1.435745e+03,8.344155e+03
1.438638e+03,8.300341e+03
1.441531e+03,8.324827e+03
1.444423e+03,8.315480e+03
1.447316e+03,8.279997e+03
1.450209e+03,8.251612e+03
1.453101e+03,8.281958e+03
1.455994e+03,8.292276e+03
1.458887e+03,8.286452e+03
1.461780e+03,8.309048e+03
1.464672e+03,8.313778e+03
1.467565e+03,8.316591e+03
1.470458e+03,8.280314e+03
1.473350e+03,8.288642e+03
1.476243e+03,8.241659e+03
1.479136e+03,8.200893e+03
1.482028e+03,8.159763e+03
1.484921e+03,8.141269e+03
1.487814e+03,8.139050e+03
1.490707e+03,8.146983e+03
1.493599e+03,8.142487e+03
1.496492e+03,8.096233e+03
1.499385e+03,8.101183e+03
1.502277e+03,8.075773e+03
1.505170e+03,8.092896e+03
1.508063e+03,8.043643e+03
1.510955e+03,8.037778e+03
1.513848e+03,8.036112e+03
1.516741e+03,8.008939e+03
1.519634e+03,8.008915e+03
1.522526e+03,7.993519e+03
1.525419e+03,7.971779e+03
1.528312e+03,7.954929e+03
1.531204e+03,7.947476e+03
1.534097e+03,7.919382e+03
1.536990e+03,7.933242e+03
1.539882e+03,7.929263e+03
1.542775e+03,7.954460e+03
1.545668e+03,7.878309e+03
1.548561e+03,7.891733e+03
1.551453e+03,7.936794e+03
1.554346e+03,7.916033e+03
1.557239e+03,7.899338e+03
1.560131e+03,7.892152e+03
1.563024e+03,7.880638e+03
1.565917e+03,7.873656e+03
1.568809e+03,7.827014e+03
1.571702e+03,7.813469e+03
1.574595e+03,7.839623e+03
1.577488e+03,7.842438e+03
1.580380e+03,7.847315e+03
1.583273e+03,7.921766e+03
1.586166e+03,7.957736e+03
1.589058e+03,7.945806e+03
1.591951e+03,7.920651e+03
1.594844e+03,7.875252e+03
1.597736e+03,7.826376e+03
1.600629e+03,7.793734e+03
1.603522e+03,7.729689e+03
1.606415e+03,7.709755e+03
1.609307e+03,7.680844e+03
1.612200e+03,7.687097e+03
1.615093e+03,7.692695e+03
1.617985e+03,7.663621e+03
1.620878e+03,7.633433e+03
1.623771e+03,7.608555e+03
1.626663e+03,7.625783e+03
1.629556e+03,7.561876e+03
1.632449e+03,7.574780e+03
1.635342e+03,7.579484e+03
1.638234e+03,7.551294e+03
1.641127e+03,7.519427e+03
1.644020e+03,7.494836e+03
1.646912e+03,7.523303e+03
1.649805e+03,7.495904e+03
1.652698e+03,7.483226e+03
1.655590e+03,7.462020e+03
1.658483e+03,7.459531e+03
1.661376e+03,7.454479e+03
1.664269e+03,7.410101e+03
1.667161e+03,7.402100e+03
1.670054e+03,7.392960e+03
1.672947e+03,7.382222e+03
1.675839e+03,7.349561e+03
1.678732e+03,7.368531e+03
1.681625e+03,7.349248e+03
1.684517e+03,7.316043e+03
1.687410e+03,7.332028e+03
1.690303e+03,7.312140e+03
1.693196e+03,7.285276e+03
1.696088e+03,7.286643e+03
1.698981e+03,7.281500e+03
1.701874e+03,7.266667e+03
1.704766e+03,7.234205e+03
1.707659e+03,7.276396e+03
1.710552e+03,7.226914e+03
1.713444e+03,7.223566e+03
1.716337e+03,7.163317e+03
1.719230e+03,7.201500e+03
1.722123e+03,7.151685e+03
1.725015e+03,7.180221e+03
1.727908e+03,7.131310e+03
1.730801e+03,7.112330e+03
1.733693e+03,7.091821e+03
1.736586e+03,7.120235e+03
1.739479e+03,7.085452e+03
1.742371e+03,7.073598e+03
1.745264e+03,7.085596e+03
1.748157e+03,7.026060e+03
1.751050e+03,7.047919e+03
1.753942e+03,7.020948e+03
1.756835e+03,7.048983e+03
1.759728e+03,6.991084e+03
1.762620e+03,6.983115e+03
1.765513e+03,6.986725e+03
1.768406e+03,6.945849e+03
1.771298e+03,6.934417e+03
1.774191e+03,6.935543e+03
1.777084e+03,6.914726e+03
1.779977e+03,6.905438e+03
1.782869e+03,6.874520e+03
1.785762e+03,6.899322e+03
1.788655e+03,6.867521e+03
1.791547e+03,6.822939e+03
1.794440e+03,6.829765e+03
1.797333e+03,6.833688e+03
1.800225e+03,6.829400e+03
1.803118e+03,6.790727e+03
1.806011e+03,6.782603e+03
1.808904e+03,6.777559e+03
1.811796e+03,6.740920e+03
1.814689e+03,6.795224e+03
1.817582e+03,6.752324e+03
1.820474e+03,6.731428e+03
1.823367e+03,6.711225e+03
1.826260e+03,6.710662e+03
1.829152e+03,6.701534e+03
1.832045e+03,6.666687e+03
1.834938e+03,6.688667e+03
1.837831e+03,6.668784e+03
1.840723e+03,6.628975e+03
1.843616e+03,6.633691e+03
1.846509e+03,6.635417e+03
1.849401e+03,6.585717e+03
1.852294e+03,6.554122e+03
1.855187e+03,6.585104e+03
1.858079e+03,6.569247e+03
1.860972e+03,6.537366e+03
1.863865e+03,6.535373e+03
1.866758e+03,6.498921e+03
1.869650e+03,6.505677e+03
1.872543e+03,6.503661e+03
1.875436e+03,6.523125e+03
1.878328e+03,6.468956e+03
1.881221e+03,6.437588e+03
1.884114e+03,6.432047e+03
1.887006e+03,6.444148e+03
1.889899e+03,6.430863e+03
1.892792e+03,6.419394e+03
1.895685e+03,6.384899e+03
1.898577e+03,6.372523e+03
1.901470e+03,6.350031e+03
1.904363e+03,6.360509e+03
1.907255e+03,6.340049e+03
1.910148e+03,6.321521e+03
1.913041e+03,6.303951e+03
1.915933e+03,6.283476e+03
1.918826e+03,6.272042e+03
1.921719e+03,6.252766e+03
1.924612e+03,6.229572e+03
1.927504e+03,6.238469e+03
1.930397e+03,6.227002e+03
1.933290e+03,6.217420e+03
1.936182e+03,6.175921e+03
1.939075e+03,6.194660e+03
1.941968e+03,6.150976e+03
1.944860e+03,6.182154e+03
1.947753e+03,6.138468e+03
1.950646e+03,6.155454e+03
1.953539e+03,6.115250e+03
1.956431e+03,6.092415e+03
1.959324e+03,6.057849e+03
1.962217e+03,6.088559e+03
1.965109e+03,6.039475e+03
1.968002e+03,6.061973e+03
1.970895e+03,6.070995e+03
1.973787e+03,6.021251e+03
1.976680e+03,5.982813e+03
1.979573e+03,5.992891e+03
1.982466e+03,6.016842e+03
1.985358e+03,5.986742e+03
1.988251e+03,5.979158e+03
1.991144e+03,5.965651e+03
1.994036e+03,5.932516e+03
1.996929e+03,5.903252e+03
1.999822e+03,5.901507e+03
2.002714e+03,5.902463e+03
2.005607e+03,5.886351e+03
2.008500e+03,5.861951e+03
2.011393e+03,5.848530e+03
2.014285e+03,5.860017e+03
2.017178e+03,5.833904e+03
2.020071e+03,5.822800e+03
2.022963e+03,5.796108e+03
2.025856e+03,5.736005e+03
2.028749e+03,5.787343e+03
2.031641e+03,5.769788e+03
2.034534e+03,5.739592e+03
2.037427e+03,5.717518e+03
2.040320e+03,5.718958e+03
2.043212e+03,5.684961e+03
2.046105e+03,5.682854e+03
2.048998e+03,5.684032e+03
2.051890e+03,5.645723e+03
2.054783e+03,5.631847e+03
2.057676e+03,5.593901e+03
2.060568e+03,5.597496e+03
2.063461e+03,5.576796e+03
2.066354e+03,5.582132e+03
2.069247e+03,5.565142e+03
2.072139e+03,5.559018e+03
2.075032e+03,5.523290e+03
2.077925e+03,5.532893e+03
2.080817e+03,5.544681e+03
2.083710e+03,5.495132e+03
2.086603e+03,5.499212e+03
2.089496e+03,5.490715e+03
2.092388e+03,5.499130e+03
2.095281e+03,5.434897e+03
2.098174e+03,5.445813e+03
2.101066e+03,5.409211e+03
2.103959e+03,5.415394e+03
2.106852e+03,5.385426e+03
2.109744e+03,5.375872e+03
2.112637e+03,5.359080e+03
2.115530e+03,5.352462e+03
2.118422e+03,5.269005e+03
2.121315e+03,5.347824e+03
2.124208e+03,5.349962e+03
2.127101e+03,5.324258e+03
2.129993e+03,5.273473e+03
2.132886e+03,5.291789e+03
2.135779e+03,5.244755e+03
2.138671e+03,5.229877e+03
2.141564e+03,5.251506e+03
2.144457e+03,5.265328e+03
2.147350e+03,5.191979e+03
2.150242e+03,5.203826e+03
2.153135e+03,5.231970e+03
2.156028e+03,5.179489e+03
2.158920e+03,5.205923e+03
2.161813e+03,5.132015e+03
2.164706e+03,5.130726e+03
2.167598e+03,5.120210e+03
2.170491e+03,5.152747e+03
2.173384e+03,5.134116e+03
2.176277e+03,5.081521e+03
2.179169e+03,5.035981e+03
2.182062e+03,5.065816e+03
2.184955e+03,5.030634e+03
2.187847e+03,5.058989e+03
2.190740e+03,5.032189e+03
2.193633e+03,4.998469e+03
2.196525e+03,5.000800e+03
2.199418e+03,5.006608e+03
2.202311e+03,4.990285e+03
2.205204e+03,4.973170e+03
2.208096e+03,4.964426e+03
2.210989e+03,4.934628e+03
2.213882e+03,4.909446e+03
2.216774e+03,4.913760e+03
2.219667e+03,4.905826e+03
2.222560e+03,4.917264e+03
2.225452e+03,4.860192e+03
2.228345e+03,4.848036e+03
2.231238e+03,4.870767e+03
2.234131e+03,4.849942e+03
2.237023e+03,4.850903e+03
2.239916e+03,4.802786e+03
2.242809e+03,4.768506e+03
2.245701e+03,4.783556e+03
2.248594e+03,4.767275e+03
2.251487e+03,4.755625e+03
2.254379e+03,4.751721e+03
2.257272e+03,4.719911e+03
2.260165e+03,4.689054e+03
2.263058e+03,4.713768e+03
2.265950e+03,4.676743e+03
2.268843e+03,4.677033e+03
2.271736e+03,4.643524e+03
2.274628e+03,4.620097e+03
2.277521e+03,4.645760e+03
2.280414e+03,4.633480e+03
2.283306e+03,4.620805e+03
2.286199e+03,4.576040e+03
2.289092e+03,4.569313e+03
2.291985e+03,4.571515e+03
2.294877e+03,4.546164e+03
2.297770e+03,4.597823e+03
2.300663e+03,4.537498e+03
2.303555e+03,4.526530e+03
2.306448e+03,4.536756e+03
2.309341e+03,4.510607e+03
2.312233e+03,4.537462e+03
2.315126e+03,4.495420e+03
2.318019e+03,4.466547e+03
2.320912e+03,4.465134e+03
2.323804e+03,4.474883e+03
2.326697e+03,4.479677e+03
2.329590e+03,4.450723e+03
2.332482e+03,4.406632e+03
2.335375e+03,4.414873e+03
2.338268e+03,4.413373e+03
2.341160e+03,4.368267e+03
2.344053e+03,4.406697e+03
2.346946e+03,4.399195e+03
2.349839e+03,4.344751e+03
2.352731e+03,4.345870e+03
2.355624e+03,4.341338e+03
2.358517e+03,4.331308e+03
2.361409e+03,4.351313e+03
2.364302e+03,4.262181e+03
2.367195e+03,4.303137e+03
2.370087e+03,4.274200e+03
2.372980e+03,4.274810e+03
2.375873e+03,4.253022e+03
2.378766e+03,4.270812e+03
2.381658e+03,4.224338e+03
2.384551e+03,4.223961e+03
2.387444e+03,4.220027e+03
2.390336e+03,4.201845e+03
2.393229e+03,4.156698e+03
2.396122e+03,4.181282e+03
2.399014e+03,4.166123e+03
2.401907e+03,4.151936e+03
2.404800e+03,4.134104e+03
2.407693e+03,4.143774e+03
2.410585e+03,4.126793e+03
2.413478e+03,4.117257e+03
2.416371e+03,4.116631e+03
2.419263e+03,4.104133e+03
2.422156e+03,4.084313e+03
2.425049e+03,4.087774e+03
2.427941e+03,4.062883e+03
2.430834e+03,4.064806e+03
2.433727e+03,4.075236e+03
2.436620e+03,4.071328e+03
2.439512e+03,4.033419e+03
2.442405e+03,4.010182e+03
2.445298e+03,4.012393e+03
2.448190e+03,3.996143e+03
2.451083e+03,4.023875e+03
2.453976e+03,3.979513e+03
2.456868e+03,3.983038e+03
2.459761e+03,3.982043e+03
2.462654e+03,3.927399e+03
2.465547e+03,3.944009e+03
2.468439e+03,3.903012e+03
2.471332e+03,3.938161e+03
2.474225e+03,3.879643e+03
2.477117e+03,3.881018e+03
2.480010e+03,3.913196e+03
2.482903e+03,3.868935e+03
2.485795e+03,3.851205e+03
2.488688e+03,3.873716e+03
2.491581e+03,3.853297e+03
2.494474e+03,3.822988e+03
2.497366e+03,3.852102e+03
2.500259e+03,3.828233e+03
2.503152e+03,3.813295e+03
2.506044e+03,3.820392e+03
2.508937e+03,3.786697e+03
2.511830e+03,3.816175e+03
2.514722e+03,3.788517e+03
2.517615e+03,3.767516e+03
2.520508e+03,3.763695e+03
2.523401e+03,3.730864e+03
2.526293e+03,3.753042e+03
2.529186e+03,3.743075e+03
2.532079e+03,3.764040e+03
2.534971e+03,3.713237e+03
2.537864e+03,3.669688e+03
2.540757e+03,3.702811e+03
2.543649e+03,3.675902e+03
2.546542e+03,3.680303e+03
2.549435e+03,3.681142e+03
2.552328e+03,3.664323e+03
2.555220e+03,3.637145e+03
2.558113e+03,3.641254e+03
2.561006e+03,3.658107e+03
2.563898e+03,3.621757e+03
2.566791e+03,3.620189e+03
2.569684e+03,3.576085e+03
2.572576e+03,3.599589e+03
2.575469e+03,3.611488e+03
2.578362e+03,3.576501e+03
2.581255e+03,3.549335e+03
2.584147e+03,3.540391e+03
2.587040e+03,3.560731e+03
2.589933e+03,3.567822e+03
2.592825e+03,3.524538e+03
2.595718e+03,3.547958e+03
2.598611e+03,3.531512e+03
2.601503e+03,3.519030e+03
2.604396e+03,3.497120e+03
2.607289e+03,3.503983e+03
2.610182e+03,3.494025e+03
2.613074e+03,3.491260e+03
2.615967e+03,3.487437e+03
2.618860e+03,3.464578e+03
2.621752e+03,3.466265e+03
2.624645e+03,3.454557e+03
2.627538e+03,3.447450e+03
2.630430e+03,3.420160e+03
2.633323e+03,3.413577e+03
2.636216e+03,3.417946e+03
2.639109e+03,3.427667e+03
2.642001e+03,3.388927e+03
2.644894e+03,3.399755e+03
2.647787e+03,3.407755e+03
2.650679e+03,3.351614e+03
2.653572e+03,3.373663e+03
2.656465e+03,3.363649e+03
2.659357e+03,3.349464e+03
2.662250e+03,3.323939e+03
2.665143e+03,3.372780e+03
2.668036e+03,3.303644e+03
2.670928e+03,3.347212e+03
2.673821e+03,3.296966e+03
2.676714e+03,3.323144e+03
2.679606e+03,3.301609e+03
2.682499e+03,3.341828e+03
2.685392e+03,3.276777e+03
2.688284e+03,3.295451e+03
2.691177e+03,3.242020e+03
2.694070e+03,3.261633e+03
2.696963e+03,3.270640e+03
2.699855e+03,3.258334e+03
2.702748e+03,3.244539e+03
2.705641e+03,3.232133e+03
2.708533e+03,3.234171e+03
2.711426e+03,3.230392e+03
2.714319e+03,3.235981e+03
2.717211e+03,3.175184e+03
2.720104e+03,3.197689e+03
2.722997e+03,3.223185e+03
2.725890e+03,3.159274e+03
2.728782e+03,3.185530e+03
2.731675e+03,3.152059e+03
2.734568e+03,3.181173e+03
2.737460e+03,3.140159e+03
2.740353e+03,3.145712e+03
2.743246e+03,3.131695e+03
2.746138e+03,3.147018e+03
2.749031e+03,3.159764e+03
2.751924e+03,3.101298e+03
2.754817e+03,3.091520e+03
2.757709e+03,3.080965e+03
2.760602e+03,3.094443e+03
2.763495e+03,3.097073e+03
2.766387e+03,3.103848e+03
2.769280e+03,3.064140e+03
2.772173e+03,3.070932e+03
2.775065e+03,3.051946e+03
2.777958e+03,3.085457e+03
2.780851e+03,3.068439e+03
2.783744e+03,3.049696e+03
2.786636e+03,3.035947e+03
2.789529e+03,3.021819e+03
2.792422e+03,2.993937e+03
2.795314e+03,3.028543e+03
2.798207e+03,2.987618e+03
2.801100e+03,2.949306e+03
2.803992e+03,2.963581e+03
2.806885e+03,3.001871e+03
2.809778e+03,2.993876e+03
2.812671e+03,2.948600e+03
2.815563e+03,2.957112e+03
2.818456e+03,2.977103e+03
2.821349e+03,2.972190e+03
2.824241e+03,2.947383e+03
2.827134e+03,2.963403e+03
2.830027e+03,2.962950e+03
2.832919e+03,2.944747e+03
2.835812e+03,2.943693e+03
2.838705e+03,2.925488e+03
2.841598e+03,2.928895e+03
2.844490e+03,2.893366e+03
2.847383e+03,2.917845e+03
2.850276e+03,2.895673e+03
2.853168e+03,2.891651e+03
2.856061e+03,2.891042e+03
2.858954e+03,2.881590e+03
2.861846e+03,2.869259e+03
2.864739e+03,2.853944e+03
2.867632e+03,2.884573e+03
2.870525e+03,2.868432e+03
2.873417e+03,2.876474e+03
2.876310e+03,2.842209e+03
2.879203e+03,2.816159e+03
2.882095e+03,2.868310e+03
2.884988e+03,2.841743e+03
2.887881e+03,2.864321e+03
2.890773e+03,2.812712e+03
2.893666e+03,2.857457e+03
2.896559e+03,2.828246e+03
2.899452e+03,2.825280e+03
2.902344e+03,2.839769e+03
2.905237e+03,2.811045e+03
2.908130e+03,2.796384e+03
2.911022e+03,2.803968e+03
2.913915e+03,2.784274e+03
2.916808e+03,2.788819e+03
2.919700e+03,2.774962e+03
2.922593e+03,2.798430e+03
2.925486e+03,2.740104e+03
2.928379e+03,2.702698e+03
2.931271e+03,2.761267e+03
2.934164e+03,2.732392e+03
2.937057e+03,2.718067e+03
2.939949e+03,2.742070e+03
2.942842e+03,2.696016e+03
2.945735e+03,2.707874e+03
2.948627e+03,2.686970e+03
2.951520e+03,2.741157e+03
2.954413e+03,2.693285e+03
2.957306e+03,2.725886e+03
2.960198e+03,2.660125e+03
2.963091e+03,2.657331e+03
2.965984e+03,2.698191e+03
2.968876e+03,2.678662e+03
2.971769e+03,2.644612e+03
2.974662e+03,2.618886e+03
2.977554e+03,2.699356e+03
2.980447e+03,2.628336e+03
2.983340e+03,2.643683e+03
2.986233e+03,2.648353e+03
2.989125e+03,2.620975e+03
2.992018e+03,2.599671e+03
2.994911e+03,2.614559e+03
2.997803e+03,2.604731e+03
3.000696e+03,2.612227e+03
3.003589e+03,2.571965e+03
3.006481e+03,2.611998e+03
3.009374e+03,2.549326e+03
3.012267e+03,2.611927e+03
3.015160e+03,2.575321e+03
3.018052e+03,2.565351e+03
3.020945e+03,2.538905e+03
3.023838e+03,2.584024e+03
3.026730e+03,2.571156e+03
3.029623e+03,2.523946e+03
3.032516e+03,2.506710e+03
3.035408e+03,2.536180e+03
3.038301e+03,2.509746e+03
3.041194e+03,2.526288e+03
3.044087e+03,2.514177e+03
3.046979e+03,2.536046e+03
3.049872e+03,2.504725e+03
3.052765e+03,2.521318e+03
3.055657e+03,2.512643e+03
3.058550e+03,2.479339e+03
3.061443e+03,2.525341e+03
3.064335e+03,2.486288e+03
3.067228e+03,2.505867e+03
3.070121e+03,2.458413e+03
3.073014e+03,2.470646e+03
3.075906e+03,2.441595e+03
3.078799e+03,2.434318e+03
3.081692e+03,2.508119e+03
3.084584e+03,2.481063e+03
3.087477e+03,2.490552e+03
3.090370e+03,2.438360e+03
3.093262e+03,2.450788e+03
3.096155e+03,2.460537e+03
3.099048e+03,2.442750e+03
3.101941e+03,2.432370e+03
3.104833e+03,2.465480e+03
3.107726e+03,2.487915e+03
3.110619e+03,2.466617e+03
3.113511e+03,2.444383e+03
3.116404e+03,2.457844e+03
3.119297e+03,2.464808e+03
3.122189e+03,2.444555e+03
3.125082e+03,2.425099e+03
3.127975e+03,2.430784e+03
3.130868e+03,2.488689e+03
3.133760e+03,2.423429e+03
3.136653e+03,2.392140e+03
3.139546e+03,2.469795e+03
3.142438e+03,2.385843e+03
3.145331e+03,2.372146e+03
3.148224e+03,2.421214e+03
3.151116e+03,2.379211e+03
3.154009e+03,2.404676e+03
3.156902e+03,2.404340e+03
3.159795e+03,2.322594e+03
3.162687e+03,2.405587e+03
3.165580e+03,2.431288e+03
3.168473e+03,2.425696e+03
3.171365e+03,2.403290e+03
3.174258e+03,2.429171e+03
3.177151e+03,2.332535e+03
3.180043e+03,2.389479e+03
3.182936e+03,2.366219e+03
3.185829e+03,2.416713e+03
3.188722e+03,2.412905e+03
3.191614e+03,2.430905e+03
3.194507e+03,2.376184e+03
3.197400e+03,2.426357e+03
3.200292e+03,2.380082e+03
3.203185e+03,0.000000e+00
3.206078e+03,0.000000e+00
3.208970e+03,0.000000e+00
3.211863e+03,0.000000e+00
3.214756e+03,0.000000e+00
3.217649e+03,0.000000e+00
3.220541e+03,0.000000e+00
3.223434e+03,0.000000e+00
3.226327e+03,0.000000e+00
3.229219e+03,0.000000e+00
3.232112e+03,0.000000e+00
3.235005e+03,0.000000e+00
3.237897e+03,0.000000e+00
3.240790e+03,0.000000e+00
3.243683e+03,0.000000e+00
3.246576e+03,0.000000e+00
3.249468e+03,0.000000e+00
3.252361e+03,0.000000e+00
3.255254e+03,0.000000e+00
3.258146e+03,0.000000e+00
3.261039e+03,0.000000e+00
3.263932e+03,0.000000e+00
3.266824e+03,0.000000e+00
3.269717e+03,0.000000e+00
3.272610e+03,0.000000e+00
3.275503e+03,0.000000e+00
3.278395e+03,0.000000e+00
3.281288e+03,0.000000e+00
3.284181e+03,0.000000e+00
3.287073e+03,0.000000e+00
3.289966e+03,0.000000e+00
3.292859e+03,0.000000e+00
3.295751e+03,0.000000e+00
3.298644e+03,0.000000e+00
3.301537e+03,0.000000e+00
3.304430e+03,0.000000e+00
3.307322e+03,0.000000e+00
3.310215e+03,0.000000e+00
3.313108e+03,0.000000e+00
3.316000e+03,0.000000e+00
3.318893e+03,0.000000e+00
3.321786e+03,0.000000e+00
3.324678e+03,0.000000e+00
3.327571e+03,0.000000e+00
3.330464e+03,0.000000e+00
3.333357e+03,0.000000e+00
3.336249e+03,0.000000e+00
3.339142e+03,0.000000e+00
3.342035e+03,0.000000e+00
3.344927e+03,0.000000e+00
3.347820e+03,0.000000e+00
3.350713e+03,0.000000e+00
3.353605e+03,0.000000e+00
3.356498e+03,0.000000e+00
3.359391e+03,0.000000e+00
3.362284e+03,0.000000e+00
3.365176e+03,0.000000e+00
3.368069e+03,0.000000e+00
3.370962e+03,0.000000e+00
3.373854e+03,0.000000e+00
3.376747e+03,0.000000e+00
3.379640e+03,0.000000e+00
3.382532e+03,0.000000e+00
3.385425e+03,0.000000e+00
3.388318e+03,0.000000e+00
3.391211e+03,0.000000e+00
3.394103e+03,0.000000e+00
3.396996e+03,0.000000e+00
3.399889e+03,0.000000e+00
3.402781e+03,0.000000e+00
3.405674e+03,0.000000e+00
3.408567e+03,0.000000e+00
3.411459e+03,0.000000e+00
3.414352e+03,0.000000e+00
3.417245e+03,0.000000e+00
3.420138e+03,0.000000e+00
3.423030e+03,0.000000e+00
3.425923e+03,0.000000e+00
3.428816e+03,0.000000e+00
3.431708e+03,0.000000e+00
3.434601e+03,0.000000e+00
3.437494e+03,0.000000e+00
3.440386e+03,0.000000e+00
3.443279e+03,0.000000e+00
3.446172e+03,0.000000e+00
3.449065e+03,0.000000e+00
3.451957e+03,0.000000e+00
3.454850e+03,0.000000e+00
3.457743e+03,0.000000e+00
3.460635e+03,0.000000e+00
3.463528e+03,0.000000e+00
3.466421e+03,0.000000e+00
3.469313e+03,0.000000e+00
3.472206e+03,0.000000e+00
3.475099e+03,0.000000e+00
3.477992e+03,0.000000e+00
3.480884e+03,0.000000e+00
3.483777e+03,0.000000e+00
3.486670e+03,0.000000e+00
3.489563e+03,0.000000e+00
3.492455e+03,0.000000e+00
3.495348e+03,0.000000e+00
3.498240e+03,0.000000e+00
3.500169e+03,0.000000e+00