File: RAMAN_data/13042023_r1/.CSV
9.931763e+01,0.000000e+00
1.022103e+02,0.000000e+00
1.051030e+02,0.000000e+00
1.079957e+02,0.000000e+00
1.108884e+02,0.000000e+00
1.137811e+02,0.000000e+00
1.166738e+02,0.000000e+00
1.195665e+02,0.000000e+00
1.224592e+02,0.000000e+00
1.253519e+02,0.000000e+00
1.282446e+02,0.000000e+00
1.311373e+02,0.000000e+00
1.340300e+02,0.000000e+00
1.369227e+02,0.000000e+00
1.398154e+02,0.000000e+00
1.427081e+02,0.000000e+00
1.456008e+02,0.000000e+00
1.484935e+02,0.000000e+00
1.513862e+02,0.000000e+00
1.542789e+02,0.000000e+00
1.571716e+02,0.000000e+00
1.600643e+02,0.000000e+00
1.629570e+02,0.000000e+00
1.658497e+02,0.000000e+00
1.687424e+02,0.000000e+00
1.716351e+02,0.000000e+00
1.745278e+02,0.000000e+00
1.774205e+02,0.000000e+00
1.803132e+02,0.000000e+00
1.832059e+02,0.000000e+00
1.860986e+02,0.000000e+00
1.889913e+02,0.000000e+00
1.918840e+02,0.000000e+00
1.947767e+02,0.000000e+00
1.976694e+02,0.000000e+00
2.005621e+02,1.047981e+04
2.034548e+02,1.052034e+04
2.063475e+02,1.054905e+04
2.092402e+02,1.055023e+04
2.121329e+02,1.055114e+04
2.150256e+02,1.057994e+04
2.179183e+02,1.060919e+04
2.208110e+02,1.066058e+04
2.237037e+02,1.067718e+04
2.265964e+02,1.068749e+04
2.294892e+02,1.071674e+04
2.323819e+02,1.076485e+04
2.352746e+02,1.080180e+04
2.381673e+02,1.083688e+04
2.410600e+02,1.083374e+04
2.439527e+02,1.085114e+04
2.468454e+02,1.088743e+04
2.497381e+02,1.092293e+04
2.526308e+02,1.095972e+04
2.555235e+02,1.097477e+04
2.584161e+02,1.097703e+04
2.613088e+02,1.102010e+04
2.642015e+02,1.107264e+04
2.670942e+02,1.109793e+04
2.699869e+02,1.113241e+04
2.728796e+02,1.114520e+04
2.757723e+02,1.118599e+04
2.786650e+02,1.122956e+04
2.815577e+02,1.125743e+04
2.844504e+02,1.128402e+04
2.873431e+02,1.129060e+04
2.902358e+02,1.131700e+04
2.931285e+02,1.134644e+04
2.960212e+02,1.139113e+04
2.989139e+02,1.141448e+04
3.018066e+02,1.143413e+04
3.046993e+02,1.146692e+04
3.075920e+02,1.148884e+04
3.104847e+02,1.152890e+04
3.133774e+02,1.157925e+04
3.162701e+02,1.159601e+04
3.191628e+02,1.160888e+04
3.220555e+02,1.164175e+04
3.249482e+02,1.168424e+04
3.278409e+02,1.172364e+04
3.307336e+02,1.175929e+04
3.336263e+02,1.178546e+04
3.365190e+02,1.179593e+04
3.394117e+02,1.184477e+04
3.423044e+02,1.189110e+04
3.451971e+02,1.195065e+04
3.480898e+02,1.197636e+04
3.509825e+02,1.198931e+04
3.538752e+02,1.203903e+04
3.567680e+02,1.208796e+04
3.596607e+02,1.212734e+04
3.625534e+02,1.216518e+04
3.654461e+02,1.215143e+04
3.683388e+02,1.217766e+04
3.712315e+02,1.224066e+04
3.741242e+02,1.227460e+04
3.770169e+02,1.231209e+04
3.799096e+02,1.235504e+04
3.828023e+02,1.237077e+04
3.856950e+02,1.241141e+04
3.885877e+02,1.246715e+04
3.914804e+02,1.251785e+04
3.943731e+02,1.254654e+04
3.972658e+02,1.257221e+04
4.001585e+02,1.259571e+04
4.030512e+02,1.265208e+04
4.059439e+02,1.268439e+04
4.088366e+02,1.272684e+04
4.117293e+02,1.274472e+04
4.146220e+02,1.277363e+04
4.175147e+02,1.281375e+04
4.204074e+02,1.285257e+04
4.233001e+02,1.288676e+04
4.261928e+02,1.290905e+04
4.290855e+02,1.294774e+04
4.319782e+02,1.298699e+04
4.348709e+02,1.304558e+04
4.377636e+02,1.309523e+04
4.406563e+02,1.313692e+04
4.435490e+02,1.317664e+04
4.464417e+02,1.321787e+04
4.493344e+02,1.326524e+04
4.522271e+02,1.329400e+04
4.551198e+02,1.332378e+04
4.580125e+02,1.333318e+04
4.609052e+02,1.337773e+04
4.637979e+02,1.340457e+04
4.666906e+02,1.342731e+04
4.695833e+02,1.347626e+04
4.724760e+02,1.351270e+04
4.753687e+02,1.353440e+04
4.782614e+02,1.355543e+04
4.811541e+02,1.357489e+04
4.840468e+02,1.360470e+04
4.869395e+02,1.362488e+04
4.898322e+02,1.360589e+04
4.927249e+02,1.363123e+04
4.956176e+02,1.367585e+04
4.985103e+02,1.368204e+04
5.014030e+02,1.370033e+04
5.042957e+02,1.367690e+04
5.071884e+02,1.369004e+04
5.100811e+02,1.370780e+04
5.129738e+02,1.371859e+04
5.158665e+02,1.374516e+04
5.187592e+02,1.377151e+04
5.216519e+02,1.372615e+04
5.245446e+02,1.374684e+04
5.274373e+02,1.377753e+04
5.303300e+02,1.377077e+04
5.332227e+02,1.374365e+04
5.361154e+02,1.373635e+04
5.390081e+02,1.371499e+04
5.419008e+02,1.375976e+04
5.447935e+02,1.371419e+04
5.476862e+02,1.373294e+04
5.505789e+02,1.370265e+04
5.534716e+02,1.365591e+04
5.563643e+02,1.367423e+04
5.592570e+02,1.369081e+04
5.621497e+02,1.367788e+04
5.650424e+02,1.366218e+04
5.679351e+02,1.364928e+04
5.708278e+02,1.360060e+04
5.737205e+02,1.359759e+04
5.766132e+02,1.361610e+04
5.795059e+02,1.363142e+04
5.823986e+02,1.360600e+04
5.852913e+02,1.356677e+04
5.881840e+02,1.358192e+04
5.910767e+02,1.359107e+04
5.939694e+02,1.361492e+04
5.968621e+02,1.357223e+04
5.997548e+02,1.353058e+04
6.026475e+02,1.352525e+04
6.055402e+02,1.352805e+04
6.084329e+02,1.352157e+04
6.113256e+02,1.351743e+04
6.142183e+02,1.349274e+04
6.171110e+02,1.348653e+04
6.200037e+02,1.348818e+04
6.228964e+02,1.344608e+04
6.257891e+02,1.346645e+04
6.286818e+02,1.345013e+04
6.315745e+02,1.340348e+04
6.344672e+02,1.338262e+04
6.373599e+02,1.336009e+04
6.402526e+02,1.336102e+04
6.431453e+02,1.333907e+04
6.460380e+02,1.327692e+04
6.489307e+02,1.325012e+04
6.518234e+02,1.327105e+04
6.547161e+02,1.324725e+04
6.576088e+02,1.321544e+04
6.605015e+02,1.313293e+04
6.633942e+02,1.313058e+04
6.662869e+02,1.313353e+04
6.691796e+02,1.309248e+04
6.720723e+02,1.310552e+04
6.749650e+02,1.302438e+04
6.778577e+02,1.297320e+04
6.807504e+02,1.298051e+04
6.836431e+02,1.295593e+04
6.865358e+02,1.291727e+04
6.894285e+02,1.286555e+04
6.923212e+02,1.282772e+04
6.952139e+02,1.284081e+04
6.981066e+02,1.282646e+04
7.009993e+02,1.280197e+04
7.038920e+02,1.277564e+04
7.067847e+02,1.272796e+04
7.096774e+02,1.271116e+04
7.125701e+02,1.268865e+04
7.154628e+02,1.265760e+04
7.183555e+02,1.264389e+04
7.212482e+02,1.260573e+04
7.241409e+02,1.254695e+04
7.270336e+02,1.255938e+04
7.299263e+02,1.254009e+04
7.328190e+02,1.250062e+04
7.357117e+02,1.247904e+04
7.386044e+02,1.244904e+04
7.414971e+02,1.242722e+04
7.443898e+02,1.243278e+04
7.472825e+02,1.245544e+04
7.501752e+02,1.238385e+04
7.530679e+02,1.233519e+04
7.559606e+02,1.227313e+04
7.588533e+02,1.229360e+04
7.617460e+02,1.226902e+04
7.646387e+02,1.222810e+04
7.675314e+02,1.217762e+04
7.704241e+02,1.215130e+04
7.733168e+02,1.213775e+04
7.762095e+02,1.214396e+04
7.791022e+02,1.212128e+04
7.819949e+02,1.205924e+04
7.848876e+02,1.203170e+04
7.877803e+02,1.198543e+04
7.906730e+02,1.200891e+04
7.935657e+02,1.198909e+04
7.964584e+02,1.191997e+04
7.993511e+02,1.189962e+04
8.022438e+02,1.189351e+04
8.051365e+02,1.189186e+04
8.080292e+02,1.186747e+04
8.109219e+02,1.181368e+04
8.138146e+02,1.182400e+04
8.167073e+02,1.178638e+04
8.196000e+02,1.174112e+04
8.224927e+02,1.176125e+04
8.253854e+02,1.169428e+04
8.282781e+02,1.168845e+04
8.311708e+02,1.166669e+04
8.340635e+02,1.164259e+04
8.369562e+02,1.163054e+04
8.398489e+02,1.164863e+04
8.427416e+02,1.161490e+04
8.456343e+02,1.153886e+04
8.485270e+02,1.151546e+04
8.514197e+02,1.149603e+04
8.543124e+02,1.146378e+04
8.572051e+02,1.144097e+04
8.600978e+02,1.141505e+04
8.629905e+02,1.136701e+04
8.658832e+02,1.136608e+04
8.687759e+02,1.137870e+04
8.716686e+02,1.131614e+04
8.745613e+02,1.133990e+04
8.774540e+02,1.132912e+04
8.803467e+02,1.127178e+04
8.832394e+02,1.126769e+04
8.861321e+02,1.124571e+04
8.890248e+02,1.123392e+04
8.919175e+02,1.116859e+04
8.948102e+02,1.112009e+04
8.977029e+02,1.113680e+04
9.005956e+02,1.114258e+04
9.034883e+02,1.111013e+04
9.063810e+02,1.109309e+04
9.092737e+02,1.105361e+04
9.121664e+02,1.101175e+04
9.150591e+02,1.100471e+04
9.179518e+02,1.099217e+04
9.208445e+02,1.095581e+04
9.237372e+02,1.091255e+04
9.266299e+02,1.089503e+04
9.295226e+02,1.087868e+04
9.324153e+02,1.084630e+04
9.353080e+02,1.080753e+04
9.382007e+02,1.077944e+04
9.410934e+02,1.077451e+04
9.439861e+02,1.075303e+04
9.468788e+02,1.079191e+04
9.497715e+02,1.072644e+04
9.526642e+02,1.068898e+04
9.555569e+02,1.065011e+04
9.584496e+02,1.064873e+04
9.613423e+02,1.065577e+04
9.642350e+02,1.062084e+04
9.671277e+02,1.058277e+04
9.700204e+02,1.054473e+04
9.729131e+02,1.051167e+04
9.758058e+02,1.051878e+04
9.786985e+02,1.054374e+04
9.815912e+02,1.048231e+04
9.844839e+02,1.040888e+04
9.873766e+02,1.041999e+04
9.902693e+02,1.038218e+04
9.931620e+02,1.040049e+04
9.960547e+02,1.040029e+04
9.989474e+02,1.036387e+04
1.001840e+03,1.030288e+04
1.004733e+03,1.026660e+04
1.007626e+03,1.028744e+04
1.010518e+03,1.025167e+04
1.013411e+03,1.020738e+04
1.016304e+03,1.019116e+04
1.019196e+03,1.017047e+04
1.022089e+03,1.016257e+04
1.024982e+03,1.016577e+04
1.027875e+03,1.011009e+04
1.030767e+03,1.011988e+04
1.033660e+03,1.012029e+04
1.036552e+03,1.006625e+04
1.039445e+03,1.007429e+04
1.042338e+03,1.002317e+04
1.045231e+03,1.002182e+04
1.048123e+03,9.988808e+03
1.051016e+03,9.955224e+03
1.053909e+03,9.941562e+03
1.056802e+03,9.931989e+03
1.059694e+03,9.894491e+03
1.062587e+03,9.889636e+03
1.065479e+03,9.837669e+03
1.068372e+03,9.848084e+03
1.071265e+03,9.859726e+03
1.074158e+03,9.815340e+03
1.077050e+03,9.799780e+03
1.079943e+03,9.733615e+03
1.082836e+03,9.749172e+03
1.085729e+03,9.752541e+03
1.088621e+03,9.735262e+03
1.091514e+03,9.707678e+03
1.094406e+03,9.649682e+03
1.097299e+03,9.643482e+03
1.100192e+03,9.653707e+03
1.103085e+03,9.592382e+03
1.105977e+03,9.576965e+03
1.108870e+03,9.551614e+03
1.111763e+03,9.530571e+03
1.114656e+03,9.522743e+03
1.117548e+03,9.518432e+03
1.120441e+03,9.500754e+03
1.123334e+03,9.472891e+03
1.126226e+03,9.409993e+03
1.129119e+03,9.393140e+03
1.132012e+03,9.427755e+03
1.134904e+03,9.374232e+03
1.137797e+03,9.330184e+03
1.140690e+03,9.328548e+03
1.143583e+03,9.299619e+03
1.146475e+03,9.350764e+03
1.149368e+03,9.280041e+03
1.152261e+03,9.297891e+03
1.155153e+03,9.251065e+03
1.158046e+03,9.232601e+03
1.160939e+03,9.227588e+03
1.163831e+03,9.202776e+03
1.166724e+03,9.187957e+03
1.169617e+03,9.138703e+03
1.172510e+03,9.100167e+03
1.175402e+03,9.092519e+03
1.178295e+03,9.078823e+03
1.181188e+03,9.098626e+03
1.184080e+03,9.071670e+03
1.186973e+03,9.040502e+03
1.189866e+03,9.007215e+03
1.192758e+03,8.995462e+03
1.195651e+03,8.982408e+03
1.198544e+03,8.977056e+03
1.201437e+03,8.932969e+03
1.204329e+03,8.893601e+03
1.207222e+03,8.902911e+03
1.210115e+03,8.890069e+03
1.213007e+03,8.887829e+03
1.215900e+03,8.833521e+03
1.218793e+03,8.797131e+03
1.221685e+03,8.782109e+03
1.224578e+03,8.819366e+03
1.227471e+03,8.774650e+03
1.230364e+03,8.746997e+03
1.233256e+03,8.710715e+03
1.236149e+03,8.701523e+03
1.239042e+03,8.714504e+03
1.241934e+03,8.701489e+03
1.244827e+03,8.674757e+03
1.247720e+03,8.609432e+03
1.250612e+03,8.599069e+03
1.253505e+03,8.575563e+03
1.256398e+03,8.601767e+03
1.259291e+03,8.586355e+03
1.262183e+03,8.559994e+03
1.265076e+03,8.529260e+03
1.267969e+03,8.496322e+03
1.270861e+03,8.481843e+03
1.273754e+03,8.493691e+03
1.276647e+03,8.472107e+03
1.279539e+03,8.446027e+03
1.282432e+03,8.408260e+03
1.285325e+03,8.399845e+03
1.288218e+03,8.409225e+03
1.291110e+03,8.370989e+03
1.294003e+03,8.351018e+03
1.296896e+03,8.321666e+03
1.299788e+03,8.296270e+03
1.302681e+03,8.288261e+03
1.305574e+03,8.274275e+03
1.308466e+03,8.260055e+03
1.311359e+03,8.253440e+03
1.314252e+03,8.230479e+03
1.317145e+03,8.230283e+03
1.320037e+03,8.234857e+03
1.322930e+03,8.211098e+03
1.325823e+03,8.173843e+03
1.328715e+03,8.147230e+03
1.331608e+03,8.143948e+03
1.334501e+03,8.189252e+03
1.337393e+03,8.152008e+03
1.340286e+03,8.152913e+03
1.343179e+03,8.046311e+03
1.346072e+03,8.035687e+03
1.348964e+03,8.041474e+03
1.351857e+03,8.018594e+03
1.354750e+03,8.010794e+03
1.357642e+03,7.967625e+03
1.360535e+03,7.920706e+03
1.363428e+03,7.921100e+03
1.366320e+03,7.904010e+03
1.369213e+03,7.905350e+03
1.372106e+03,7.879005e+03
1.374999e+03,7.839981e+03
1.377891e+03,7.874876e+03
1.380784e+03,7.839015e+03
1.383677e+03,7.800286e+03
1.386569e+03,7.808103e+03
1.389462e+03,7.778130e+03
1.392355e+03,7.747619e+03
1.395247e+03,7.743276e+03
1.398140e+03,7.740467e+03
1.401033e+03,7.716159e+03
1.403926e+03,7.671073e+03
1.406818e+03,7.687459e+03
1.409711e+03,7.673466e+03
1.412604e+03,7.668732e+03
1.415496e+03,7.645018e+03
1.418389e+03,7.590303e+03
1.421282e+03,7.581531e+03
1.424174e+03,7.601586e+03
1.427067e+03,7.567880e+03
1.429960e+03,7.538889e+03
1.432853e+03,7.541876e+03
1.435745e+03,7.509769e+03
1.438638e+03,7.459368e+03
1.441531e+03,7.474907e+03
1.444423e+03,7.475157e+03
1.447316e+03,7.461372e+03
1.450209e+03,7.405680e+03
1.453101e+03,7.405702e+03
1.455994e+03,7.386710e+03
1.458887e+03,7.395351e+03
1.461780e+03,7.344416e+03
1.464672e+03,7.359744e+03
1.467565e+03,7.317066e+03
1.470458e+03,7.279722e+03
1.473350e+03,7.257592e+03
1.476243e+03,7.258031e+03
1.479136e+03,7.249843e+03
1.482028e+03,7.191985e+03
1.484921e+03,7.198453e+03
1.487814e+03,7.223724e+03
1.490707e+03,7.186664e+03
1.493599e+03,7.163557e+03
1.496492e+03,7.145327e+03
1.499385e+03,7.132421e+03
1.502277e+03,7.094944e+03
1.505170e+03,7.106185e+03
1.508063e+03,7.100008e+03
1.510955e+03,7.064174e+03
1.513848e+03,7.043627e+03
1.516741e+03,7.031385e+03
1.519634e+03,7.049623e+03
1.522526e+03,6.999335e+03
1.525419e+03,7.004860e+03
1.528312e+03,6.989058e+03
1.531204e+03,6.977350e+03
1.534097e+03,7.009992e+03
1.536990e+03,6.984901e+03
1.539882e+03,6.970536e+03
1.542775e+03,6.957515e+03
1.545668e+03,6.922522e+03
1.548561e+03,6.896609e+03
1.551453e+03,6.876267e+03
1.554346e+03,6.851625e+03
1.557239e+03,6.816737e+03
1.560131e+03,6.759711e+03
1.563024e+03,6.787077e+03
1.565917e+03,6.766028e+03
1.568809e+03,6.737000e+03
1.571702e+03,6.728835e+03
1.574595e+03,6.717618e+03
1.577488e+03,6.696726e+03
1.580380e+03,6.689850e+03
1.583273e+03,6.689931e+03
1.586166e+03,6.657556e+03
1.589058e+03,6.599402e+03
1.591951e+03,6.607420e+03
1.594844e+03,6.578234e+03
1.597736e+03,6.578330e+03
1.600629e+03,6.585622e+03
1.603522e+03,6.537199e+03
1.606415e+03,6.509772e+03
1.609307e+03,6.521796e+03
1.612200e+03,6.487043e+03
1.615093e+03,6.487514e+03
1.617985e+03,6.459664e+03
1.620878e+03,6.427222e+03
1.623771e+03,6.400585e+03
1.626663e+03,6.421776e+03
1.629556e+03,6.388554e+03
1.632449e+03,6.366592e+03
1.635342e+03,6.342383e+03
1.638234e+03,6.361898e+03
1.641127e+03,6.311269e+03
1.644020e+03,6.335383e+03
1.646912e+03,6.298758e+03
1.649805e+03,6.260747e+03
1.652698e+03,6.236087e+03
1.655590e+03,6.247470e+03
1.658483e+03,6.239936e+03
1.661376e+03,6.201726e+03
1.664269e+03,6.175001e+03
1.667161e+03,6.188810e+03
1.670054e+03,6.140838e+03
1.672947e+03,6.157921e+03
1.675839e+03,6.140461e+03
1.678732e+03,6.100394e+03
1.681625e+03,6.111876e+03
1.684517e+03,6.086246e+03
1.687410e+03,6.053771e+03
1.690303e+03,6.057101e+03
1.693196e+03,6.042697e+03
1.696088e+03,6.018342e+03
1.698981e+03,6.025812e+03
1.701874e+03,5.982742e+03
1.704766e+03,5.966542e+03
1.707659e+03,5.960261e+03
1.710552e+03,5.947154e+03
1.713444e+03,5.908307e+03
1.716337e+03,5.906017e+03
1.719230e+03,5.908979e+03
1.722123e+03,5.857860e+03
1.725015e+03,5.838875e+03
1.727908e+03,5.822180e+03
1.730801e+03,5.850365e+03
1.733693e+03,5.793969e+03
1.736586e+03,5.794065e+03
1.739479e+03,5.788546e+03
1.742371e+03,5.781148e+03
1.745264e+03,5.763864e+03
1.748157e+03,5.736177e+03
1.751050e+03,5.714322e+03
1.753942e+03,5.709151e+03
1.756835e+03,5.703236e+03
1.759728e+03,5.634703e+03
1.762620e+03,5.618009e+03
1.765513e+03,5.651067e+03
1.768406e+03,5.631727e+03
1.771298e+03,5.635547e+03
1.774191e+03,5.586632e+03
1.777084e+03,5.587979e+03
1.779977e+03,5.561848e+03
1.782869e+03,5.559950e+03
1.785762e+03,5.536368e+03
1.788655e+03,5.511444e+03
1.791547e+03,5.475583e+03
1.794440e+03,5.489907e+03
1.797333e+03,5.484068e+03
1.800225e+03,5.466553e+03
1.803118e+03,5.459948e+03
1.806011e+03,5.414198e+03
1.808904e+03,5.428626e+03
1.811796e+03,5.390198e+03
1.814689e+03,5.395948e+03
1.817582e+03,5.370090e+03
1.820474e+03,5.357159e+03
1.823367e+03,5.343536e+03
1.826260e+03,5.310895e+03
1.829152e+03,5.302964e+03
1.832045e+03,5.297654e+03
1.834938e+03,5.306365e+03
1.837831e+03,5.275716e+03
1.840723e+03,5.243187e+03
1.843616e+03,5.252025e+03
1.846509e+03,5.230190e+03
1.849401e+03,5.191307e+03
1.852294e+03,5.145984e+03
1.855187e+03,5.148388e+03
1.858079e+03,5.159164e+03
1.860972e+03,5.124550e+03
1.863865e+03,5.160618e+03
1.866758e+03,5.108630e+03
1.869650e+03,5.107091e+03
1.872543e+03,5.078494e+03
1.875436e+03,5.097689e+03
1.878328e+03,5.066001e+03
1.881221e+03,5.031083e+03
1.884114e+03,5.008070e+03
1.887006e+03,5.029015e+03
1.889899e+03,5.005952e+03
1.892792e+03,4.973703e+03
1.895685e+03,4.953305e+03
1.898577e+03,4.970306e+03
1.901470e+03,4.945766e+03
1.904363e+03,4.937689e+03
1.907255e+03,4.902425e+03
1.910148e+03,4.896286e+03
1.913041e+03,4.872788e+03
1.915933e+03,4.859911e+03
1.918826e+03,4.837015e+03
1.921719e+03,4.835810e+03
1.924612e+03,4.808036e+03
1.927504e+03,4.797102e+03
1.930397e+03,4.770548e+03
1.933290e+03,4.762570e+03
1.936182e+03,4.754167e+03
1.939075e+03,4.776618e+03
1.941968e+03,4.744209e+03
1.944860e+03,4.727040e+03
1.947753e+03,4.702463e+03
1.950646e+03,4.699503e+03
1.953539e+03,4.677528e+03
1.956431e+03,4.669065e+03
1.959324e+03,4.622730e+03
1.962217e+03,4.635077e+03
1.965109e+03,4.638875e+03
1.968002e+03,4.629347e+03
1.970895e+03,4.585290e+03
1.973787e+03,4.566493e+03
1.976680e+03,4.589076e+03
1.979573e+03,4.552076e+03
1.982466e+03,4.547274e+03
1.985358e+03,4.532420e+03
1.988251e+03,4.535854e+03
1.991144e+03,4.480401e+03
1.994036e+03,4.478810e+03
1.996929e+03,4.477734e+03
1.999822e+03,4.475309e+03
2.002714e+03,4.456901e+03
2.005607e+03,4.432700e+03
2.008500e+03,4.391359e+03
2.011393e+03,4.378987e+03
2.014285e+03,4.381845e+03
2.017178e+03,4.415793e+03
2.020071e+03,4.374134e+03
2.022963e+03,4.337481e+03
2.025856e+03,4.317106e+03
2.028749e+03,4.315029e+03
2.031641e+03,4.308004e+03
2.034534e+03,4.277634e+03
2.037427e+03,4.275545e+03
2.040320e+03,4.246914e+03
2.043212e+03,4.239315e+03
2.046105e+03,4.246647e+03
2.048998e+03,4.227010e+03
2.051890e+03,4.190425e+03
2.054783e+03,4.195996e+03
2.057676e+03,4.166845e+03
2.060568e+03,4.168352e+03
2.063461e+03,4.166046e+03
2.066354e+03,4.146575e+03
2.069247e+03,4.116102e+03
2.072139e+03,4.108572e+03
2.075032e+03,4.072531e+03
2.077925e+03,4.074185e+03
2.080817e+03,4.096775e+03
2.083710e+03,4.055622e+03
2.086603e+03,4.036962e+03
2.089496e+03,4.029738e+03
2.092388e+03,4.026356e+03
2.095281e+03,4.015803e+03
2.098174e+03,3.974576e+03
2.101066e+03,3.981330e+03
2.103959e+03,3.974583e+03
2.106852e+03,3.962158e+03
2.109744e+03,3.946751e+03
2.112637e+03,3.919198e+03
2.115530e+03,3.889583e+03
2.118422e+03,3.894915e+03
2.121315e+03,3.899671e+03
2.124208e+03,3.894719e+03
2.127101e+03,3.845763e+03
2.129993e+03,3.851087e+03
2.132886e+03,3.854483e+03
2.135779e+03,3.838594e+03
2.138671e+03,3.819301e+03
2.141564e+03,3.820393e+03
2.144457e+03,3.778496e+03
2.147350e+03,3.744630e+03
2.150242e+03,3.742672e+03
2.153135e+03,3.745162e+03
2.156028e+03,3.717969e+03
2.158920e+03,3.704820e+03
2.161813e+03,3.714616e+03
2.164706e+03,3.701792e+03
2.167598e+03,3.664814e+03
2.170491e+03,3.692511e+03
2.173384e+03,3.658349e+03
2.176277e+03,3.642519e+03
2.179169e+03,3.616610e+03
2.182062e+03,3.607860e+03
2.184955e+03,3.608538e+03
2.187847e+03,3.621928e+03
2.190740e+03,3.589210e+03
2.193633e+03,3.558530e+03
2.196525e+03,3.548060e+03
2.199418e+03,3.577030e+03
2.202311e+03,3.555408e+03
2.205204e+03,3.541489e+03
2.208096e+03,3.515031e+03
2.210989e+03,3.481776e+03
2.213882e+03,3.506471e+03
2.216774e+03,3.496572e+03
2.219667e+03,3.471998e+03
2.222560e+03,3.442728e+03
2.225452e+03,3.437466e+03
2.228345e+03,3.434376e+03
2.231238e+03,3.437420e+03
2.234131e+03,3.424480e+03
2.237023e+03,3.397933e+03
2.239916e+03,3.388185e+03
2.242809e+03,3.365905e+03
2.245701e+03,3.362012e+03
2.248594e+03,3.344743e+03
2.251487e+03,3.323548e+03
2.254379e+03,3.350759e+03
2.257272e+03,3.318807e+03
2.260165e+03,3.309909e+03
2.263058e+03,3.289553e+03
2.265950e+03,3.293603e+03
2.268843e+03,3.250213e+03
2.271736e+03,3.243300e+03
2.274628e+03,3.261036e+03
2.277521e+03,3.225498e+03
2.280414e+03,3.245032e+03
2.283306e+03,3.219800e+03
2.286199e+03,3.166811e+03
2.289092e+03,3.166045e+03
2.291985e+03,3.161176e+03
2.294877e+03,3.168555e+03
2.297770e+03,3.175141e+03
2.300663e+03,3.164119e+03
2.303555e+03,3.146122e+03
2.306448e+03,3.119806e+03
2.309341e+03,3.106689e+03
2.312233e+03,3.121044e+03
2.315126e+03,3.087146e+03
2.318019e+03,3.077564e+03
2.320912e+03,3.099134e+03
2.323804e+03,3.033674e+03
2.326697e+03,3.059310e+03
2.329590e+03,3.069865e+03
2.332482e+03,3.054781e+03
2.335375e+03,3.016748e+03
2.338268e+03,3.017113e+03
2.341160e+03,2.986052e+03
2.344053e+03,2.995836e+03
2.346946e+03,3.002147e+03
2.349839e+03,2.995222e+03
2.352731e+03,2.953338e+03
2.355624e+03,2.964255e+03
2.358517e+03,2.946160e+03
2.361409e+03,2.933858e+03
2.364302e+03,2.921872e+03
2.367195e+03,2.910438e+03
2.370087e+03,2.889823e+03
2.372980e+03,2.912798e+03
2.375873e+03,2.895443e+03
2.378766e+03,2.862701e+03
2.381658e+03,2.833290e+03
2.384551e+03,2.865847e+03
2.387444e+03,2.857377e+03
2.390336e+03,2.838581e+03
2.393229e+03,2.819095e+03
2.396122e+03,2.820636e+03
2.399014e+03,2.819089e+03
2.401907e+03,2.792190e+03
2.404800e+03,2.816124e+03
2.407693e+03,2.807141e+03
2.410585e+03,2.776054e+03
2.413478e+03,2.753375e+03
2.416371e+03,2.772335e+03
2.419263e+03,2.725912e+03
2.422156e+03,2.736553e+03
2.425049e+03,2.734349e+03
2.427941e+03,2.727953e+03
2.430834e+03,2.707668e+03
2.433727e+03,2.730599e+03
2.436620e+03,2.675344e+03
2.439512e+03,2.707677e+03
2.442405e+03,2.682726e+03
2.445298e+03,2.660707e+03
2.448190e+03,2.664635e+03
2.451083e+03,2.652967e+03
2.453976e+03,2.663873e+03
2.456868e+03,2.636101e+03
2.459761e+03,2.615801e+03
2.462654e+03,2.615475e+03
2.465547e+03,2.613778e+03
2.468439e+03,2.620724e+03
2.471332e+03,2.601332e+03
2.474225e+03,2.576935e+03
2.477117e+03,2.576103e+03
2.480010e+03,2.582925e+03
2.482903e+03,2.572724e+03
2.485795e+03,2.552499e+03
2.488688e+03,2.531866e+03
2.491581e+03,2.546815e+03
2.494474e+03,2.539307e+03
2.497366e+03,2.522970e+03
2.500259e+03,2.524033e+03
2.503152e+03,2.525800e+03
2.506044e+03,2.482762e+03
2.508937e+03,2.498379e+03
2.511830e+03,2.468935e+03
2.514722e+03,2.495650e+03
2.517615e+03,2.486135e+03
2.520508e+03,2.482085e+03
2.523401e+03,2.472644e+03
2.526293e+03,2.457624e+03
2.529186e+03,2.424551e+03
2.532079e+03,2.446667e+03
2.534971e+03,2.419767e+03
2.537864e+03,2.406501e+03
2.540757e+03,2.426594e+03
2.543649e+03,2.410797e+03
2.546542e+03,2.412879e+03
2.549435e+03,2.395969e+03
2.552328e+03,2.385851e+03
2.555220e+03,2.421365e+03
2.558113e+03,2.408712e+03
2.561006e+03,2.361688e+03
2.563898e+03,2.355683e+03
2.566791e+03,2.352138e+03
2.569684e+03,2.334251e+03
2.572576e+03,2.357700e+03
2.575469e+03,2.353660e+03
2.578362e+03,2.330762e+03
2.581255e+03,2.323740e+03
2.584147e+03,2.333156e+03
2.587040e+03,2.334269e+03
2.589933e+03,2.293488e+03
2.592825e+03,2.287968e+03
2.595718e+03,2.287472e+03
2.598611e+03,2.295079e+03
2.601503e+03,2.256374e+03
2.604396e+03,2.294387e+03
2.607289e+03,2.289483e+03
2.610182e+03,2.270286e+03
2.613074e+03,2.254191e+03
2.615967e+03,2.207107e+03
2.618860e+03,2.261289e+03
2.621752e+03,2.231996e+03
2.624645e+03,2.244238e+03
2.627538e+03,2.228578e+03
2.630430e+03,2.225204e+03
2.633323e+03,2.200701e+03
2.636216e+03,2.201094e+03
2.639109e+03,2.200722e+03
2.642001e+03,2.198075e+03
2.644894e+03,2.213029e+03
2.647787e+03,2.203030e+03
2.650679e+03,2.182359e+03
2.653572e+03,2.165969e+03
2.656465e+03,2.173492e+03
2.659357e+03,2.147735e+03
2.662250e+03,2.154187e+03
2.665143e+03,2.172351e+03
2.668036e+03,2.174258e+03
2.670928e+03,2.164607e+03
2.673821e+03,2.137912e+03
2.676714e+03,2.130483e+03
2.679606e+03,2.132951e+03
2.682499e+03,2.108582e+03
2.685392e+03,2.132447e+03
2.688284e+03,2.134410e+03
2.691177e+03,2.106258e+03
2.694070e+03,2.101556e+03
2.696963e+03,2.086383e+03
2.699855e+03,2.106354e+03
2.702748e+03,2.087348e+03
2.705641e+03,2.088891e+03
2.708533e+03,2.083455e+03
2.711426e+03,2.060156e+03
2.714319e+03,2.072653e+03
2.717211e+03,2.065010e+03
2.720104e+03,2.066037e+03
2.722997e+03,2.047253e+03
2.725890e+03,2.066356e+03
2.728782e+03,2.022434e+03
2.731675e+03,2.024746e+03
2.734568e+03,2.056966e+03
2.737460e+03,2.024313e+03
2.740353e+03,1.998025e+03
2.743246e+03,2.000542e+03
2.746138e+03,2.006543e+03
2.749031e+03,2.009650e+03
2.751924e+03,1.989973e+03
2.754817e+03,2.003904e+03
2.757709e+03,1.989844e+03
2.760602e+03,1.973127e+03
2.763495e+03,1.989629e+03
2.766387e+03,1.989536e+03
2.769280e+03,1.956299e+03
2.772173e+03,1.984090e+03
2.775065e+03,2.005274e+03
2.777958e+03,1.984068e+03
2.780851e+03,1.962788e+03
2.783744e+03,1.981158e+03
2.786636e+03,1.982566e+03
2.789529e+03,1.939977e+03
2.792422e+03,1.956615e+03
2.795314e+03,1.920442e+03
2.798207e+03,1.933638e+03
2.801100e+03,1.935877e+03
2.803992e+03,1.938068e+03
2.806885e+03,1.874724e+03
2.809778e+03,1.936378e+03
2.812671e+03,1.882531e+03
2.815563e+03,1.883010e+03
2.818456e+03,1.917199e+03
2.821349e+03,1.923613e+03
2.824241e+03,1.894291e+03
2.827134e+03,1.899943e+03
2.830027e+03,1.875014e+03
2.832919e+03,1.893779e+03
2.835812e+03,1.867811e+03
2.838705e+03,1.868864e+03
2.841598e+03,1.879623e+03
2.844490e+03,1.868669e+03
2.847383e+03,1.865445e+03
2.850276e+03,1.880600e+03
2.853168e+03,1.878653e+03
2.856061e+03,1.873889e+03
2.858954e+03,1.855576e+03
2.861846e+03,1.859633e+03
2.864739e+03,1.872353e+03
2.867632e+03,1.840426e+03
2.870525e+03,1.853686e+03
2.873417e+03,1.834703e+03
2.876310e+03,1.824833e+03
2.879203e+03,1.813553e+03
2.882095e+03,1.811549e+03
2.884988e+03,1.847795e+03
2.887881e+03,1.874620e+03
2.890773e+03,1.860529e+03
2.893666e+03,1.810450e+03
2.896559e+03,1.848701e+03
2.899452e+03,1.833343e+03
2.902344e+03,1.857385e+03
2.905237e+03,1.804445e+03
2.908130e+03,1.802932e+03
2.911022e+03,1.789494e+03
2.913915e+03,1.804757e+03
2.916808e+03,1.806832e+03
2.919700e+03,1.813211e+03
2.922593e+03,1.809471e+03
2.925486e+03,1.796161e+03
2.928379e+03,1.799513e+03
2.931271e+03,1.779369e+03
2.934164e+03,1.787193e+03
2.937057e+03,1.821543e+03
2.939949e+03,1.777700e+03
2.942842e+03,1.772897e+03
2.945735e+03,1.768914e+03
2.948627e+03,1.767682e+03
2.951520e+03,1.760939e+03
2.954413e+03,1.782619e+03
2.957306e+03,1.751889e+03
2.960198e+03,1.772774e+03
2.963091e+03,1.746650e+03
2.965984e+03,1.759960e+03
2.968876e+03,1.754813e+03
2.971769e+03,1.763275e+03
2.974662e+03,1.718713e+03
2.977554e+03,1.738718e+03
2.980447e+03,1.729204e+03
2.983340e+03,1.756005e+03
2.986233e+03,1.736321e+03
2.989125e+03,1.698727e+03
2.992018e+03,1.698201e+03
2.994911e+03,1.706302e+03
2.997803e+03,1.730965e+03
3.000696e+03,1.723484e+03
3.003589e+03,1.695443e+03
3.006481e+03,1.721445e+03
3.009374e+03,1.709507e+03
3.012267e+03,1.709003e+03
3.015160e+03,1.730402e+03
3.018052e+03,1.702954e+03
3.020945e+03,1.694195e+03
3.023838e+03,1.709531e+03
3.026730e+03,1.721139e+03
3.029623e+03,1.692882e+03
3.032516e+03,1.711562e+03
3.035408e+03,1.698372e+03
3.038301e+03,1.722201e+03
3.041194e+03,1.704777e+03
3.044087e+03,1.701389e+03
3.046979e+03,1.678597e+03
3.049872e+03,1.721322e+03
3.052765e+03,1.677517e+03
3.055657e+03,1.717125e+03
3.058550e+03,1.717956e+03
3.061443e+03,1.727063e+03
3.064335e+03,1.717755e+03
3.067228e+03,1.734275e+03
3.070121e+03,1.723962e+03
3.073014e+03,1.754730e+03
3.075906e+03,1.694474e+03
3.078799e+03,1.700275e+03
3.081692e+03,1.693016e+03
3.084584e+03,1.680328e+03
3.087477e+03,1.729674e+03
3.090370e+03,1.747633e+03
3.093262e+03,1.704449e+03
3.096155e+03,1.726350e+03
3.099048e+03,1.689949e+03
3.101941e+03,1.786982e+03
3.104833e+03,1.720056e+03
3.107726e+03,1.675312e+03
3.110619e+03,1.727883e+03
3.113511e+03,1.734077e+03
3.116404e+03,1.697927e+03
3.119297e+03,1.692805e+03
3.122189e+03,1.755988e+03
3.125082e+03,1.757803e+03
3.127975e+03,1.732827e+03
3.130868e+03,1.751195e+03
3.133760e+03,1.755293e+03
3.136653e+03,1.769396e+03
3.139546e+03,1.786994e+03
3.142438e+03,1.781669e+03
3.145331e+03,1.702419e+03
3.148224e+03,1.792657e+03
3.151116e+03,1.740279e+03
3.154009e+03,1.772027e+03
3.156902e+03,1.755239e+03
3.159795e+03,1.769050e+03
3.162687e+03,1.833547e+03
3.165580e+03,1.760763e+03
3.168473e+03,1.791713e+03
3.171365e+03,1.717295e+03
3.174258e+03,1.822558e+03
3.177151e+03,1.795391e+03
3.180043e+03,1.749805e+03
3.182936e+03,1.825811e+03
3.185829e+03,1.813098e+03
3.188722e+03,1.793936e+03
3.191614e+03,1.813176e+03
3.194507e+03,1.823908e+03
3.197400e+03,1.836506e+03
3.200292e+03,1.846275e+03
3.203185e+03,0.000000e+00
3.206078e+03,0.000000e+00
3.208970e+03,0.000000e+00
3.211863e+03,0.000000e+00
3.214756e+03,0.000000e+00
3.217649e+03,0.000000e+00
3.220541e+03,0.000000e+00
3.223434e+03,0.000000e+00
3.226327e+03,0.000000e+00
3.229219e+03,0.000000e+00
3.232112e+03,0.000000e+00
3.235005e+03,0.000000e+00
3.237897e+03,0.000000e+00
3.240790e+03,0.000000e+00
3.243683e+03,0.000000e+00
3.246576e+03,0.000000e+00
3.249468e+03,0.000000e+00
3.252361e+03,0.000000e+00
3.255254e+03,0.000000e+00
3.258146e+03,0.000000e+00
3.261039e+03,0.000000e+00
3.263932e+03,0.000000e+00
3.266824e+03,0.000000e+00
3.269717e+03,0.000000e+00
3.272610e+03,0.000000e+00
3.275503e+03,0.000000e+00
3.278395e+03,0.000000e+00
3.281288e+03,0.000000e+00
3.284181e+03,0.000000e+00
3.287073e+03,0.000000e+00
3.289966e+03,0.000000e+00
3.292859e+03,0.000000e+00
3.295751e+03,0.000000e+00
3.298644e+03,0.000000e+00
3.301537e+03,0.000000e+00
3.304430e+03,0.000000e+00
3.307322e+03,0.000000e+00
3.310215e+03,0.000000e+00
3.313108e+03,0.000000e+00
3.316000e+03,0.000000e+00
3.318893e+03,0.000000e+00
3.321786e+03,0.000000e+00
3.324678e+03,0.000000e+00
3.327571e+03,0.000000e+00
3.330464e+03,0.000000e+00
3.333357e+03,0.000000e+00
3.336249e+03,0.000000e+00
3.339142e+03,0.000000e+00
3.342035e+03,0.000000e+00
3.344927e+03,0.000000e+00
3.347820e+03,0.000000e+00
3.350713e+03,0.000000e+00
3.353605e+03,0.000000e+00
3.356498e+03,0.000000e+00
3.359391e+03,0.000000e+00
3.362284e+03,0.000000e+00
3.365176e+03,0.000000e+00
3.368069e+03,0.000000e+00
3.370962e+03,0.000000e+00
3.373854e+03,0.000000e+00
3.376747e+03,0.000000e+00
3.379640e+03,0.000000e+00
3.382532e+03,0.000000e+00
3.385425e+03,0.000000e+00
3.388318e+03,0.000000e+00
3.391211e+03,0.000000e+00
3.394103e+03,0.000000e+00
3.396996e+03,0.000000e+00
3.399889e+03,0.000000e+00
3.402781e+03,0.000000e+00
3.405674e+03,0.000000e+00
3.408567e+03,0.000000e+00
3.411459e+03,0.000000e+00
3.414352e+03,0.000000e+00
3.417245e+03,0.000000e+00
3.420138e+03,0.000000e+00
3.423030e+03,0.000000e+00
3.425923e+03,0.000000e+00
3.428816e+03,0.000000e+00
3.431708e+03,0.000000e+00
3.434601e+03,0.000000e+00
3.437494e+03,0.000000e+00
3.440386e+03,0.000000e+00
3.443279e+03,0.000000e+00
3.446172e+03,0.000000e+00
3.449065e+03,0.000000e+00
3.451957e+03,0.000000e+00
3.454850e+03,0.000000e+00
3.457743e+03,0.000000e+00
3.460635e+03,0.000000e+00
3.463528e+03,0.000000e+00
3.466421e+03,0.000000e+00
3.469313e+03,0.000000e+00
3.472206e+03,0.000000e+00
3.475099e+03,0.000000e+00
3.477992e+03,0.000000e+00
3.480884e+03,0.000000e+00
3.483777e+03,0.000000e+00
3.486670e+03,0.000000e+00
3.489563e+03,0.000000e+00
3.492455e+03,0.000000e+00
3.495348e+03,0.000000e+00
3.498240e+03,0.000000e+00
3.500169e+03,0.000000e+00