File: RAMAN_data/13042023_r1/black fibre2.CSV
9.931763e+01,0.000000e+00
1.022103e+02,0.000000e+00
1.051030e+02,0.000000e+00
1.079957e+02,0.000000e+00
1.108884e+02,0.000000e+00
1.137811e+02,0.000000e+00
1.166738e+02,0.000000e+00
1.195665e+02,0.000000e+00
1.224592e+02,0.000000e+00
1.253519e+02,0.000000e+00
1.282446e+02,0.000000e+00
1.311373e+02,0.000000e+00
1.340300e+02,0.000000e+00
1.369227e+02,0.000000e+00
1.398154e+02,0.000000e+00
1.427081e+02,0.000000e+00
1.456008e+02,0.000000e+00
1.484935e+02,0.000000e+00
1.513862e+02,0.000000e+00
1.542789e+02,0.000000e+00
1.571716e+02,0.000000e+00
1.600643e+02,0.000000e+00
1.629570e+02,0.000000e+00
1.658497e+02,0.000000e+00
1.687424e+02,0.000000e+00
1.716351e+02,0.000000e+00
1.745278e+02,0.000000e+00
1.774205e+02,0.000000e+00
1.803132e+02,0.000000e+00
1.832059e+02,0.000000e+00
1.860986e+02,0.000000e+00
1.889913e+02,0.000000e+00
1.918840e+02,0.000000e+00
1.947767e+02,0.000000e+00
1.976694e+02,0.000000e+00
2.005621e+02,9.821146e+03
2.034548e+02,9.825636e+03
2.063475e+02,9.838939e+03
2.092402e+02,9.831558e+03
2.121329e+02,9.823767e+03
2.150256e+02,9.850963e+03
2.179183e+02,9.823671e+03
2.208110e+02,9.855331e+03
2.237037e+02,9.868717e+03
2.265964e+02,9.839752e+03
2.294892e+02,9.851768e+03
2.323819e+02,9.871699e+03
2.352746e+02,9.887221e+03
2.381673e+02,9.914233e+03
2.410600e+02,9.850892e+03
2.439527e+02,9.873888e+03
2.468454e+02,9.904120e+03
2.497381e+02,9.898468e+03
2.526308e+02,9.917517e+03
2.555235e+02,9.883906e+03
2.584161e+02,9.888537e+03
2.613088e+02,9.894536e+03
2.642015e+02,9.918389e+03
2.670942e+02,9.942100e+03
2.699869e+02,9.944982e+03
2.728796e+02,9.921704e+03
2.757723e+02,9.915295e+03
2.786650e+02,9.947322e+03
2.815577e+02,9.943295e+03
2.844504e+02,9.967042e+03
2.873431e+02,9.950479e+03
2.902358e+02,9.951974e+03
2.931285e+02,9.939579e+03
2.960212e+02,9.948072e+03
2.989139e+02,9.965482e+03
3.018066e+02,9.974328e+03
3.046993e+02,9.957403e+03
3.075920e+02,9.946447e+03
3.104847e+02,9.919179e+03
3.133774e+02,9.916989e+03
3.162701e+02,9.926546e+03
3.191628e+02,9.889957e+03
3.220555e+02,9.893838e+03
3.249482e+02,9.900472e+03
3.278409e+02,9.870766e+03
3.307336e+02,9.858981e+03
3.336263e+02,9.844095e+03
3.365190e+02,9.809288e+03
3.394117e+02,9.819965e+03
3.423044e+02,9.798281e+03
3.451971e+02,9.811643e+03
3.480898e+02,9.803892e+03
3.509825e+02,9.744692e+03
3.538752e+02,9.764194e+03
3.567680e+02,9.768943e+03
3.596607e+02,9.750640e+03
3.625534e+02,9.762316e+03
3.654461e+02,9.688510e+03
3.683388e+02,9.683106e+03
3.712315e+02,9.719421e+03
3.741242e+02,9.670327e+03
3.770169e+02,9.677248e+03
3.799096e+02,9.671471e+03
3.828023e+02,9.651419e+03
3.856950e+02,9.623718e+03
3.885877e+02,9.613126e+03
3.914804e+02,9.625739e+03
3.943731e+02,9.588080e+03
3.972658e+02,9.556704e+03
4.001585e+02,9.537928e+03
4.030512e+02,9.537053e+03
4.059439e+02,9.540643e+03
4.088366e+02,9.541212e+03
4.117293e+02,9.513288e+03
4.146220e+02,9.485318e+03
4.175147e+02,9.478260e+03
4.204074e+02,9.475037e+03
4.233001e+02,9.438279e+03
4.261928e+02,9.451774e+03
4.290855e+02,9.430376e+03
4.319782e+02,9.432733e+03
4.348709e+02,9.428009e+03
4.377636e+02,9.432974e+03
4.406563e+02,9.392223e+03
4.435490e+02,9.362866e+03
4.464417e+02,9.363607e+03
4.493344e+02,9.357615e+03
4.522271e+02,9.352850e+03
4.551198e+02,9.320543e+03
4.580125e+02,9.317877e+03
4.609052e+02,9.307558e+03
4.637979e+02,9.295700e+03
4.666906e+02,9.274167e+03
4.695833e+02,9.232097e+03
4.724760e+02,9.268896e+03
4.753687e+02,9.241024e+03
4.782614e+02,9.213938e+03
4.811541e+02,9.230123e+03
4.840468e+02,9.218792e+03
4.869395e+02,9.184471e+03
4.898322e+02,9.155119e+03
4.927249e+02,9.165349e+03
4.956176e+02,9.171000e+03
4.985103e+02,9.170582e+03
5.014030e+02,9.137274e+03
5.042957e+02,9.114884e+03
5.071884e+02,9.096751e+03
5.100811e+02,9.075671e+03
5.129738e+02,9.100817e+03
5.158665e+02,9.105423e+03
5.187592e+02,9.102306e+03
5.216519e+02,9.053418e+03
5.245446e+02,9.076490e+03
5.274373e+02,9.059214e+03
5.303300e+02,9.055513e+03
5.332227e+02,9.027950e+03
5.361154e+02,9.001863e+03
5.390081e+02,8.981073e+03
5.419008e+02,8.976634e+03
5.447935e+02,8.963743e+03
5.476862e+02,8.970875e+03
5.505789e+02,8.947803e+03
5.534716e+02,8.885377e+03
5.563643e+02,8.912033e+03
5.592570e+02,8.945560e+03
5.621497e+02,8.910826e+03
5.650424e+02,8.899213e+03
5.679351e+02,8.847577e+03
5.708278e+02,8.857696e+03
5.737205e+02,8.860312e+03
5.766132e+02,8.861563e+03
5.795059e+02,8.820732e+03
5.823986e+02,8.785618e+03
5.852913e+02,8.788177e+03
5.881840e+02,8.790121e+03
5.910767e+02,8.790116e+03
5.939694e+02,8.780382e+03
5.968621e+02,8.785784e+03
5.997548e+02,8.749260e+03
6.026475e+02,8.728727e+03
6.055402e+02,8.721717e+03
6.084329e+02,8.721497e+03
6.113256e+02,8.711114e+03
6.142183e+02,8.688659e+03
6.171110e+02,8.659748e+03
6.200037e+02,8.674747e+03
6.228964e+02,8.678551e+03
6.257891e+02,8.693832e+03
6.286818e+02,8.692147e+03
6.315745e+02,8.609267e+03
6.344672e+02,8.622782e+03
6.373599e+02,8.609008e+03
6.402526e+02,8.589351e+03
6.431453e+02,8.602707e+03
6.460380e+02,8.585458e+03
6.489307e+02,8.543439e+03
6.518234e+02,8.580487e+03
6.547161e+02,8.558624e+03
6.576088e+02,8.560868e+03
6.605015e+02,8.524592e+03
6.633942e+02,8.491265e+03
6.662869e+02,8.509104e+03
6.691796e+02,8.517547e+03
6.720723e+02,8.494118e+03
6.749650e+02,8.452241e+03
6.778577e+02,8.439526e+03
6.807504e+02,8.416725e+03
6.836431e+02,8.439289e+03
6.865358e+02,8.431490e+03
6.894285e+02,8.396575e+03
6.923212e+02,8.402135e+03
6.952139e+02,8.376020e+03
6.981066e+02,8.389453e+03
7.009993e+02,8.375553e+03
7.038920e+02,8.374720e+03
7.067847e+02,8.339349e+03
7.096774e+02,8.354569e+03
7.125701e+02,8.346559e+03
7.154628e+02,8.312108e+03
7.183555e+02,8.335105e+03
7.212482e+02,8.309749e+03
7.241409e+02,8.293263e+03
7.270336e+02,8.287009e+03
7.299263e+02,8.261270e+03
7.328190e+02,8.267538e+03
7.357117e+02,8.248683e+03
7.386044e+02,8.211171e+03
7.414971e+02,8.231527e+03
7.443898e+02,8.225193e+03
7.472825e+02,8.225760e+03
7.501752e+02,8.209070e+03
7.530679e+02,8.222377e+03
7.559606e+02,8.191013e+03
7.588533e+02,8.188132e+03
7.617460e+02,8.213464e+03
7.646387e+02,8.127031e+03
7.675314e+02,8.122619e+03
7.704241e+02,8.100686e+03
7.733168e+02,8.101802e+03
7.762095e+02,8.127442e+03
7.791022e+02,8.102953e+03
7.819949e+02,8.079159e+03
7.848876e+02,8.089810e+03
7.877803e+02,8.085018e+03
7.906730e+02,8.062643e+03
7.935657e+02,8.062053e+03
7.964584e+02,8.037602e+03
7.993511e+02,8.038378e+03
8.022438e+02,7.985140e+03
8.051365e+02,7.999323e+03
8.080292e+02,7.983782e+03
8.109219e+02,7.980995e+03
8.138146e+02,8.003065e+03
8.167073e+02,7.958119e+03
8.196000e+02,7.966439e+03
8.224927e+02,7.978909e+03
8.253854e+02,7.944397e+03
8.282781e+02,7.939128e+03
8.311708e+02,7.922986e+03
8.340635e+02,7.910832e+03
8.369562e+02,7.898062e+03
8.398489e+02,7.918481e+03
8.427416e+02,7.919682e+03
8.456343e+02,7.851965e+03
8.485270e+02,7.840080e+03
8.514197e+02,7.838634e+03
8.543124e+02,7.840535e+03
8.572051e+02,7.818738e+03
8.600978e+02,7.802654e+03
8.629905e+02,7.800227e+03
8.658832e+02,7.788752e+03
8.687759e+02,7.794173e+03
8.716686e+02,7.808000e+03
8.745613e+02,7.776954e+03
8.774540e+02,7.760401e+03
8.803467e+02,7.734342e+03
8.832394e+02,7.751118e+03
8.861321e+02,7.743519e+03
8.890248e+02,7.735719e+03
8.919175e+02,7.721409e+03
8.948102e+02,7.671353e+03
8.977029e+02,7.697359e+03
9.005956e+02,7.678876e+03
9.034883e+02,7.696380e+03
9.063810e+02,7.652305e+03
9.092737e+02,7.634744e+03
9.121664e+02,7.637189e+03
9.150591e+02,7.647457e+03
9.179518e+02,7.654228e+03
9.208445e+02,7.580611e+03
9.237372e+02,7.576415e+03
9.266299e+02,7.535754e+03
9.295226e+02,7.575797e+03
9.324153e+02,7.574328e+03
9.353080e+02,7.542455e+03
9.382007e+02,7.529619e+03
9.410934e+02,7.531375e+03
9.439861e+02,7.499333e+03
9.468788e+02,7.506032e+03
9.497715e+02,7.506406e+03
9.526642e+02,7.466621e+03
9.555569e+02,7.450868e+03
9.584496e+02,7.447878e+03
9.613423e+02,7.447354e+03
9.642350e+02,7.452448e+03
9.671277e+02,7.447037e+03
9.700204e+02,7.422919e+03
9.729131e+02,7.397372e+03
9.758058e+02,7.400633e+03
9.786985e+02,7.404003e+03
9.815912e+02,7.375658e+03
9.844839e+02,7.362071e+03
9.873766e+02,7.365002e+03
9.902693e+02,7.346360e+03
9.931620e+02,7.374798e+03
9.960547e+02,7.336327e+03
9.989474e+02,7.315390e+03
1.001840e+03,7.282950e+03
1.004733e+03,7.276406e+03
1.007626e+03,7.273652e+03
1.010518e+03,7.303009e+03
1.013411e+03,7.259952e+03
1.016304e+03,7.260662e+03
1.019196e+03,7.225913e+03
1.022089e+03,7.214797e+03
1.024982e+03,7.229197e+03
1.027875e+03,7.226042e+03
1.030767e+03,7.222579e+03
1.033660e+03,7.202865e+03
1.036552e+03,7.201044e+03
1.039445e+03,7.206444e+03
1.042338e+03,7.180554e+03
1.045231e+03,7.154852e+03
1.048123e+03,7.149736e+03
1.051016e+03,7.126643e+03
1.053909e+03,7.135549e+03
1.056802e+03,7.111175e+03
1.059694e+03,7.086265e+03
1.062587e+03,7.077566e+03
1.065479e+03,7.107452e+03
1.068372e+03,7.078795e+03
1.071265e+03,7.075574e+03
1.074158e+03,7.092118e+03
1.077050e+03,7.065008e+03
1.079943e+03,7.036765e+03
1.082836e+03,7.043902e+03
1.085729e+03,7.032912e+03
1.088621e+03,7.060390e+03
1.091514e+03,7.032920e+03
1.094406e+03,6.985743e+03
1.097299e+03,6.958931e+03
1.100192e+03,6.992573e+03
1.103085e+03,6.975779e+03
1.105977e+03,6.968530e+03
1.108870e+03,6.932430e+03
1.111763e+03,6.958489e+03
1.114656e+03,6.912906e+03
1.117548e+03,6.919096e+03
1.120441e+03,6.939000e+03
1.123334e+03,6.909276e+03
1.126226e+03,6.889764e+03
1.129119e+03,6.881241e+03
1.132012e+03,6.867692e+03
1.134904e+03,6.850044e+03
1.137797e+03,6.854543e+03
1.140690e+03,6.846196e+03
1.143583e+03,6.855147e+03
1.146475e+03,6.820851e+03
1.149368e+03,6.816833e+03
1.152261e+03,6.806234e+03
1.155153e+03,6.789655e+03
1.158046e+03,6.762781e+03
1.160939e+03,6.766745e+03
1.163831e+03,6.781672e+03
1.166724e+03,6.765330e+03
1.169617e+03,6.751050e+03
1.172510e+03,6.723380e+03
1.175402e+03,6.717116e+03
1.178295e+03,6.707806e+03
1.181188e+03,6.715064e+03
1.184080e+03,6.706620e+03
1.186973e+03,6.689499e+03
1.189866e+03,6.650219e+03
1.192758e+03,6.680542e+03
1.195651e+03,6.635737e+03
1.198544e+03,6.684009e+03
1.201437e+03,6.634034e+03
1.204329e+03,6.629760e+03
1.207222e+03,6.616169e+03
1.210115e+03,6.626226e+03
1.213007e+03,6.620183e+03
1.215900e+03,6.589417e+03
1.218793e+03,6.580320e+03
1.221685e+03,6.563262e+03
1.224578e+03,6.600499e+03
1.227471e+03,6.575653e+03
1.230364e+03,6.571291e+03
1.233256e+03,6.545830e+03
1.236149e+03,6.548004e+03
1.239042e+03,6.530584e+03
1.241934e+03,6.543451e+03
1.244827e+03,6.523894e+03
1.247720e+03,6.487136e+03
1.250612e+03,6.480446e+03
1.253505e+03,6.476977e+03
1.256398e+03,6.488268e+03
1.259291e+03,6.473054e+03
1.262183e+03,6.453903e+03
1.265076e+03,6.421682e+03
1.267969e+03,6.427649e+03
1.270861e+03,6.444263e+03
1.273754e+03,6.468806e+03
1.276647e+03,6.432280e+03
1.279539e+03,6.456794e+03
1.282432e+03,6.405095e+03
1.285325e+03,6.436822e+03
1.288218e+03,6.418770e+03
1.291110e+03,6.398313e+03
1.294003e+03,6.404036e+03
1.296896e+03,6.366716e+03
1.299788e+03,6.378452e+03
1.302681e+03,6.352972e+03
1.305574e+03,6.356099e+03
1.308466e+03,6.354233e+03
1.311359e+03,6.368400e+03
1.314252e+03,6.370165e+03
1.317145e+03,6.368665e+03
1.320037e+03,6.391596e+03
1.322930e+03,6.377626e+03
1.325823e+03,6.325860e+03
1.328715e+03,6.342660e+03
1.331608e+03,6.309028e+03
1.334501e+03,6.329877e+03
1.337393e+03,6.314112e+03
1.340286e+03,6.303563e+03
1.343179e+03,6.255769e+03
1.346072e+03,6.246843e+03
1.348964e+03,6.239287e+03
1.351857e+03,6.229705e+03
1.354750e+03,6.237698e+03
1.357642e+03,6.212970e+03
1.360535e+03,6.201240e+03
1.363428e+03,6.204521e+03
1.366320e+03,6.207906e+03
1.369213e+03,6.168594e+03
1.372106e+03,6.125433e+03
1.374999e+03,6.105351e+03
1.377891e+03,6.099066e+03
1.380784e+03,6.085635e+03
1.383677e+03,6.097780e+03
1.386569e+03,6.058949e+03
1.389462e+03,6.032876e+03
1.392355e+03,6.023637e+03
1.395247e+03,6.010062e+03
1.398140e+03,6.024601e+03
1.401033e+03,6.001928e+03
1.403926e+03,5.987534e+03
1.406818e+03,5.953177e+03
1.409711e+03,5.978358e+03
1.412604e+03,5.953182e+03
1.415496e+03,5.968313e+03
1.418389e+03,5.945033e+03
1.421282e+03,5.932756e+03
1.424174e+03,5.910126e+03
1.427067e+03,5.933583e+03
1.429960e+03,5.904702e+03
1.432853e+03,5.911623e+03
1.435745e+03,5.880584e+03
1.438638e+03,5.878807e+03
1.441531e+03,5.871521e+03
1.444423e+03,5.858915e+03
1.447316e+03,5.852524e+03
1.450209e+03,5.813248e+03
1.453101e+03,5.826870e+03
1.455994e+03,5.822240e+03
1.458887e+03,5.813000e+03
1.461780e+03,5.821455e+03
1.464672e+03,5.785988e+03
1.467565e+03,5.768908e+03
1.470458e+03,5.763851e+03
1.473350e+03,5.745669e+03
1.476243e+03,5.761981e+03
1.479136e+03,5.758351e+03
1.482028e+03,5.724068e+03
1.484921e+03,5.705592e+03
1.487814e+03,5.708641e+03
1.490707e+03,5.730755e+03
1.493599e+03,5.697054e+03
1.496492e+03,5.683630e+03
1.499385e+03,5.690035e+03
1.502277e+03,5.657143e+03
1.505170e+03,5.653738e+03
1.508063e+03,5.660615e+03
1.510955e+03,5.646630e+03
1.513848e+03,5.617092e+03
1.516741e+03,5.601785e+03
1.519634e+03,5.591795e+03
1.522526e+03,5.611045e+03
1.525419e+03,5.587025e+03
1.528312e+03,5.576846e+03
1.531204e+03,5.584738e+03
1.534097e+03,5.557345e+03
1.536990e+03,5.543091e+03
1.539882e+03,5.546643e+03
1.542775e+03,5.533141e+03
1.545668e+03,5.525452e+03
1.548561e+03,5.526905e+03
1.551453e+03,5.545107e+03
1.554346e+03,5.512521e+03
1.557239e+03,5.506699e+03
1.560131e+03,5.493083e+03
1.563024e+03,5.486259e+03
1.565917e+03,5.454866e+03
1.568809e+03,5.468807e+03
1.571702e+03,5.485414e+03
1.574595e+03,5.481866e+03
1.577488e+03,5.435278e+03
1.580380e+03,5.428492e+03
1.583273e+03,5.430974e+03
1.586166e+03,5.409080e+03
1.589058e+03,5.413847e+03
1.591951e+03,5.416197e+03
1.594844e+03,5.404768e+03
1.597736e+03,5.394007e+03
1.600629e+03,5.381850e+03
1.603522e+03,5.351842e+03
1.606415e+03,5.351297e+03
1.609307e+03,5.336881e+03
1.612200e+03,5.350138e+03
1.615093e+03,5.323065e+03
1.617985e+03,5.339589e+03
1.620878e+03,5.301576e+03
1.623771e+03,5.267493e+03
1.626663e+03,5.279186e+03
1.629556e+03,5.287995e+03
1.632449e+03,5.243509e+03
1.635342e+03,5.266466e+03
1.638234e+03,5.233494e+03
1.641127e+03,5.221397e+03
1.644020e+03,5.239517e+03
1.646912e+03,5.233571e+03
1.649805e+03,5.190099e+03
1.652698e+03,5.151201e+03
1.655590e+03,5.174886e+03
1.658483e+03,5.163518e+03
1.661376e+03,5.158467e+03
1.664269e+03,5.132422e+03
1.667161e+03,5.119181e+03
1.670054e+03,5.118719e+03
1.672947e+03,5.093144e+03
1.675839e+03,5.119821e+03
1.678732e+03,5.097137e+03
1.681625e+03,5.085745e+03
1.684517e+03,5.061019e+03
1.687410e+03,5.058820e+03
1.690303e+03,5.053133e+03
1.693196e+03,5.039107e+03
1.696088e+03,5.047794e+03
1.698981e+03,5.033909e+03
1.701874e+03,5.011376e+03
1.704766e+03,5.013111e+03
1.707659e+03,5.006741e+03
1.710552e+03,4.982878e+03
1.713444e+03,4.968524e+03
1.716337e+03,4.937885e+03
1.719230e+03,4.945991e+03
1.722123e+03,4.944073e+03
1.725015e+03,4.941070e+03
1.727908e+03,4.914841e+03
1.730801e+03,4.908060e+03
1.733693e+03,4.912391e+03
1.736586e+03,4.880110e+03
1.739479e+03,4.889638e+03
1.742371e+03,4.909677e+03
1.745264e+03,4.873163e+03
1.748157e+03,4.835806e+03
1.751050e+03,4.848500e+03
1.753942e+03,4.858474e+03
1.756835e+03,4.839572e+03
1.759728e+03,4.794873e+03
1.762620e+03,4.805457e+03
1.765513e+03,4.798345e+03
1.768406e+03,4.795895e+03
1.771298e+03,4.794587e+03
1.774191e+03,4.765805e+03
1.777084e+03,4.770735e+03
1.779977e+03,4.762157e+03
1.782869e+03,4.756207e+03
1.785762e+03,4.757759e+03
1.788655e+03,4.741717e+03
1.791547e+03,4.721525e+03
1.794440e+03,4.688082e+03
1.797333e+03,4.700857e+03
1.800225e+03,4.727943e+03
1.803118e+03,4.679494e+03
1.806011e+03,4.679081e+03
1.808904e+03,4.680657e+03
1.811796e+03,4.643682e+03
1.814689e+03,4.661892e+03
1.817582e+03,4.671097e+03
1.820474e+03,4.636789e+03
1.823367e+03,4.621284e+03
1.826260e+03,4.645460e+03
1.829152e+03,4.627983e+03
1.832045e+03,4.636721e+03
1.834938e+03,4.592545e+03
1.837831e+03,4.578987e+03
1.840723e+03,4.574282e+03
1.843616e+03,4.568326e+03
1.846509e+03,4.534712e+03
1.849401e+03,4.547464e+03
1.852294e+03,4.520101e+03
1.855187e+03,4.516377e+03
1.858079e+03,4.507458e+03
1.860972e+03,4.481323e+03
1.863865e+03,4.507541e+03
1.866758e+03,4.491204e+03
1.869650e+03,4.486248e+03
1.872543e+03,4.457832e+03
1.875436e+03,4.474013e+03
1.878328e+03,4.469077e+03
1.881221e+03,4.439021e+03
1.884114e+03,4.435870e+03
1.887006e+03,4.433880e+03
1.889899e+03,4.426719e+03
1.892792e+03,4.425862e+03
1.895685e+03,4.366249e+03
1.898577e+03,4.409250e+03
1.901470e+03,4.397092e+03
1.904363e+03,4.399524e+03
1.907255e+03,4.382895e+03
1.910148e+03,4.383179e+03
1.913041e+03,4.340946e+03
1.915933e+03,4.343354e+03
1.918826e+03,4.334958e+03
1.921719e+03,4.306424e+03
1.924612e+03,4.332167e+03
1.927504e+03,4.289493e+03
1.930397e+03,4.279917e+03
1.933290e+03,4.259090e+03
1.936182e+03,4.290377e+03
1.939075e+03,4.267030e+03
1.941968e+03,4.248268e+03
1.944860e+03,4.257452e+03
1.947753e+03,4.250743e+03
1.950646e+03,4.217149e+03
1.953539e+03,4.226521e+03
1.956431e+03,4.211759e+03
1.959324e+03,4.221415e+03
1.962217e+03,4.195690e+03
1.965109e+03,4.186487e+03
1.968002e+03,4.180270e+03
1.970895e+03,4.155706e+03
1.973787e+03,4.161996e+03
1.976680e+03,4.129186e+03
1.979573e+03,4.156979e+03
1.982466e+03,4.131371e+03
1.985358e+03,4.137293e+03
1.988251e+03,4.117517e+03
1.991144e+03,4.108095e+03
1.994036e+03,4.101976e+03
1.996929e+03,4.093491e+03
1.999822e+03,4.074085e+03
2.002714e+03,4.069612e+03
2.005607e+03,4.058389e+03
2.008500e+03,4.053726e+03
2.011393e+03,4.035978e+03
2.014285e+03,4.008599e+03
2.017178e+03,4.022480e+03
2.020071e+03,4.039258e+03
2.022963e+03,3.986140e+03
2.025856e+03,3.989410e+03
2.028749e+03,3.996641e+03
2.031641e+03,3.967767e+03
2.034534e+03,3.966649e+03
2.037427e+03,3.960781e+03
2.040320e+03,3.946816e+03
2.043212e+03,3.935874e+03
2.046105e+03,3.922788e+03
2.048998e+03,3.945945e+03
2.051890e+03,3.915634e+03
2.054783e+03,3.886291e+03
2.057676e+03,3.896875e+03
2.060568e+03,3.921868e+03
2.063461e+03,3.899930e+03
2.066354e+03,3.845088e+03
2.069247e+03,3.861317e+03
2.072139e+03,3.830094e+03
2.075032e+03,3.858370e+03
2.077925e+03,3.858616e+03
2.080817e+03,3.847508e+03
2.083710e+03,3.794708e+03
2.086603e+03,3.782694e+03
2.089496e+03,3.820316e+03
2.092388e+03,3.764424e+03
2.095281e+03,3.784029e+03
2.098174e+03,3.778234e+03
2.101066e+03,3.751089e+03
2.103959e+03,3.742446e+03
2.106852e+03,3.725181e+03
2.109744e+03,3.761548e+03
2.112637e+03,3.710537e+03
2.115530e+03,3.719546e+03
2.118422e+03,3.716163e+03
2.121315e+03,3.726324e+03
2.124208e+03,3.696281e+03
2.127101e+03,3.678696e+03
2.129993e+03,3.682085e+03
2.132886e+03,3.689140e+03
2.135779e+03,3.648768e+03
2.138671e+03,3.648582e+03
2.141564e+03,3.624371e+03
2.144457e+03,3.615389e+03
2.147350e+03,3.609926e+03
2.150242e+03,3.625239e+03
2.153135e+03,3.606322e+03
2.156028e+03,3.583504e+03
2.158920e+03,3.580667e+03
2.161813e+03,3.576051e+03
2.164706e+03,3.548907e+03
2.167598e+03,3.531965e+03
2.170491e+03,3.561281e+03
2.173384e+03,3.539993e+03
2.176277e+03,3.535078e+03
2.179169e+03,3.514877e+03
2.182062e+03,3.498607e+03
2.184955e+03,3.476763e+03
2.187847e+03,3.492988e+03
2.190740e+03,3.480933e+03
2.193633e+03,3.480871e+03
2.196525e+03,3.441988e+03
2.199418e+03,3.478267e+03
2.202311e+03,3.443230e+03
2.205204e+03,3.460391e+03
2.208096e+03,3.449746e+03
2.210989e+03,3.390423e+03
2.213882e+03,3.409677e+03
2.216774e+03,3.402761e+03
2.219667e+03,3.391203e+03
2.222560e+03,3.381286e+03
2.225452e+03,3.370170e+03
2.228345e+03,3.358641e+03
2.231238e+03,3.379925e+03
2.234131e+03,3.362495e+03
2.237023e+03,3.362424e+03
2.239916e+03,3.296312e+03
2.242809e+03,3.315538e+03
2.245701e+03,3.314631e+03
2.248594e+03,3.318748e+03
2.251487e+03,3.312254e+03
2.254379e+03,3.295811e+03
2.257272e+03,3.255255e+03
2.260165e+03,3.259804e+03
2.263058e+03,3.283366e+03
2.265950e+03,3.266472e+03
2.268843e+03,3.254563e+03
2.271736e+03,3.258128e+03
2.274628e+03,3.219507e+03
2.277521e+03,3.235170e+03
2.280414e+03,3.228072e+03
2.283306e+03,3.210835e+03
2.286199e+03,3.178070e+03
2.289092e+03,3.198943e+03
2.291985e+03,3.186027e+03
2.294877e+03,3.194407e+03
2.297770e+03,3.164589e+03
2.300663e+03,3.148460e+03
2.303555e+03,3.155445e+03
2.306448e+03,3.102148e+03
2.309341e+03,3.117809e+03
2.312233e+03,3.140379e+03
2.315126e+03,3.134472e+03
2.318019e+03,3.074693e+03
2.320912e+03,3.106253e+03
2.323804e+03,3.071281e+03
2.326697e+03,3.107806e+03
2.329590e+03,3.075029e+03
2.332482e+03,3.062575e+03
2.335375e+03,3.046622e+03
2.338268e+03,3.043353e+03
2.341160e+03,3.027266e+03
2.344053e+03,3.046764e+03
2.346946e+03,3.043186e+03
2.349839e+03,3.030182e+03
2.352731e+03,3.002887e+03
2.355624e+03,2.994814e+03
2.358517e+03,2.998114e+03
2.361409e+03,2.996766e+03
2.364302e+03,2.979851e+03
2.367195e+03,2.956156e+03
2.370087e+03,2.971002e+03
2.372980e+03,2.971174e+03
2.375873e+03,2.953109e+03
2.378766e+03,2.944709e+03
2.381658e+03,2.928252e+03
2.384551e+03,2.937411e+03
2.387444e+03,2.953155e+03
2.390336e+03,2.928007e+03
2.393229e+03,2.930944e+03
2.396122e+03,2.911010e+03
2.399014e+03,2.863030e+03
2.401907e+03,2.905445e+03
2.404800e+03,2.881834e+03
2.407693e+03,2.883181e+03
2.410585e+03,2.858307e+03
2.413478e+03,2.844196e+03
2.416371e+03,2.840371e+03
2.419263e+03,2.837757e+03
2.422156e+03,2.874241e+03
2.425049e+03,2.847408e+03
2.427941e+03,2.833332e+03
2.430834e+03,2.807804e+03
2.433727e+03,2.813474e+03
2.436620e+03,2.816302e+03
2.439512e+03,2.772388e+03
2.442405e+03,2.778100e+03
2.445298e+03,2.770090e+03
2.448190e+03,2.775200e+03
2.451083e+03,2.785071e+03
2.453976e+03,2.761732e+03
2.456868e+03,2.771128e+03
2.459761e+03,2.761340e+03
2.462654e+03,2.745676e+03
2.465547e+03,2.722175e+03
2.468439e+03,2.733855e+03
2.471332e+03,2.733213e+03
2.474225e+03,2.730233e+03
2.477117e+03,2.709862e+03
2.480010e+03,2.701626e+03
2.482903e+03,2.691692e+03
2.485795e+03,2.716489e+03
2.488688e+03,2.678450e+03
2.491581e+03,2.665410e+03
2.494474e+03,2.659088e+03
2.497366e+03,2.674168e+03
2.500259e+03,2.660126e+03
2.503152e+03,2.645711e+03
2.506044e+03,2.669583e+03
2.508937e+03,2.632643e+03
2.511830e+03,2.646052e+03
2.514722e+03,2.625960e+03
2.517615e+03,2.628034e+03
2.520508e+03,2.617950e+03
2.523401e+03,2.599453e+03
2.526293e+03,2.619256e+03
2.529186e+03,2.605611e+03
2.532079e+03,2.579484e+03
2.534971e+03,2.605157e+03
2.537864e+03,2.569848e+03
2.540757e+03,2.594018e+03
2.543649e+03,2.575579e+03
2.546542e+03,2.571047e+03
2.549435e+03,2.557760e+03
2.552328e+03,2.553212e+03
2.555220e+03,2.586415e+03
2.558113e+03,2.529134e+03
2.561006e+03,2.564741e+03
2.563898e+03,2.537374e+03
2.566791e+03,2.547958e+03
2.569684e+03,2.520100e+03
2.572576e+03,2.529651e+03
2.575469e+03,2.532846e+03
2.578362e+03,2.519143e+03
2.581255e+03,2.502483e+03
2.584147e+03,2.500497e+03
2.587040e+03,2.465315e+03
2.589933e+03,2.521782e+03
2.592825e+03,2.478148e+03
2.595718e+03,2.479052e+03
2.598611e+03,2.472919e+03
2.601503e+03,2.473285e+03
2.604396e+03,2.463306e+03
2.607289e+03,2.441957e+03
2.610182e+03,2.451262e+03
2.613074e+03,2.450763e+03
2.615967e+03,2.426562e+03
2.618860e+03,2.435155e+03
2.621752e+03,2.430984e+03
2.624645e+03,2.444015e+03
2.627538e+03,2.423161e+03
2.630430e+03,2.416351e+03
2.633323e+03,2.377440e+03
2.636216e+03,2.395760e+03
2.639109e+03,2.396897e+03
2.642001e+03,2.365668e+03
2.644894e+03,2.387360e+03
2.647787e+03,2.407608e+03
2.650679e+03,2.360557e+03
2.653572e+03,2.382479e+03
2.656465e+03,2.389069e+03
2.659357e+03,2.368669e+03
2.662250e+03,2.368222e+03
2.665143e+03,2.368783e+03
2.668036e+03,2.348324e+03
2.670928e+03,2.364249e+03
2.673821e+03,2.351554e+03
2.676714e+03,2.337001e+03
2.679606e+03,2.331404e+03
2.682499e+03,2.307994e+03
2.685392e+03,2.310719e+03
2.688284e+03,2.321554e+03
2.691177e+03,2.311112e+03
2.694070e+03,2.330216e+03
2.696963e+03,2.295365e+03
2.699855e+03,2.290379e+03
2.702748e+03,2.308727e+03
2.705641e+03,2.275479e+03
2.708533e+03,2.276998e+03
2.711426e+03,2.297384e+03
2.714319e+03,2.259284e+03
2.717211e+03,2.250074e+03
2.720104e+03,2.263120e+03
2.722997e+03,2.267713e+03
2.725890e+03,2.228026e+03
2.728782e+03,2.256790e+03
2.731675e+03,2.250454e+03
2.734568e+03,2.280524e+03
2.737460e+03,2.229427e+03
2.740353e+03,2.227433e+03
2.743246e+03,2.217223e+03
2.746138e+03,2.242802e+03
2.749031e+03,2.208886e+03
2.751924e+03,2.214657e+03
2.754817e+03,2.212128e+03
2.757709e+03,2.203033e+03
2.760602e+03,2.196415e+03
2.763495e+03,2.195838e+03
2.766387e+03,2.201019e+03
2.769280e+03,2.172826e+03
2.772173e+03,2.189369e+03
2.775065e+03,2.164899e+03
2.777958e+03,2.174683e+03
2.780851e+03,2.197328e+03
2.783744e+03,2.147326e+03
2.786636e+03,2.189670e+03
2.789529e+03,2.130370e+03
2.792422e+03,2.153615e+03
2.795314e+03,2.139058e+03
2.798207e+03,2.157999e+03
2.801100e+03,2.147319e+03
2.803992e+03,2.164405e+03
2.806885e+03,2.158991e+03
2.809778e+03,2.120881e+03
2.812671e+03,2.127972e+03
2.815563e+03,2.108377e+03
2.818456e+03,2.128686e+03
2.821349e+03,2.109526e+03
2.824241e+03,2.127202e+03
2.827134e+03,2.120083e+03
2.830027e+03,2.081561e+03
2.832919e+03,2.132031e+03
2.835812e+03,2.121163e+03
2.838705e+03,2.097536e+03
2.841598e+03,2.057162e+03
2.844490e+03,2.107744e+03
2.847383e+03,2.064185e+03
2.850276e+03,2.076902e+03
2.853168e+03,2.089377e+03
2.856061e+03,2.094000e+03
2.858954e+03,2.083032e+03
2.861846e+03,2.068786e+03
2.864739e+03,2.054196e+03
2.867632e+03,2.073377e+03
2.870525e+03,2.051667e+03
2.873417e+03,2.059926e+03
2.876310e+03,2.044131e+03
2.879203e+03,2.075147e+03
2.882095e+03,2.041823e+03
2.884988e+03,2.071229e+03
2.887881e+03,2.066675e+03
2.890773e+03,2.051614e+03
2.893666e+03,2.046750e+03
2.896559e+03,2.078154e+03
2.899452e+03,2.048264e+03
2.902344e+03,2.034026e+03
2.905237e+03,2.040531e+03
2.908130e+03,2.036638e+03
2.911022e+03,2.023192e+03
2.913915e+03,2.020284e+03
2.916808e+03,1.995401e+03
2.919700e+03,2.045289e+03
2.922593e+03,1.980306e+03
2.925486e+03,2.022374e+03
2.928379e+03,1.995265e+03
2.931271e+03,1.996121e+03
2.934164e+03,1.992335e+03
2.937057e+03,1.985141e+03
2.939949e+03,1.966598e+03
2.942842e+03,1.967886e+03
2.945735e+03,2.008915e+03
2.948627e+03,1.979523e+03
2.951520e+03,1.981715e+03
2.954413e+03,1.970361e+03
2.957306e+03,1.994119e+03
2.960198e+03,1.984931e+03
2.963091e+03,1.968257e+03
2.965984e+03,1.933822e+03
2.968876e+03,1.973948e+03
2.971769e+03,1.947299e+03
2.974662e+03,1.916171e+03
2.977554e+03,1.959792e+03
2.980447e+03,1.942048e+03
2.983340e+03,1.933167e+03
2.986233e+03,1.928855e+03
2.989125e+03,1.927842e+03
2.992018e+03,1.903087e+03
2.994911e+03,1.880399e+03
2.997803e+03,1.905781e+03
3.000696e+03,1.887320e+03
3.003589e+03,1.905400e+03
3.006481e+03,1.906844e+03
3.009374e+03,1.914415e+03
3.012267e+03,1.916738e+03
3.015160e+03,1.919561e+03
3.018052e+03,1.898142e+03
3.020945e+03,1.905281e+03
3.023838e+03,1.909940e+03
3.026730e+03,1.873532e+03
3.029623e+03,1.914124e+03
3.032516e+03,1.906241e+03
3.035408e+03,1.924234e+03
3.038301e+03,1.860374e+03
3.041194e+03,1.870639e+03
3.044087e+03,1.850784e+03
3.046979e+03,1.842545e+03
3.049872e+03,1.871532e+03
3.052765e+03,1.869226e+03
3.055657e+03,1.887517e+03
3.058550e+03,1.879550e+03
3.061443e+03,1.887743e+03
3.064335e+03,1.857266e+03
3.067228e+03,1.826644e+03
3.070121e+03,1.864142e+03
3.073014e+03,1.844593e+03
3.075906e+03,1.864802e+03
3.078799e+03,1.860366e+03
3.081692e+03,1.848228e+03
3.084584e+03,1.846709e+03
3.087477e+03,1.845174e+03
3.090370e+03,1.876142e+03
3.093262e+03,1.895543e+03
3.096155e+03,1.864362e+03
3.099048e+03,1.881302e+03
3.101941e+03,1.837734e+03
3.104833e+03,1.842913e+03
3.107726e+03,1.764729e+03
3.110619e+03,1.815641e+03
3.113511e+03,1.809641e+03
3.116404e+03,1.847145e+03
3.119297e+03,1.825384e+03
3.122189e+03,1.820612e+03
3.125082e+03,1.813055e+03
3.127975e+03,1.818962e+03
3.130868e+03,1.844868e+03
3.133760e+03,1.850726e+03
3.136653e+03,1.854324e+03
3.139546e+03,1.865482e+03
3.142438e+03,1.847053e+03
3.145331e+03,1.845118e+03
3.148224e+03,1.835196e+03
3.151116e+03,1.858469e+03
3.154009e+03,1.822863e+03
3.156902e+03,1.822592e+03
3.159795e+03,1.848030e+03
3.162687e+03,1.835461e+03
3.165580e+03,1.849690e+03
3.168473e+03,1.850784e+03
3.171365e+03,1.859377e+03
3.174258e+03,1.801291e+03
3.177151e+03,1.868685e+03
3.180043e+03,1.843509e+03
3.182936e+03,1.770362e+03
3.185829e+03,1.800478e+03
3.188722e+03,1.806611e+03
3.191614e+03,1.844307e+03
3.194507e+03,1.807486e+03
3.197400e+03,1.826049e+03
3.200292e+03,1.828874e+03
3.203185e+03,0.000000e+00
3.206078e+03,0.000000e+00
3.208970e+03,0.000000e+00
3.211863e+03,0.000000e+00
3.214756e+03,0.000000e+00
3.217649e+03,0.000000e+00
3.220541e+03,0.000000e+00
3.223434e+03,0.000000e+00
3.226327e+03,0.000000e+00
3.229219e+03,0.000000e+00
3.232112e+03,0.000000e+00
3.235005e+03,0.000000e+00
3.237897e+03,0.000000e+00
3.240790e+03,0.000000e+00
3.243683e+03,0.000000e+00
3.246576e+03,0.000000e+00
3.249468e+03,0.000000e+00
3.252361e+03,0.000000e+00
3.255254e+03,0.000000e+00
3.258146e+03,0.000000e+00
3.261039e+03,0.000000e+00
3.263932e+03,0.000000e+00
3.266824e+03,0.000000e+00
3.269717e+03,0.000000e+00
3.272610e+03,0.000000e+00
3.275503e+03,0.000000e+00
3.278395e+03,0.000000e+00
3.281288e+03,0.000000e+00
3.284181e+03,0.000000e+00
3.287073e+03,0.000000e+00
3.289966e+03,0.000000e+00
3.292859e+03,0.000000e+00
3.295751e+03,0.000000e+00
3.298644e+03,0.000000e+00
3.301537e+03,0.000000e+00
3.304430e+03,0.000000e+00
3.307322e+03,0.000000e+00
3.310215e+03,0.000000e+00
3.313108e+03,0.000000e+00
3.316000e+03,0.000000e+00
3.318893e+03,0.000000e+00
3.321786e+03,0.000000e+00
3.324678e+03,0.000000e+00
3.327571e+03,0.000000e+00
3.330464e+03,0.000000e+00
3.333357e+03,0.000000e+00
3.336249e+03,0.000000e+00
3.339142e+03,0.000000e+00
3.342035e+03,0.000000e+00
3.344927e+03,0.000000e+00
3.347820e+03,0.000000e+00
3.350713e+03,0.000000e+00
3.353605e+03,0.000000e+00
3.356498e+03,0.000000e+00
3.359391e+03,0.000000e+00
3.362284e+03,0.000000e+00
3.365176e+03,0.000000e+00
3.368069e+03,0.000000e+00
3.370962e+03,0.000000e+00
3.373854e+03,0.000000e+00
3.376747e+03,0.000000e+00
3.379640e+03,0.000000e+00
3.382532e+03,0.000000e+00
3.385425e+03,0.000000e+00
3.388318e+03,0.000000e+00
3.391211e+03,0.000000e+00
3.394103e+03,0.000000e+00
3.396996e+03,0.000000e+00
3.399889e+03,0.000000e+00
3.402781e+03,0.000000e+00
3.405674e+03,0.000000e+00
3.408567e+03,0.000000e+00
3.411459e+03,0.000000e+00
3.414352e+03,0.000000e+00
3.417245e+03,0.000000e+00
3.420138e+03,0.000000e+00
3.423030e+03,0.000000e+00
3.425923e+03,0.000000e+00
3.428816e+03,0.000000e+00
3.431708e+03,0.000000e+00
3.434601e+03,0.000000e+00
3.437494e+03,0.000000e+00
3.440386e+03,0.000000e+00
3.443279e+03,0.000000e+00
3.446172e+03,0.000000e+00
3.449065e+03,0.000000e+00
3.451957e+03,0.000000e+00
3.454850e+03,0.000000e+00
3.457743e+03,0.000000e+00
3.460635e+03,0.000000e+00
3.463528e+03,0.000000e+00
3.466421e+03,0.000000e+00
3.469313e+03,0.000000e+00
3.472206e+03,0.000000e+00
3.475099e+03,0.000000e+00
3.477992e+03,0.000000e+00
3.480884e+03,0.000000e+00
3.483777e+03,0.000000e+00
3.486670e+03,0.000000e+00
3.489563e+03,0.000000e+00
3.492455e+03,0.000000e+00
3.495348e+03,0.000000e+00
3.498240e+03,0.000000e+00
3.500169e+03,0.000000e+00