File: RAMAN_data/13042023_r1/black fibre6.CSV
9.931763e+01,0.000000e+00
1.022103e+02,0.000000e+00
1.051030e+02,0.000000e+00
1.079957e+02,0.000000e+00
1.108884e+02,0.000000e+00
1.137811e+02,0.000000e+00
1.166738e+02,0.000000e+00
1.195665e+02,0.000000e+00
1.224592e+02,0.000000e+00
1.253519e+02,0.000000e+00
1.282446e+02,0.000000e+00
1.311373e+02,0.000000e+00
1.340300e+02,0.000000e+00
1.369227e+02,0.000000e+00
1.398154e+02,0.000000e+00
1.427081e+02,0.000000e+00
1.456008e+02,0.000000e+00
1.484935e+02,0.000000e+00
1.513862e+02,0.000000e+00
1.542789e+02,0.000000e+00
1.571716e+02,0.000000e+00
1.600643e+02,0.000000e+00
1.629570e+02,0.000000e+00
1.658497e+02,0.000000e+00
1.687424e+02,0.000000e+00
1.716351e+02,0.000000e+00
1.745278e+02,0.000000e+00
1.774205e+02,0.000000e+00
1.803132e+02,0.000000e+00
1.832059e+02,0.000000e+00
1.860986e+02,0.000000e+00
1.889913e+02,0.000000e+00
1.918840e+02,0.000000e+00
1.947767e+02,0.000000e+00
1.976694e+02,0.000000e+00
2.005621e+02,1.047981e+04
2.034548e+02,1.052034e+04
2.063475e+02,1.054905e+04
2.092402e+02,1.055023e+04
2.121329e+02,1.055114e+04
2.150256e+02,1.057994e+04
2.179183e+02,1.060919e+04
2.208110e+02,1.066058e+04
2.237037e+02,1.067718e+04
2.265964e+02,1.068749e+04
2.294892e+02,1.071674e+04
2.323819e+02,1.076485e+04
2.352746e+02,1.080180e+04
2.381673e+02,1.083688e+04
2.410600e+02,1.083374e+04
2.439527e+02,1.085114e+04
2.468454e+02,1.088743e+04
2.497381e+02,1.092293e+04
2.526308e+02,1.095972e+04
2.555235e+02,1.097477e+04
2.584161e+02,1.097703e+04
2.613088e+02,1.102010e+04
2.642015e+02,1.107264e+04
2.670942e+02,1.109793e+04
2.699869e+02,1.113241e+04
2.728796e+02,1.114520e+04
2.757723e+02,1.118599e+04
2.786650e+02,1.122956e+04
2.815577e+02,1.125743e+04
2.844504e+02,1.128402e+04
2.873431e+02,1.129060e+04
2.902358e+02,1.131700e+04
2.931285e+02,1.134644e+04
2.960212e+02,1.139113e+04
2.989139e+02,1.141448e+04
3.018066e+02,1.143413e+04
3.046993e+02,1.146692e+04
3.075920e+02,1.148884e+04
3.104847e+02,1.152890e+04
3.133774e+02,1.157925e+04
3.162701e+02,1.159601e+04
3.191628e+02,1.160888e+04
3.220555e+02,1.164175e+04
3.249482e+02,1.168424e+04
3.278409e+02,1.172364e+04
3.307336e+02,1.175929e+04
3.336263e+02,1.178546e+04
3.365190e+02,1.179593e+04
3.394117e+02,1.184477e+04
3.423044e+02,1.189110e+04
3.451971e+02,1.195065e+04
3.480898e+02,1.197636e+04
3.509825e+02,1.198931e+04
3.538752e+02,1.203903e+04
3.567680e+02,1.208796e+04
3.596607e+02,1.212734e+04
3.625534e+02,1.216518e+04
3.654461e+02,1.215143e+04
3.683388e+02,1.217766e+04
3.712315e+02,1.224066e+04
3.741242e+02,1.227460e+04
3.770169e+02,1.231209e+04
3.799096e+02,1.235546e+04
3.828023e+02,1.237038e+04
3.856950e+02,1.239012e+04
3.885877e+02,1.246008e+04
3.914804e+02,1.248288e+04
3.943731e+02,1.248244e+04
3.972658e+02,1.249424e+04
4.001585e+02,1.251772e+04
4.030512e+02,1.251699e+04
4.059439e+02,1.254314e+04
4.088366e+02,1.257660e+04
4.117293e+02,1.258389e+04
4.146220e+02,1.260238e+04
4.175147e+02,1.260781e+04
4.204074e+02,1.265700e+04
4.233001e+02,1.267219e+04
4.261928e+02,1.265586e+04
4.290855e+02,1.269146e+04
4.319782e+02,1.273374e+04
4.348709e+02,1.273412e+04
4.377636e+02,1.274621e+04
4.406563e+02,1.276991e+04
4.435490e+02,1.274394e+04
4.464417e+02,1.277720e+04
4.493344e+02,1.280292e+04
4.522271e+02,1.280550e+04
4.551198e+02,1.279273e+04
4.580125e+02,1.278514e+04
4.609052e+02,1.278478e+04
4.637979e+02,1.278529e+04
4.666906e+02,1.278085e+04
4.695833e+02,1.281448e+04
4.724760e+02,1.278927e+04
4.753687e+02,1.279246e+04
4.782614e+02,1.279387e+04
4.811541e+02,1.281690e+04
4.840468e+02,1.282713e+04
4.869395e+02,1.282764e+04
4.898322e+02,1.280468e+04
4.927249e+02,1.284313e+04
4.956176e+02,1.283915e+04
4.985103e+02,1.284636e+04
5.014030e+02,1.284122e+04
5.042957e+02,1.283590e+04
5.071884e+02,1.284351e+04
5.100811e+02,1.283965e+04
5.129738e+02,1.284356e+04
5.158665e+02,1.287330e+04
5.187592e+02,1.284687e+04
5.216519e+02,1.279939e+04
5.245446e+02,1.282765e+04
5.274373e+02,1.284523e+04
5.303300e+02,1.283547e+04
5.332227e+02,1.282499e+04
5.361154e+02,1.285232e+04
5.390081e+02,1.282765e+04
5.419008e+02,1.283375e+04
5.447935e+02,1.282063e+04
5.476862e+02,1.288211e+04
5.505789e+02,1.285014e+04
5.534716e+02,1.280393e+04
5.563643e+02,1.281910e+04
5.592570e+02,1.283318e+04
5.621497e+02,1.284630e+04
5.650424e+02,1.279898e+04
5.679351e+02,1.274602e+04
5.708278e+02,1.273926e+04
5.737205e+02,1.272728e+04
5.766132e+02,1.274286e+04
5.795059e+02,1.271771e+04
5.823986e+02,1.270935e+04
5.852913e+02,1.265722e+04
5.881840e+02,1.266508e+04
5.910767e+02,1.264922e+04
5.939694e+02,1.265350e+04
5.968621e+02,1.264778e+04
5.997548e+02,1.256868e+04
6.026475e+02,1.258287e+04
6.055402e+02,1.258579e+04
6.084329e+02,1.258927e+04
6.113256e+02,1.256458e+04
6.142183e+02,1.254043e+04
6.171110e+02,1.250057e+04
6.200037e+02,1.250496e+04
6.228964e+02,1.246719e+04
6.257891e+02,1.246934e+04
6.286818e+02,1.248547e+04
6.315745e+02,1.245038e+04
6.344672e+02,1.241549e+04
6.373599e+02,1.241740e+04
6.402526e+02,1.239885e+04
6.431453e+02,1.236391e+04
6.460380e+02,1.235217e+04
6.489307e+02,1.234852e+04
6.518234e+02,1.232522e+04
6.547161e+02,1.234923e+04
6.576088e+02,1.228908e+04
6.605015e+02,1.228988e+04
6.633942e+02,1.226056e+04
6.662869e+02,1.223382e+04
6.691796e+02,1.226863e+04
6.720723e+02,1.222722e+04
6.749650e+02,1.219185e+04
6.778577e+02,1.215541e+04
6.807504e+02,1.219246e+04
6.836431e+02,1.218238e+04
6.865358e+02,1.215704e+04
6.894285e+02,1.211778e+04
6.923212e+02,1.210722e+04
6.952139e+02,1.214928e+04
6.981066e+02,1.211005e+04
7.009993e+02,1.211615e+04
7.038920e+02,1.208766e+04
7.067847e+02,1.206869e+04
7.096774e+02,1.203101e+04
7.125701e+02,1.202221e+04
7.154628e+02,1.201531e+04
7.183555e+02,1.204522e+04
7.212482e+02,1.197577e+04
7.241409e+02,1.196831e+04
7.270336e+02,1.197683e+04
7.299263e+02,1.194896e+04
7.328190e+02,1.195491e+04
7.357117e+02,1.194399e+04
7.386044e+02,1.194008e+04
7.414971e+02,1.190840e+04
7.443898e+02,1.190212e+04
7.472825e+02,1.193780e+04
7.501752e+02,1.185133e+04
7.530679e+02,1.185263e+04
7.559606e+02,1.185844e+04
7.588533e+02,1.183550e+04
7.617460e+02,1.179247e+04
7.646387e+02,1.176360e+04
7.675314e+02,1.177799e+04
7.704241e+02,1.179088e+04
7.733168e+02,1.175358e+04
7.762095e+02,1.177737e+04
7.791022e+02,1.175962e+04
7.819949e+02,1.173011e+04
7.848876e+02,1.171271e+04
7.877803e+02,1.170670e+04
7.906730e+02,1.170693e+04
7.935657e+02,1.169492e+04
7.964584e+02,1.163555e+04
7.993511e+02,1.165364e+04
8.022438e+02,1.160576e+04
8.051365e+02,1.163270e+04
8.080292e+02,1.165270e+04
8.109219e+02,1.159751e+04
8.138146e+02,1.155850e+04
8.167073e+02,1.157619e+04
8.196000e+02,1.159345e+04
8.224927e+02,1.157231e+04
8.253854e+02,1.153677e+04
8.282781e+02,1.152614e+04
8.311708e+02,1.150762e+04
8.340635e+02,1.149181e+04
8.369562e+02,1.151046e+04
8.398489e+02,1.147583e+04
8.427416e+02,1.146042e+04
8.456343e+02,1.144877e+04
8.485270e+02,1.143528e+04
8.514197e+02,1.142897e+04
8.543124e+02,1.143426e+04
8.572051e+02,1.140026e+04
8.600978e+02,1.143318e+04
8.629905e+02,1.138176e+04
8.658832e+02,1.137615e+04
8.687759e+02,1.132737e+04
8.716686e+02,1.133404e+04
8.745613e+02,1.129748e+04
8.774540e+02,1.133874e+04
8.803467e+02,1.131703e+04
8.832394e+02,1.130566e+04
8.861321e+02,1.128325e+04
8.890248e+02,1.129531e+04
8.919175e+02,1.123272e+04
8.948102e+02,1.120936e+04
8.977029e+02,1.122643e+04
9.005956e+02,1.124290e+04
9.034883e+02,1.117352e+04
9.063810e+02,1.116947e+04
9.092737e+02,1.117812e+04
9.121664e+02,1.116913e+04
9.150591e+02,1.115472e+04
9.179518e+02,1.116273e+04
9.208445e+02,1.110837e+04
9.237372e+02,1.109057e+04
9.266299e+02,1.109233e+04
9.295226e+02,1.114228e+04
9.324153e+02,1.109521e+04
9.353080e+02,1.108267e+04
9.382007e+02,1.105009e+04
9.410934e+02,1.104528e+04
9.439861e+02,1.102341e+04
9.468788e+02,1.101829e+04
9.497715e+02,1.102472e+04
9.526642e+02,1.100235e+04
9.555569e+02,1.097201e+04
9.584496e+02,1.096183e+04
9.613423e+02,1.099035e+04
9.642350e+02,1.095742e+04
9.671277e+02,1.091888e+04
9.700204e+02,1.094113e+04
9.729131e+02,1.089815e+04
9.758058e+02,1.090770e+04
9.786985e+02,1.089670e+04
9.815912e+02,1.086504e+04
9.844839e+02,1.087074e+04
9.873766e+02,1.085184e+04
9.902693e+02,1.087311e+04
9.931620e+02,1.086514e+04
9.960547e+02,1.085569e+04
9.989474e+02,1.083775e+04
1.001840e+03,1.079486e+04
1.004733e+03,1.079350e+04
1.007626e+03,1.079379e+04
1.010518e+03,1.077449e+04
1.013411e+03,1.073430e+04
1.016304e+03,1.074501e+04
1.019196e+03,1.069534e+04
1.022089e+03,1.073200e+04
1.024982e+03,1.070394e+04
1.027875e+03,1.072387e+04
1.030767e+03,1.068815e+04
1.033660e+03,1.066742e+04
1.036552e+03,1.064593e+04
1.039445e+03,1.067018e+04
1.042338e+03,1.062428e+04
1.045231e+03,1.061449e+04
1.048123e+03,1.062185e+04
1.051016e+03,1.059316e+04
1.053909e+03,1.062977e+04
1.056802e+03,1.061937e+04
1.059694e+03,1.057149e+04
1.062587e+03,1.055220e+04
1.065479e+03,1.054708e+04
1.068372e+03,1.057114e+04
1.071265e+03,1.056424e+04
1.074158e+03,1.057818e+04
1.077050e+03,1.051881e+04
1.079943e+03,1.054087e+04
1.082836e+03,1.056747e+04
1.085729e+03,1.054405e+04
1.088621e+03,1.053723e+04
1.091514e+03,1.048979e+04
1.094406e+03,1.049047e+04
1.097299e+03,1.044370e+04
1.100192e+03,1.046894e+04
1.103085e+03,1.046132e+04
1.105977e+03,1.045266e+04
1.108870e+03,1.040645e+04
1.111763e+03,1.042449e+04
1.114656e+03,1.042049e+04
1.117548e+03,1.041491e+04
1.120441e+03,1.040774e+04
1.123334e+03,1.039122e+04
1.126226e+03,1.037813e+04
1.129119e+03,1.036753e+04
1.132012e+03,1.039536e+04
1.134904e+03,1.037536e+04
1.137797e+03,1.033681e+04
1.140690e+03,1.031646e+04
1.143583e+03,1.032523e+04
1.146475e+03,1.032007e+04
1.149368e+03,1.032126e+04
1.152261e+03,1.036198e+04
1.155153e+03,1.028774e+04
1.158046e+03,1.030554e+04
1.160939e+03,1.028059e+04
1.163831e+03,1.030097e+04
1.166724e+03,1.028280e+04
1.169617e+03,1.021733e+04
1.172510e+03,1.019814e+04
1.175402e+03,1.019872e+04
1.178295e+03,1.023657e+04
1.181188e+03,1.024326e+04
1.184080e+03,1.019956e+04
1.186973e+03,1.016047e+04
1.189866e+03,1.022639e+04
1.192758e+03,1.018269e+04
1.195651e+03,1.016493e+04
1.198544e+03,1.016186e+04
1.201437e+03,1.012667e+04
1.204329e+03,1.010933e+04
1.207222e+03,1.012775e+04
1.210115e+03,1.014623e+04
1.213007e+03,1.013905e+04
1.215900e+03,1.008513e+04
1.218793e+03,1.007884e+04
1.221685e+03,1.005211e+04
1.224578e+03,1.009017e+04
1.227471e+03,1.009766e+04
1.230364e+03,1.007712e+04
1.233256e+03,1.004024e+04
1.236149e+03,1.003280e+04
1.239042e+03,1.004825e+04
1.241934e+03,1.005294e+04
1.244827e+03,1.001548e+04
1.247720e+03,9.982551e+03
1.250612e+03,9.987606e+03
1.253505e+03,9.953402e+03
1.256398e+03,9.990888e+03
1.259291e+03,9.977380e+03
1.262183e+03,9.924007e+03
1.265076e+03,9.905985e+03
1.267969e+03,9.909624e+03
1.270861e+03,9.930073e+03
1.273754e+03,9.913264e+03
1.276647e+03,9.888081e+03
1.279539e+03,9.897379e+03
1.282432e+03,9.891038e+03
1.285325e+03,9.870518e+03
1.288218e+03,9.883600e+03
1.291110e+03,9.872197e+03
1.294003e+03,9.864692e+03
1.296896e+03,9.808181e+03
1.299788e+03,9.820269e+03
1.302681e+03,9.858170e+03
1.305574e+03,9.865340e+03
1.308466e+03,9.843221e+03
1.311359e+03,9.790854e+03
1.314252e+03,9.776303e+03
1.317145e+03,9.772392e+03
1.320037e+03,9.824517e+03
1.322930e+03,9.797252e+03
1.325823e+03,9.760835e+03
1.328715e+03,9.743884e+03
1.331608e+03,9.767216e+03
1.334501e+03,9.754830e+03
1.337393e+03,9.739844e+03
1.340286e+03,9.717341e+03
1.343179e+03,9.711146e+03
1.346072e+03,9.688665e+03
1.348964e+03,9.687700e+03
1.351857e+03,9.683813e+03
1.354750e+03,9.679668e+03
1.357642e+03,9.629270e+03
1.360535e+03,9.610678e+03
1.363428e+03,9.596338e+03
1.366320e+03,9.569771e+03
1.369213e+03,9.591022e+03
1.372106e+03,9.544833e+03
1.374999e+03,9.528028e+03
1.377891e+03,9.529675e+03
1.380784e+03,9.529229e+03
1.383677e+03,9.493255e+03
1.386569e+03,9.507718e+03
1.389462e+03,9.461168e+03
1.392355e+03,9.476982e+03
1.395247e+03,9.447814e+03
1.398140e+03,9.460962e+03
1.401033e+03,9.419268e+03
1.403926e+03,9.383377e+03
1.406818e+03,9.375094e+03
1.409711e+03,9.407869e+03
1.412604e+03,9.384296e+03
1.415496e+03,9.366119e+03
1.418389e+03,9.352934e+03
1.421282e+03,9.367396e+03
1.424174e+03,9.308012e+03
1.427067e+03,9.317343e+03
1.429960e+03,9.309056e+03
1.432853e+03,9.282706e+03
1.435745e+03,9.268861e+03
1.438638e+03,9.244293e+03
1.441531e+03,9.262337e+03
1.444423e+03,9.253495e+03
1.447316e+03,9.213670e+03
1.450209e+03,9.201534e+03
1.453101e+03,9.177520e+03
1.455994e+03,9.209191e+03
1.458887e+03,9.187300e+03
1.461780e+03,9.177828e+03
1.464672e+03,9.134033e+03
1.467565e+03,9.154522e+03
1.470458e+03,9.131762e+03
1.473350e+03,9.142815e+03
1.476243e+03,9.119853e+03
1.479136e+03,9.075229e+03
1.482028e+03,9.067349e+03
1.484921e+03,9.051108e+03
1.487814e+03,9.039848e+03
1.490707e+03,9.002667e+03
1.493599e+03,9.017212e+03
1.496492e+03,9.006672e+03
1.499385e+03,8.992393e+03
1.502277e+03,9.011551e+03
1.505170e+03,8.977412e+03
1.508063e+03,8.970436e+03
1.510955e+03,8.955647e+03
1.513848e+03,8.936485e+03
1.516741e+03,8.933921e+03
1.519634e+03,8.928580e+03
1.522526e+03,8.920395e+03
1.525419e+03,8.927080e+03
1.528312e+03,8.878443e+03
1.531204e+03,8.871042e+03
1.534097e+03,8.882145e+03
1.536990e+03,8.872897e+03
1.539882e+03,8.843844e+03
1.542775e+03,8.837174e+03
1.545668e+03,8.811386e+03
1.548561e+03,8.821346e+03
1.551453e+03,8.841420e+03
1.554346e+03,8.827988e+03
1.557239e+03,8.802906e+03
1.560131e+03,8.826921e+03
1.563024e+03,8.785855e+03
1.565917e+03,8.807035e+03
1.568809e+03,8.805497e+03
1.571702e+03,8.791175e+03
1.574595e+03,8.734438e+03
1.577488e+03,8.762535e+03
1.580380e+03,8.794881e+03
1.583273e+03,8.762693e+03
1.586166e+03,8.741230e+03
1.589058e+03,8.703581e+03
1.591951e+03,8.704999e+03
1.594844e+03,8.693381e+03
1.597736e+03,8.709106e+03
1.600629e+03,8.699094e+03
1.603522e+03,8.655951e+03
1.606415e+03,8.625365e+03
1.609307e+03,8.622739e+03
1.612200e+03,8.623815e+03
1.615093e+03,8.598407e+03
1.617985e+03,8.580922e+03
1.620878e+03,8.575780e+03
1.623771e+03,8.527825e+03
1.626663e+03,8.538972e+03
1.629556e+03,8.494275e+03
1.632449e+03,8.493275e+03
1.635342e+03,8.453705e+03
1.638234e+03,8.439354e+03
1.641127e+03,8.431746e+03
1.644020e+03,8.414221e+03
1.646912e+03,8.399761e+03
1.649805e+03,8.397446e+03
1.652698e+03,8.382154e+03
1.655590e+03,8.330113e+03
1.658483e+03,8.331739e+03
1.661376e+03,8.321588e+03
1.664269e+03,8.311310e+03
1.667161e+03,8.252946e+03
1.670054e+03,8.262011e+03
1.672947e+03,8.251780e+03
1.675839e+03,8.246482e+03
1.678732e+03,8.262660e+03
1.681625e+03,8.232790e+03
1.684517e+03,8.223267e+03
1.687410e+03,8.212397e+03
1.690303e+03,8.196474e+03
1.693196e+03,8.188828e+03
1.696088e+03,8.199403e+03
1.698981e+03,8.146101e+03
1.701874e+03,8.153254e+03
1.704766e+03,8.158189e+03
1.707659e+03,8.134284e+03
1.710552e+03,8.114521e+03
1.713444e+03,8.108745e+03
1.716337e+03,8.088452e+03
1.719230e+03,8.074131e+03
1.722123e+03,8.061305e+03
1.725015e+03,8.016656e+03
1.727908e+03,8.025508e+03
1.730801e+03,8.000095e+03
1.733693e+03,7.990850e+03
1.736586e+03,8.020695e+03
1.739479e+03,7.961812e+03
1.742371e+03,7.986290e+03
1.745264e+03,7.937854e+03
1.748157e+03,7.957039e+03
1.751050e+03,7.977727e+03
1.753942e+03,7.926380e+03
1.756835e+03,7.928943e+03
1.759728e+03,7.877494e+03
1.762620e+03,7.878208e+03
1.765513e+03,7.886541e+03
1.768406e+03,7.870806e+03
1.771298e+03,7.858161e+03
1.774191e+03,7.873152e+03
1.777084e+03,7.839501e+03
1.779977e+03,7.833303e+03
1.782869e+03,7.822011e+03
1.785762e+03,7.802715e+03
1.788655e+03,7.783812e+03
1.791547e+03,7.776578e+03
1.794440e+03,7.788478e+03
1.797333e+03,7.761782e+03
1.800225e+03,7.748466e+03
1.803118e+03,7.732010e+03
1.806011e+03,7.713684e+03
1.808904e+03,7.695474e+03
1.811796e+03,7.685057e+03
1.814689e+03,7.678870e+03
1.817582e+03,7.712107e+03
1.820474e+03,7.634794e+03
1.823367e+03,7.632313e+03
1.826260e+03,7.600603e+03
1.829152e+03,7.610734e+03
1.832045e+03,7.626179e+03
1.834938e+03,7.607900e+03
1.837831e+03,7.581740e+03
1.840723e+03,7.560964e+03
1.843616e+03,7.579755e+03
1.846509e+03,7.571933e+03
1.849401e+03,7.535766e+03
1.852294e+03,7.513596e+03
1.855187e+03,7.466014e+03
1.858079e+03,7.485793e+03
1.860972e+03,7.492268e+03
1.863865e+03,7.481120e+03
1.866758e+03,7.482724e+03
1.869650e+03,7.426578e+03
1.872543e+03,7.441886e+03
1.875436e+03,7.454137e+03
1.878328e+03,7.450065e+03
1.881221e+03,7.374467e+03
1.884114e+03,7.379624e+03
1.887006e+03,7.376032e+03
1.889899e+03,7.334069e+03
1.892792e+03,7.356228e+03
1.895685e+03,7.308122e+03
1.898577e+03,7.319094e+03
1.901470e+03,7.317835e+03
1.904363e+03,7.330865e+03
1.907255e+03,7.265666e+03
1.910148e+03,7.281517e+03
1.913041e+03,7.270094e+03
1.915933e+03,7.270065e+03
1.918826e+03,7.233725e+03
1.921719e+03,7.247489e+03
1.924612e+03,7.212339e+03
1.927504e+03,7.233008e+03
1.930397e+03,7.182994e+03
1.933290e+03,7.163015e+03
1.936182e+03,7.175989e+03
1.939075e+03,7.129279e+03
1.941968e+03,7.119894e+03
1.944860e+03,7.120024e+03
1.947753e+03,7.081295e+03
1.950646e+03,7.091907e+03
1.953539e+03,7.113406e+03
1.956431e+03,7.087221e+03
1.959324e+03,7.086074e+03
1.962217e+03,7.035361e+03
1.965109e+03,6.995937e+03
1.968002e+03,7.015010e+03
1.970895e+03,6.989318e+03
1.973787e+03,6.978254e+03
1.976680e+03,6.988154e+03
1.979573e+03,6.993275e+03
1.982466e+03,6.979931e+03
1.985358e+03,6.944064e+03
1.988251e+03,6.948890e+03
1.991144e+03,6.923927e+03
1.994036e+03,6.894108e+03
1.996929e+03,6.854594e+03
1.999822e+03,6.905625e+03
2.002714e+03,6.873667e+03
2.005607e+03,6.869312e+03
2.008500e+03,6.826593e+03
2.011393e+03,6.790581e+03
2.014285e+03,6.827886e+03
2.017178e+03,6.834894e+03
2.020071e+03,6.792976e+03
2.022963e+03,6.764796e+03
2.025856e+03,6.759763e+03
2.028749e+03,6.739530e+03
2.031641e+03,6.749692e+03
2.034534e+03,6.754578e+03
2.037427e+03,6.717214e+03
2.040320e+03,6.658690e+03
2.043212e+03,6.690381e+03
2.046105e+03,6.643893e+03
2.048998e+03,6.710258e+03
2.051890e+03,6.642055e+03
2.054783e+03,6.616899e+03
2.057676e+03,6.616798e+03
2.060568e+03,6.603037e+03
2.063461e+03,6.618851e+03
2.066354e+03,6.603183e+03
2.069247e+03,6.554526e+03
2.072139e+03,6.528453e+03
2.075032e+03,6.549897e+03
2.077925e+03,6.521065e+03
2.080817e+03,6.505018e+03
2.083710e+03,6.464740e+03
2.086603e+03,6.488735e+03
2.089496e+03,6.507989e+03
2.092388e+03,6.459501e+03
2.095281e+03,6.436279e+03
2.098174e+03,6.434011e+03
2.101066e+03,6.392892e+03
2.103959e+03,6.374838e+03
2.106852e+03,6.357516e+03
2.109744e+03,6.390758e+03
2.112637e+03,6.350982e+03
2.115530e+03,6.340280e+03
2.118422e+03,6.334684e+03
2.121315e+03,6.345842e+03
2.124208e+03,6.354217e+03
2.127101e+03,6.274278e+03
2.129993e+03,6.289447e+03
2.132886e+03,6.295814e+03
2.135779e+03,6.285036e+03
2.138671e+03,6.220080e+03
2.141564e+03,6.239129e+03
2.144457e+03,6.214580e+03
2.147350e+03,6.168922e+03
2.150242e+03,6.214372e+03
2.153135e+03,6.208895e+03
2.156028e+03,6.175047e+03
2.158920e+03,6.158978e+03
2.161813e+03,6.190924e+03
2.164706e+03,6.151419e+03
2.167598e+03,6.099244e+03
2.170491e+03,6.178336e+03
2.173384e+03,6.089446e+03
2.176277e+03,6.102894e+03
2.179169e+03,6.035898e+03
2.182062e+03,6.008891e+03
2.184955e+03,6.060224e+03
2.187847e+03,6.039040e+03
2.190740e+03,6.020594e+03
2.193633e+03,5.985654e+03
2.196525e+03,5.975706e+03
2.199418e+03,5.978692e+03
2.202311e+03,5.966010e+03
2.205204e+03,5.966373e+03
2.208096e+03,5.960936e+03
2.210989e+03,5.912448e+03
2.213882e+03,5.890127e+03
2.216774e+03,5.939489e+03
2.219667e+03,5.903604e+03
2.222560e+03,5.843560e+03
2.225452e+03,5.828981e+03
2.228345e+03,5.834797e+03
2.231238e+03,5.883141e+03
2.234131e+03,5.797393e+03
2.237023e+03,5.803129e+03
2.239916e+03,5.761694e+03
2.242809e+03,5.751990e+03
2.245701e+03,5.745922e+03
2.248594e+03,5.736192e+03
2.251487e+03,5.737935e+03
2.254379e+03,5.732693e+03
2.257272e+03,5.636132e+03
2.260165e+03,5.660600e+03
2.263058e+03,5.686222e+03
2.265950e+03,5.663730e+03
2.268843e+03,5.649887e+03
2.271736e+03,5.629574e+03
2.274628e+03,5.642248e+03
2.277521e+03,5.627767e+03
2.280414e+03,5.618690e+03
2.283306e+03,5.629008e+03
2.286199e+03,5.572007e+03
2.289092e+03,5.585303e+03
2.291985e+03,5.548188e+03
2.294877e+03,5.540903e+03
2.297770e+03,5.570706e+03
2.300663e+03,5.564100e+03
2.303555e+03,5.521968e+03
2.306448e+03,5.480805e+03
2.309341e+03,5.486658e+03
2.312233e+03,5.489772e+03
2.315126e+03,5.468931e+03
2.318019e+03,5.420073e+03
2.320912e+03,5.433799e+03
2.323804e+03,5.441252e+03
2.326697e+03,5.440235e+03
2.329590e+03,5.412245e+03
2.332482e+03,5.379118e+03
2.335375e+03,5.380682e+03
2.338268e+03,5.391598e+03
2.341160e+03,5.337283e+03
2.344053e+03,5.409747e+03
2.346946e+03,5.345760e+03
2.349839e+03,5.302326e+03
2.352731e+03,5.303783e+03
2.355624e+03,5.284039e+03
2.358517e+03,5.276538e+03
2.361409e+03,5.266326e+03
2.364302e+03,5.254394e+03
2.367195e+03,5.248210e+03
2.370087e+03,5.204634e+03
2.372980e+03,5.247539e+03
2.375873e+03,5.203464e+03
2.378766e+03,5.202728e+03
2.381658e+03,5.162165e+03
2.384551e+03,5.163683e+03
2.387444e+03,5.151048e+03
2.390336e+03,5.170310e+03
2.393229e+03,5.174274e+03
2.396122e+03,5.119403e+03
2.399014e+03,5.112376e+03
2.401907e+03,5.113255e+03
2.404800e+03,5.118697e+03
2.407693e+03,5.082940e+03
2.410585e+03,5.101463e+03
2.413478e+03,5.078250e+03
2.416371e+03,5.049070e+03
2.419263e+03,5.046216e+03
2.422156e+03,5.038361e+03
2.425049e+03,5.029158e+03
2.427941e+03,5.002375e+03
2.430834e+03,4.983860e+03
2.433727e+03,4.977077e+03
2.436620e+03,4.977866e+03
2.439512e+03,4.960904e+03
2.442405e+03,4.972564e+03
2.445298e+03,4.927914e+03
2.448190e+03,4.948244e+03
2.451083e+03,4.921998e+03
2.453976e+03,4.890110e+03
2.456868e+03,4.902889e+03
2.459761e+03,4.883833e+03
2.462654e+03,4.903100e+03
2.465547e+03,4.866977e+03
2.468439e+03,4.873265e+03
2.471332e+03,4.880750e+03
2.474225e+03,4.814938e+03
2.477117e+03,4.848915e+03
2.480010e+03,4.860065e+03
2.482903e+03,4.833060e+03
2.485795e+03,4.825660e+03
2.488688e+03,4.772287e+03
2.491581e+03,4.761634e+03
2.494474e+03,4.738599e+03
2.497366e+03,4.768528e+03
2.500259e+03,4.753044e+03
2.503152e+03,4.733040e+03
2.506044e+03,4.743281e+03
2.508937e+03,4.722474e+03
2.511830e+03,4.717794e+03
2.514722e+03,4.717859e+03
2.517615e+03,4.693522e+03
2.520508e+03,4.638921e+03
2.523401e+03,4.671062e+03
2.526293e+03,4.670600e+03
2.529186e+03,4.665299e+03
2.532079e+03,4.649921e+03
2.534971e+03,4.631058e+03
2.537864e+03,4.610597e+03
2.540757e+03,4.625102e+03
2.543649e+03,4.603361e+03
2.546542e+03,4.614745e+03
2.549435e+03,4.613507e+03
2.552328e+03,4.580718e+03
2.555220e+03,4.593831e+03
2.558113e+03,4.541320e+03
2.561006e+03,4.563060e+03
2.563898e+03,4.580917e+03
2.566791e+03,4.531366e+03
2.569684e+03,4.548627e+03
2.572576e+03,4.484243e+03
2.575469e+03,4.555409e+03
2.578362e+03,4.519526e+03
2.581255e+03,4.503892e+03
2.584147e+03,4.458122e+03
2.587040e+03,4.505184e+03
2.589933e+03,4.489786e+03
2.592825e+03,4.454360e+03
2.595718e+03,4.457244e+03
2.598611e+03,4.444185e+03
2.601503e+03,4.424390e+03
2.604396e+03,4.441626e+03
2.607289e+03,4.382742e+03
2.610182e+03,4.435404e+03
2.613074e+03,4.380318e+03
2.615967e+03,4.386987e+03
2.618860e+03,4.387834e+03
2.621752e+03,4.361539e+03
2.624645e+03,4.384810e+03
2.627538e+03,4.361858e+03
2.630430e+03,4.341005e+03
2.633323e+03,4.324323e+03
2.636216e+03,4.385614e+03
2.639109e+03,4.308607e+03
2.642001e+03,4.341925e+03
2.644894e+03,4.322190e+03
2.647787e+03,4.348276e+03
2.650679e+03,4.312750e+03
2.653572e+03,4.317153e+03
2.656465e+03,4.289814e+03
2.659357e+03,4.307763e+03
2.662250e+03,4.254696e+03
2.665143e+03,4.278852e+03
2.668036e+03,4.320860e+03
2.670928e+03,4.244911e+03
2.673821e+03,4.218980e+03
2.676714e+03,4.271396e+03
2.679606e+03,4.245373e+03
2.682499e+03,4.204450e+03
2.685392e+03,4.212775e+03
2.688284e+03,4.183753e+03
2.691177e+03,4.230529e+03
2.694070e+03,4.216541e+03
2.696963e+03,4.191724e+03
2.699855e+03,4.196828e+03
2.702748e+03,4.211378e+03
2.705641e+03,4.189035e+03
2.708533e+03,4.147485e+03
2.711426e+03,4.173720e+03
2.714319e+03,4.112159e+03
2.717211e+03,4.119321e+03
2.720104e+03,4.112575e+03
2.722997e+03,4.123272e+03
2.725890e+03,4.109885e+03
2.728782e+03,4.093242e+03
2.731675e+03,4.091561e+03
2.734568e+03,4.077942e+03
2.737460e+03,4.080934e+03
2.740353e+03,4.083879e+03
2.743246e+03,4.108529e+03
2.746138e+03,4.087738e+03
2.749031e+03,4.093517e+03
2.751924e+03,4.059563e+03
2.754817e+03,4.022917e+03
2.757709e+03,4.068897e+03
2.760602e+03,4.061189e+03
2.763495e+03,4.024179e+03
2.766387e+03,4.016338e+03
2.769280e+03,4.034410e+03
2.772173e+03,4.022931e+03
2.775065e+03,4.005757e+03
2.777958e+03,4.004923e+03
2.780851e+03,3.983527e+03
2.783744e+03,3.978872e+03
2.786636e+03,4.001301e+03
2.789529e+03,3.981069e+03
2.792422e+03,4.002844e+03
2.795314e+03,3.999639e+03
2.798207e+03,3.970747e+03
2.801100e+03,3.953421e+03
2.803992e+03,3.964876e+03
2.806885e+03,3.957406e+03
2.809778e+03,3.953033e+03
2.812671e+03,3.927924e+03
2.815563e+03,3.961756e+03
2.818456e+03,3.924152e+03
2.821349e+03,3.959948e+03
2.824241e+03,3.931909e+03
2.827134e+03,3.892789e+03
2.830027e+03,3.920205e+03
2.832919e+03,3.870717e+03
2.835812e+03,3.893648e+03
2.838705e+03,3.893101e+03
2.841598e+03,3.899722e+03
2.844490e+03,3.890230e+03
2.847383e+03,3.864781e+03
2.850276e+03,3.855983e+03
2.853168e+03,3.865037e+03
2.856061e+03,3.872821e+03
2.858954e+03,3.847488e+03
2.861846e+03,3.839262e+03
2.864739e+03,3.841973e+03
2.867632e+03,3.872781e+03
2.870525e+03,3.835285e+03
2.873417e+03,3.827930e+03
2.876310e+03,3.848172e+03
2.879203e+03,3.833569e+03
2.882095e+03,3.860173e+03
2.884988e+03,3.846009e+03
2.887881e+03,3.840019e+03
2.890773e+03,3.839156e+03
2.893666e+03,3.776144e+03
2.896559e+03,3.770386e+03
2.899452e+03,3.811627e+03
2.902344e+03,3.786945e+03
2.905237e+03,3.760469e+03
2.908130e+03,3.796571e+03
2.911022e+03,3.768377e+03
2.913915e+03,3.782725e+03
2.916808e+03,3.721754e+03
2.919700e+03,3.714030e+03
2.922593e+03,3.748595e+03
2.925486e+03,3.717750e+03
2.928379e+03,3.728152e+03
2.931271e+03,3.732834e+03
2.934164e+03,3.748611e+03
2.937057e+03,3.691556e+03
2.939949e+03,3.712863e+03
2.942842e+03,3.699497e+03
2.945735e+03,3.691669e+03
2.948627e+03,3.676406e+03
2.951520e+03,3.744202e+03
2.954413e+03,3.678333e+03
2.957306e+03,3.681707e+03
2.960198e+03,3.661575e+03
2.963091e+03,3.643273e+03
2.965984e+03,3.619562e+03
2.968876e+03,3.680338e+03
2.971769e+03,3.632897e+03
2.974662e+03,3.638877e+03
2.977554e+03,3.698738e+03
2.980447e+03,3.609198e+03
2.983340e+03,3.638001e+03
2.986233e+03,3.620762e+03
2.989125e+03,3.615822e+03
2.992018e+03,3.610683e+03
2.994911e+03,3.588648e+03
2.997803e+03,3.660638e+03
3.000696e+03,3.583870e+03
3.003589e+03,3.535387e+03
3.006481e+03,3.575781e+03
3.009374e+03,3.582411e+03
3.012267e+03,3.606422e+03
3.015160e+03,3.592698e+03
3.018052e+03,3.546116e+03
3.020945e+03,3.553818e+03
3.023838e+03,3.498273e+03
3.026730e+03,3.574422e+03
3.029623e+03,3.542978e+03
3.032516e+03,3.592832e+03
3.035408e+03,3.518219e+03
3.038301e+03,3.563606e+03
3.041194e+03,3.526122e+03
3.044087e+03,3.484801e+03
3.046979e+03,3.489574e+03
3.049872e+03,3.530672e+03
3.052765e+03,3.497143e+03
3.055657e+03,3.546518e+03
3.058550e+03,3.515781e+03
3.061443e+03,3.559131e+03
3.064335e+03,3.432580e+03
3.067228e+03,3.480697e+03
3.070121e+03,3.489713e+03
3.073014e+03,3.431545e+03
3.075906e+03,3.445620e+03
3.078799e+03,3.537697e+03
3.081692e+03,3.535289e+03
3.084584e+03,3.509386e+03
3.087477e+03,3.494642e+03
3.090370e+03,3.509145e+03
3.093262e+03,3.442938e+03
3.096155e+03,3.460552e+03
3.099048e+03,3.432339e+03
3.101941e+03,3.501082e+03
3.104833e+03,3.432061e+03
3.107726e+03,3.378865e+03
3.110619e+03,3.436379e+03
3.113511e+03,3.425317e+03
3.116404e+03,3.512001e+03
3.119297e+03,3.404895e+03
3.122189e+03,3.441856e+03
3.125082e+03,3.461581e+03
3.127975e+03,3.463233e+03
3.130868e+03,3.477763e+03
3.133760e+03,3.436821e+03
3.136653e+03,3.458180e+03
3.139546e+03,3.392428e+03
3.142438e+03,3.454918e+03
3.145331e+03,3.386942e+03
3.148224e+03,3.401517e+03
3.151116e+03,3.410242e+03
3.154009e+03,3.400778e+03
3.156902e+03,3.397439e+03
3.159795e+03,3.438282e+03
3.162687e+03,3.453621e+03
3.165580e+03,3.403436e+03
3.168473e+03,3.389504e+03
3.171365e+03,3.402793e+03
3.174258e+03,3.397498e+03
3.177151e+03,3.446247e+03
3.180043e+03,3.400224e+03
3.182936e+03,3.462454e+03
3.185829e+03,3.495114e+03
3.188722e+03,3.434560e+03
3.191614e+03,3.414652e+03
3.194507e+03,3.384961e+03
3.197400e+03,3.433503e+03
3.200292e+03,3.426091e+03
3.203185e+03,0.000000e+00
3.206078e+03,0.000000e+00
3.208970e+03,0.000000e+00
3.211863e+03,0.000000e+00
3.214756e+03,0.000000e+00
3.217649e+03,0.000000e+00
3.220541e+03,0.000000e+00
3.223434e+03,0.000000e+00
3.226327e+03,0.000000e+00
3.229219e+03,0.000000e+00
3.232112e+03,0.000000e+00
3.235005e+03,0.000000e+00
3.237897e+03,0.000000e+00
3.240790e+03,0.000000e+00
3.243683e+03,0.000000e+00
3.246576e+03,0.000000e+00
3.249468e+03,0.000000e+00
3.252361e+03,0.000000e+00
3.255254e+03,0.000000e+00
3.258146e+03,0.000000e+00
3.261039e+03,0.000000e+00
3.263932e+03,0.000000e+00
3.266824e+03,0.000000e+00
3.269717e+03,0.000000e+00
3.272610e+03,0.000000e+00
3.275503e+03,0.000000e+00
3.278395e+03,0.000000e+00
3.281288e+03,0.000000e+00
3.284181e+03,0.000000e+00
3.287073e+03,0.000000e+00
3.289966e+03,0.000000e+00
3.292859e+03,0.000000e+00
3.295751e+03,0.000000e+00
3.298644e+03,0.000000e+00
3.301537e+03,0.000000e+00
3.304430e+03,0.000000e+00
3.307322e+03,0.000000e+00
3.310215e+03,0.000000e+00
3.313108e+03,0.000000e+00
3.316000e+03,0.000000e+00
3.318893e+03,0.000000e+00
3.321786e+03,0.000000e+00
3.324678e+03,0.000000e+00
3.327571e+03,0.000000e+00
3.330464e+03,0.000000e+00
3.333357e+03,0.000000e+00
3.336249e+03,0.000000e+00
3.339142e+03,0.000000e+00
3.342035e+03,0.000000e+00
3.344927e+03,0.000000e+00
3.347820e+03,0.000000e+00
3.350713e+03,0.000000e+00
3.353605e+03,0.000000e+00
3.356498e+03,0.000000e+00
3.359391e+03,0.000000e+00
3.362284e+03,0.000000e+00
3.365176e+03,0.000000e+00
3.368069e+03,0.000000e+00
3.370962e+03,0.000000e+00
3.373854e+03,0.000000e+00
3.376747e+03,0.000000e+00
3.379640e+03,0.000000e+00
3.382532e+03,0.000000e+00
3.385425e+03,0.000000e+00
3.388318e+03,0.000000e+00
3.391211e+03,0.000000e+00
3.394103e+03,0.000000e+00
3.396996e+03,0.000000e+00
3.399889e+03,0.000000e+00
3.402781e+03,0.000000e+00
3.405674e+03,0.000000e+00
3.408567e+03,0.000000e+00
3.411459e+03,0.000000e+00
3.414352e+03,0.000000e+00
3.417245e+03,0.000000e+00
3.420138e+03,0.000000e+00
3.423030e+03,0.000000e+00
3.425923e+03,0.000000e+00
3.428816e+03,0.000000e+00
3.431708e+03,0.000000e+00
3.434601e+03,0.000000e+00
3.437494e+03,0.000000e+00
3.440386e+03,0.000000e+00
3.443279e+03,0.000000e+00
3.446172e+03,0.000000e+00
3.449065e+03,0.000000e+00
3.451957e+03,0.000000e+00
3.454850e+03,0.000000e+00
3.457743e+03,0.000000e+00
3.460635e+03,0.000000e+00
3.463528e+03,0.000000e+00
3.466421e+03,0.000000e+00
3.469313e+03,0.000000e+00
3.472206e+03,0.000000e+00
3.475099e+03,0.000000e+00
3.477992e+03,0.000000e+00
3.480884e+03,0.000000e+00
3.483777e+03,0.000000e+00
3.486670e+03,0.000000e+00
3.489563e+03,0.000000e+00
3.492455e+03,0.000000e+00
3.495348e+03,0.000000e+00
3.498240e+03,0.000000e+00
3.500169e+03,0.000000e+00