File: RAMAN_data/13042023_r1/black fibre13.CSV
9.931763e+01,0.000000e+00
1.022103e+02,0.000000e+00
1.051030e+02,0.000000e+00
1.079957e+02,0.000000e+00
1.108884e+02,0.000000e+00
1.137811e+02,0.000000e+00
1.166738e+02,0.000000e+00
1.195665e+02,0.000000e+00
1.224592e+02,0.000000e+00
1.253519e+02,0.000000e+00
1.282446e+02,0.000000e+00
1.311373e+02,0.000000e+00
1.340300e+02,0.000000e+00
1.369227e+02,0.000000e+00
1.398154e+02,0.000000e+00
1.427081e+02,0.000000e+00
1.456008e+02,0.000000e+00
1.484935e+02,0.000000e+00
1.513862e+02,0.000000e+00
1.542789e+02,0.000000e+00
1.571716e+02,0.000000e+00
1.600643e+02,0.000000e+00
1.629570e+02,0.000000e+00
1.658497e+02,0.000000e+00
1.687424e+02,0.000000e+00
1.716351e+02,0.000000e+00
1.745278e+02,0.000000e+00
1.774205e+02,0.000000e+00
1.803132e+02,0.000000e+00
1.832059e+02,0.000000e+00
1.860986e+02,0.000000e+00
1.889913e+02,0.000000e+00
1.918840e+02,0.000000e+00
1.947767e+02,0.000000e+00
1.976694e+02,0.000000e+00
2.005621e+02,6.640601e+03
2.034548e+02,6.648212e+03
2.063475e+02,6.667335e+03
2.092402e+02,6.652306e+03
2.121329e+02,6.628140e+03
2.150256e+02,6.656053e+03
2.179183e+02,6.651702e+03
2.208110e+02,6.620111e+03
2.237037e+02,6.620807e+03
2.265964e+02,6.608304e+03
2.294892e+02,6.609382e+03
2.323819e+02,6.623170e+03
2.352746e+02,6.620375e+03
2.381673e+02,6.636634e+03
2.410600e+02,6.601400e+03
2.439527e+02,6.582287e+03
2.468454e+02,6.589829e+03
2.497381e+02,6.592443e+03
2.526308e+02,6.589573e+03
2.555235e+02,6.592653e+03
2.584161e+02,6.562672e+03
2.613088e+02,6.552974e+03
2.642015e+02,6.573833e+03
2.670942e+02,6.542685e+03
2.699869e+02,6.568249e+03
2.728796e+02,6.541346e+03
2.757723e+02,6.533132e+03
2.786650e+02,6.556627e+03
2.815577e+02,6.533462e+03
2.844504e+02,6.542331e+03
2.873431e+02,6.533821e+03
2.902358e+02,6.499282e+03
2.931285e+02,6.498683e+03
2.960212e+02,6.487542e+03
2.989139e+02,6.485290e+03
3.018066e+02,6.481539e+03
3.046993e+02,6.461455e+03
3.075920e+02,6.487761e+03
3.104847e+02,6.461623e+03
3.133774e+02,6.475095e+03
3.162701e+02,6.461594e+03
3.191628e+02,6.452977e+03
3.220555e+02,6.428466e+03
3.249482e+02,6.436318e+03
3.278409e+02,6.429976e+03
3.307336e+02,6.418977e+03
3.336263e+02,6.449867e+03
3.365190e+02,6.403175e+03
3.394117e+02,6.400766e+03
3.423044e+02,6.385186e+03
3.451971e+02,6.398671e+03
3.480898e+02,6.372362e+03
3.509825e+02,6.371355e+03
3.538752e+02,6.361006e+03
3.567680e+02,6.359137e+03
3.596607e+02,6.370845e+03
3.625534e+02,6.368831e+03
3.654461e+02,6.325449e+03
3.683388e+02,6.344145e+03
3.712315e+02,6.353448e+03
3.741242e+02,6.345049e+03
3.770169e+02,6.335240e+03
3.799096e+02,6.328178e+03
3.828023e+02,6.312808e+03
3.856950e+02,6.289401e+03
3.885877e+02,6.278085e+03
3.914804e+02,6.287375e+03
3.943731e+02,6.264603e+03
3.972658e+02,6.257302e+03
4.001585e+02,6.260138e+03
4.030512e+02,6.266750e+03
4.059439e+02,6.249870e+03
4.088366e+02,6.235522e+03
4.117293e+02,6.238910e+03
4.146220e+02,6.214121e+03
4.175147e+02,6.199298e+03
4.204074e+02,6.237214e+03
4.233001e+02,6.208880e+03
4.261928e+02,6.199374e+03
4.290855e+02,6.202638e+03
4.319782e+02,6.185612e+03
4.348709e+02,6.182990e+03
4.377636e+02,6.166220e+03
4.406563e+02,6.170747e+03
4.435490e+02,6.174760e+03
4.464417e+02,6.147011e+03
4.493344e+02,6.152027e+03
4.522271e+02,6.128485e+03
4.551198e+02,6.123391e+03
4.580125e+02,6.133854e+03
4.609052e+02,6.122593e+03
4.637979e+02,6.105447e+03
4.666906e+02,6.120069e+03
4.695833e+02,6.113998e+03
4.724760e+02,6.087759e+03
4.753687e+02,6.088826e+03
4.782614e+02,6.080589e+03
4.811541e+02,6.096570e+03
4.840468e+02,6.107890e+03
4.869395e+02,6.101300e+03
4.898322e+02,6.085036e+03
4.927249e+02,6.068603e+03
4.956176e+02,6.029074e+03
4.985103e+02,6.060749e+03
5.014030e+02,6.039484e+03
5.042957e+02,6.026662e+03
5.071884e+02,6.032576e+03
5.100811e+02,6.010755e+03
5.129738e+02,6.025170e+03
5.158665e+02,5.983494e+03
5.187592e+02,5.989060e+03
5.216519e+02,5.974516e+03
5.245446e+02,5.982807e+03
5.274373e+02,5.973920e+03
5.303300e+02,5.972348e+03
5.332227e+02,5.935457e+03
5.361154e+02,5.944810e+03
5.390081e+02,5.922875e+03
5.419008e+02,5.918931e+03
5.447935e+02,5.936493e+03
5.476862e+02,5.925791e+03
5.505789e+02,5.910598e+03
5.534716e+02,5.910688e+03
5.563643e+02,5.909653e+03
5.592570e+02,5.901369e+03
5.621497e+02,5.898042e+03
5.650424e+02,5.891617e+03
5.679351e+02,5.877280e+03
5.708278e+02,5.845542e+03
5.737205e+02,5.858620e+03
5.766132e+02,5.864091e+03
5.795059e+02,5.865299e+03
5.823986e+02,5.852444e+03
5.852913e+02,5.825922e+03
5.881840e+02,5.819852e+03
5.910767e+02,5.824807e+03
5.939694e+02,5.822659e+03
5.968621e+02,5.841619e+03
5.997548e+02,5.810959e+03
6.026475e+02,5.790652e+03
6.055402e+02,5.799854e+03
6.084329e+02,5.806293e+03
6.113256e+02,5.773762e+03
6.142183e+02,5.768240e+03
6.171110e+02,5.776602e+03
6.200037e+02,5.766619e+03
6.228964e+02,5.753339e+03
6.257891e+02,5.746011e+03
6.286818e+02,5.733164e+03
6.315745e+02,5.733971e+03
6.344672e+02,5.729998e+03
6.373599e+02,5.701872e+03
6.402526e+02,5.710447e+03
6.431453e+02,5.687359e+03
6.460380e+02,5.694136e+03
6.489307e+02,5.702651e+03
6.518234e+02,5.702624e+03
6.547161e+02,5.682321e+03
6.576088e+02,5.682079e+03
6.605015e+02,5.673087e+03
6.633942e+02,5.661622e+03
6.662869e+02,5.667595e+03
6.691796e+02,5.676817e+03
6.720723e+02,5.682760e+03
6.749650e+02,5.647963e+03
6.778577e+02,5.608222e+03
6.807504e+02,5.601366e+03
6.836431e+02,5.615616e+03
6.865358e+02,5.602164e+03
6.894285e+02,5.604672e+03
6.923212e+02,5.612321e+03
6.952139e+02,5.606872e+03
6.981066e+02,5.612045e+03
7.009993e+02,5.611239e+03
7.038920e+02,5.575667e+03
7.067847e+02,5.564352e+03
7.096774e+02,5.578019e+03
7.125701e+02,5.573786e+03
7.154628e+02,5.555133e+03
7.183555e+02,5.543654e+03
7.212482e+02,5.537249e+03
7.241409e+02,5.541814e+03
7.270336e+02,5.534036e+03
7.299263e+02,5.513130e+03
7.328190e+02,5.513687e+03
7.357117e+02,5.519986e+03
7.386044e+02,5.514375e+03
7.414971e+02,5.494634e+03
7.443898e+02,5.522883e+03
7.472825e+02,5.513372e+03
7.501752e+02,5.481432e+03
7.530679e+02,5.477042e+03
7.559606e+02,5.479296e+03
7.588533e+02,5.465076e+03
7.617460e+02,5.466381e+03
7.646387e+02,5.440854e+03
7.675314e+02,5.454802e+03
7.704241e+02,5.436782e+03
7.733168e+02,5.449139e+03
7.762095e+02,5.447188e+03
7.791022e+02,5.428516e+03
7.819949e+02,5.414384e+03
7.848876e+02,5.425092e+03
7.877803e+02,5.399871e+03
7.906730e+02,5.397469e+03
7.935657e+02,5.409372e+03
7.964584e+02,5.372925e+03
7.993511e+02,5.379883e+03
8.022438e+02,5.371487e+03
8.051365e+02,5.373406e+03
8.080292e+02,5.389913e+03
8.109219e+02,5.374720e+03
8.138146e+02,5.359358e+03
8.167073e+02,5.365462e+03
8.196000e+02,5.332953e+03
8.224927e+02,5.326936e+03
8.253854e+02,5.330258e+03
8.282781e+02,5.340533e+03
8.311708e+02,5.329625e+03
8.340635e+02,5.333627e+03
8.369562e+02,5.304571e+03
8.398489e+02,5.303930e+03
8.427416e+02,5.304146e+03
8.456343e+02,5.278718e+03
8.485270e+02,5.295148e+03
8.514197e+02,5.276804e+03
8.543124e+02,5.282497e+03
8.572051e+02,5.273132e+03
8.600978e+02,5.260998e+03
8.629905e+02,5.253035e+03
8.658832e+02,5.253438e+03
8.687759e+02,5.246093e+03
8.716686e+02,5.252541e+03
8.745613e+02,5.246971e+03
8.774540e+02,5.236699e+03
8.803467e+02,5.248464e+03
8.832394e+02,5.247270e+03
8.861321e+02,5.260914e+03
8.890248e+02,5.224984e+03
8.919175e+02,5.231271e+03
8.948102e+02,5.221733e+03
8.977029e+02,5.209667e+03
9.005956e+02,5.179014e+03
9.034883e+02,5.196241e+03
9.063810e+02,5.169252e+03
9.092737e+02,5.173865e+03
9.121664e+02,5.154935e+03
9.150591e+02,5.154898e+03
9.179518e+02,5.144903e+03
9.208445e+02,5.141639e+03
9.237372e+02,5.119169e+03
9.266299e+02,5.131947e+03
9.295226e+02,5.137539e+03
9.324153e+02,5.131640e+03
9.353080e+02,5.119928e+03
9.382007e+02,5.098763e+03
9.410934e+02,5.110830e+03
9.439861e+02,5.108703e+03
9.468788e+02,5.110935e+03
9.497715e+02,5.099513e+03
9.526642e+02,5.068721e+03
9.555569e+02,5.060242e+03
9.584496e+02,5.050150e+03
9.613423e+02,5.067791e+03
9.642350e+02,5.075879e+03
9.671277e+02,5.064384e+03
9.700204e+02,5.051060e+03
9.729131e+02,5.004714e+03
9.758058e+02,5.048332e+03
9.786985e+02,5.033351e+03
9.815912e+02,5.031116e+03
9.844839e+02,4.993571e+03
9.873766e+02,5.000568e+03
9.902693e+02,5.004990e+03
9.931620e+02,5.016308e+03
9.960547e+02,5.003461e+03
9.989474e+02,4.988877e+03
1.001840e+03,4.987446e+03
1.004733e+03,4.974154e+03
1.007626e+03,4.987374e+03
1.010518e+03,4.980214e+03
1.013411e+03,4.951291e+03
1.016304e+03,4.957576e+03
1.019196e+03,4.957085e+03
1.022089e+03,4.963882e+03
1.024982e+03,4.941792e+03
1.027875e+03,4.928361e+03
1.030767e+03,4.930904e+03
1.033660e+03,4.914391e+03
1.036552e+03,4.926425e+03
1.039445e+03,4.931126e+03
1.042338e+03,4.930126e+03
1.045231e+03,4.923532e+03
1.048123e+03,4.884419e+03
1.051016e+03,4.911701e+03
1.053909e+03,4.893205e+03
1.056802e+03,4.894465e+03
1.059694e+03,4.866543e+03
1.062587e+03,4.856743e+03
1.065479e+03,4.876148e+03
1.068372e+03,4.856084e+03
1.071265e+03,4.868985e+03
1.074158e+03,4.857212e+03
1.077050e+03,4.858441e+03
1.079943e+03,4.847464e+03
1.082836e+03,4.837575e+03
1.085729e+03,4.862700e+03
1.088621e+03,4.866970e+03
1.091514e+03,4.848679e+03
1.094406e+03,4.831602e+03
1.097299e+03,4.824440e+03
1.100192e+03,4.823483e+03
1.103085e+03,4.814170e+03
1.105977e+03,4.806198e+03
1.108870e+03,4.817113e+03
1.111763e+03,4.810056e+03
1.114656e+03,4.821792e+03
1.117548e+03,4.827696e+03
1.120441e+03,4.834472e+03
1.123334e+03,4.816890e+03
1.126226e+03,4.803124e+03
1.129119e+03,4.794218e+03
1.132012e+03,4.799831e+03
1.134904e+03,4.780550e+03
1.137797e+03,4.786267e+03
1.140690e+03,4.773195e+03
1.143583e+03,4.767821e+03
1.146475e+03,4.776525e+03
1.149368e+03,4.779612e+03
1.152261e+03,4.774148e+03
1.155153e+03,4.756274e+03
1.158046e+03,4.741024e+03
1.160939e+03,4.723492e+03
1.163831e+03,4.733218e+03
1.166724e+03,4.717256e+03
1.169617e+03,4.720273e+03
1.172510e+03,4.711500e+03
1.175402e+03,4.693724e+03
1.178295e+03,4.689358e+03
1.181188e+03,4.682958e+03
1.184080e+03,4.692089e+03
1.186973e+03,4.671392e+03
1.189866e+03,4.667023e+03
1.192758e+03,4.678455e+03
1.195651e+03,4.688000e+03
1.198544e+03,4.671268e+03
1.201437e+03,4.647309e+03
1.204329e+03,4.636606e+03
1.207222e+03,4.637073e+03
1.210115e+03,4.634745e+03
1.213007e+03,4.633062e+03
1.215900e+03,4.632503e+03
1.218793e+03,4.630506e+03
1.221685e+03,4.609605e+03
1.224578e+03,4.627312e+03
1.227471e+03,4.603458e+03
1.230364e+03,4.596208e+03
1.233256e+03,4.564377e+03
1.236149e+03,4.588873e+03
1.239042e+03,4.616765e+03
1.241934e+03,4.588290e+03
1.244827e+03,4.585356e+03
1.247720e+03,4.560794e+03
1.250612e+03,4.565140e+03
1.253505e+03,4.566557e+03
1.256398e+03,4.556698e+03
1.259291e+03,4.574880e+03
1.262183e+03,4.549566e+03
1.265076e+03,4.533651e+03
1.267969e+03,4.525104e+03
1.270861e+03,4.563481e+03
1.273754e+03,4.571311e+03
1.276647e+03,4.563639e+03
1.279539e+03,4.541634e+03
1.282432e+03,4.531705e+03
1.285325e+03,4.533663e+03
1.288218e+03,4.556421e+03
1.291110e+03,4.511710e+03
1.294003e+03,4.497144e+03
1.296896e+03,4.495432e+03
1.299788e+03,4.490389e+03
1.302681e+03,4.502445e+03
1.305574e+03,4.489508e+03
1.308466e+03,4.468745e+03
1.311359e+03,4.474375e+03
1.314252e+03,4.465643e+03
1.317145e+03,4.481756e+03
1.320037e+03,4.479432e+03
1.322930e+03,4.469353e+03
1.325823e+03,4.449033e+03
1.328715e+03,4.440267e+03
1.331608e+03,4.471894e+03
1.334501e+03,4.466684e+03
1.337393e+03,4.461784e+03
1.340286e+03,4.449860e+03
1.343179e+03,4.436783e+03
1.346072e+03,4.430445e+03
1.348964e+03,4.428231e+03
1.351857e+03,4.412964e+03
1.354750e+03,4.412679e+03
1.357642e+03,4.408607e+03
1.360535e+03,4.388411e+03
1.363428e+03,4.385191e+03
1.366320e+03,4.382605e+03
1.369213e+03,4.390877e+03
1.372106e+03,4.378765e+03
1.374999e+03,4.364590e+03
1.377891e+03,4.354432e+03
1.380784e+03,4.354435e+03
1.383677e+03,4.339568e+03
1.386569e+03,4.344308e+03
1.389462e+03,4.319956e+03
1.392355e+03,4.306779e+03
1.395247e+03,4.309126e+03
1.398140e+03,4.322954e+03
1.401033e+03,4.286601e+03
1.403926e+03,4.305081e+03
1.406818e+03,4.283182e+03
1.409711e+03,4.284248e+03
1.412604e+03,4.286204e+03
1.415496e+03,4.270409e+03
1.418389e+03,4.268737e+03
1.421282e+03,4.257132e+03
1.424174e+03,4.248948e+03
1.427067e+03,4.230156e+03
1.429960e+03,4.243385e+03
1.432853e+03,4.236263e+03
1.435745e+03,4.206870e+03
1.438638e+03,4.204774e+03
1.441531e+03,4.192989e+03
1.444423e+03,4.183938e+03
1.447316e+03,4.187091e+03
1.450209e+03,4.185661e+03
1.453101e+03,4.165724e+03
1.455994e+03,4.162527e+03
1.458887e+03,4.168124e+03
1.461780e+03,4.157558e+03
1.464672e+03,4.140777e+03
1.467565e+03,4.138915e+03
1.470458e+03,4.151039e+03
1.473350e+03,4.142229e+03
1.476243e+03,4.133570e+03
1.479136e+03,4.133498e+03
1.482028e+03,4.113866e+03
1.484921e+03,4.102467e+03
1.487814e+03,4.112729e+03
1.490707e+03,4.097414e+03
1.493599e+03,4.096440e+03
1.496492e+03,4.096683e+03
1.499385e+03,4.094162e+03
1.502277e+03,4.088184e+03
1.505170e+03,4.103014e+03
1.508063e+03,4.098638e+03
1.510955e+03,4.071255e+03
1.513848e+03,4.040482e+03
1.516741e+03,4.068259e+03
1.519634e+03,4.048866e+03
1.522526e+03,4.043991e+03
1.525419e+03,4.052286e+03
1.528312e+03,4.039629e+03
1.531204e+03,4.058755e+03
1.534097e+03,4.021894e+03
1.536990e+03,4.012951e+03
1.539882e+03,4.005614e+03
1.542775e+03,3.994636e+03
1.545668e+03,3.999933e+03
1.548561e+03,4.001344e+03
1.551453e+03,3.984165e+03
1.554346e+03,4.012595e+03
1.557239e+03,4.014192e+03
1.560131e+03,3.997751e+03
1.563024e+03,3.988895e+03
1.565917e+03,3.997732e+03
1.568809e+03,3.983845e+03
1.571702e+03,3.998387e+03
1.574595e+03,3.973643e+03
1.577488e+03,3.962845e+03
1.580380e+03,3.962360e+03
1.583273e+03,3.975347e+03
1.586166e+03,3.970702e+03
1.589058e+03,3.968225e+03
1.591951e+03,3.948566e+03
1.594844e+03,3.931370e+03
1.597736e+03,3.940172e+03
1.600629e+03,3.942111e+03
1.603522e+03,3.899489e+03
1.606415e+03,3.909417e+03
1.609307e+03,3.921703e+03
1.612200e+03,3.893283e+03
1.615093e+03,3.877659e+03
1.617985e+03,3.872025e+03
1.620878e+03,3.868576e+03
1.623771e+03,3.854035e+03
1.626663e+03,3.822931e+03
1.629556e+03,3.835741e+03
1.632449e+03,3.814863e+03
1.635342e+03,3.815713e+03
1.638234e+03,3.818772e+03
1.641127e+03,3.795858e+03
1.644020e+03,3.805253e+03
1.646912e+03,3.761053e+03
1.649805e+03,3.767820e+03
1.652698e+03,3.755996e+03
1.655590e+03,3.742267e+03
1.658483e+03,3.755366e+03
1.661376e+03,3.729114e+03
1.664269e+03,3.719591e+03
1.667161e+03,3.732022e+03
1.670054e+03,3.708988e+03
1.672947e+03,3.714171e+03
1.675839e+03,3.702639e+03
1.678732e+03,3.708502e+03
1.681625e+03,3.676079e+03
1.684517e+03,3.679257e+03
1.687410e+03,3.683245e+03
1.690303e+03,3.685523e+03
1.693196e+03,3.671601e+03
1.696088e+03,3.669210e+03
1.698981e+03,3.671320e+03
1.701874e+03,3.652135e+03
1.704766e+03,3.655635e+03
1.707659e+03,3.644694e+03
1.710552e+03,3.637460e+03
1.713444e+03,3.611582e+03
1.716337e+03,3.632059e+03
1.719230e+03,3.612626e+03
1.722123e+03,3.618208e+03
1.725015e+03,3.595083e+03
1.727908e+03,3.588245e+03
1.730801e+03,3.590039e+03
1.733693e+03,3.580406e+03
1.736586e+03,3.593635e+03
1.739479e+03,3.578011e+03
1.742371e+03,3.547740e+03
1.745264e+03,3.566247e+03
1.748157e+03,3.552184e+03
1.751050e+03,3.552762e+03
1.753942e+03,3.548118e+03
1.756835e+03,3.520393e+03
1.759728e+03,3.558733e+03
1.762620e+03,3.539088e+03
1.765513e+03,3.522215e+03
1.768406e+03,3.517962e+03
1.771298e+03,3.518179e+03
1.774191e+03,3.544470e+03
1.777084e+03,3.481569e+03
1.779977e+03,3.504839e+03
1.782869e+03,3.497816e+03
1.785762e+03,3.488034e+03
1.788655e+03,3.452681e+03
1.791547e+03,3.475765e+03
1.794440e+03,3.459381e+03
1.797333e+03,3.453097e+03
1.800225e+03,3.449702e+03
1.803118e+03,3.456056e+03
1.806011e+03,3.427892e+03
1.808904e+03,3.425218e+03
1.811796e+03,3.436113e+03
1.814689e+03,3.427269e+03
1.817582e+03,3.445817e+03
1.820474e+03,3.401468e+03
1.823367e+03,3.412287e+03
1.826260e+03,3.394790e+03
1.829152e+03,3.385252e+03
1.832045e+03,3.419667e+03
1.834938e+03,3.408402e+03
1.837831e+03,3.388941e+03
1.840723e+03,3.363495e+03
1.843616e+03,3.372600e+03
1.846509e+03,3.376840e+03
1.849401e+03,3.353287e+03
1.852294e+03,3.365288e+03
1.855187e+03,3.347156e+03
1.858079e+03,3.330208e+03
1.860972e+03,3.366413e+03
1.863865e+03,3.340835e+03
1.866758e+03,3.321953e+03
1.869650e+03,3.311975e+03
1.872543e+03,3.322068e+03
1.875436e+03,3.287378e+03
1.878328e+03,3.313333e+03
1.881221e+03,3.288750e+03
1.884114e+03,3.268319e+03
1.887006e+03,3.267649e+03
1.889899e+03,3.267210e+03
1.892792e+03,3.270050e+03
1.895685e+03,3.253975e+03
1.898577e+03,3.280095e+03
1.901470e+03,3.232222e+03
1.904363e+03,3.231247e+03
1.907255e+03,3.251635e+03
1.910148e+03,3.225016e+03
1.913041e+03,3.242158e+03
1.915933e+03,3.231133e+03
1.918826e+03,3.196427e+03
1.921719e+03,3.216658e+03
1.924612e+03,3.202190e+03
1.927504e+03,3.200677e+03
1.930397e+03,3.210179e+03
1.933290e+03,3.172218e+03
1.936182e+03,3.172985e+03
1.939075e+03,3.161082e+03
1.941968e+03,3.186736e+03
1.944860e+03,3.170948e+03
1.947753e+03,3.153068e+03
1.950646e+03,3.174570e+03
1.953539e+03,3.160617e+03
1.956431e+03,3.158666e+03
1.959324e+03,3.143912e+03
1.962217e+03,3.127928e+03
1.965109e+03,3.119359e+03
1.968002e+03,3.116219e+03
1.970895e+03,3.133321e+03
1.973787e+03,3.131066e+03
1.976680e+03,3.085651e+03
1.979573e+03,3.109365e+03
1.982466e+03,3.098213e+03
1.985358e+03,3.094048e+03
1.988251e+03,3.073339e+03
1.991144e+03,3.066868e+03
1.994036e+03,3.051132e+03
1.996929e+03,3.059797e+03
1.999822e+03,3.072969e+03
2.002714e+03,3.061874e+03
2.005607e+03,3.060771e+03
2.008500e+03,3.042298e+03
2.011393e+03,3.040566e+03
2.014285e+03,3.033547e+03
2.017178e+03,3.026212e+03
2.020071e+03,2.996894e+03
2.022963e+03,3.020675e+03
2.025856e+03,3.002610e+03
2.028749e+03,2.981089e+03
2.031641e+03,3.003095e+03
2.034534e+03,2.997663e+03
2.037427e+03,2.987605e+03
2.040320e+03,2.975138e+03
2.043212e+03,2.956512e+03
2.046105e+03,2.966354e+03
2.048998e+03,2.969415e+03
2.051890e+03,2.959711e+03
2.054783e+03,2.962714e+03
2.057676e+03,2.924156e+03
2.060568e+03,2.939913e+03
2.063461e+03,2.930995e+03
2.066354e+03,2.944484e+03
2.069247e+03,2.937798e+03
2.072139e+03,2.898359e+03
2.075032e+03,2.892533e+03
2.077925e+03,2.899330e+03
2.080817e+03,2.898420e+03
2.083710e+03,2.887945e+03
2.086603e+03,2.869728e+03
2.089496e+03,2.862330e+03
2.092388e+03,2.900768e+03
2.095281e+03,2.855163e+03
2.098174e+03,2.858683e+03
2.101066e+03,2.838573e+03
2.103959e+03,2.830079e+03
2.106852e+03,2.836312e+03
2.109744e+03,2.869720e+03
2.112637e+03,2.825634e+03
2.115530e+03,2.809958e+03
2.118422e+03,2.810973e+03
2.121315e+03,2.831065e+03
2.124208e+03,2.836850e+03
2.127101e+03,2.806939e+03
2.129993e+03,2.777555e+03
2.132886e+03,2.792540e+03
2.135779e+03,2.772600e+03
2.138671e+03,2.781957e+03
2.141564e+03,2.775840e+03
2.144457e+03,2.763624e+03
2.147350e+03,2.727355e+03
2.150242e+03,2.762524e+03
2.153135e+03,2.758610e+03
2.156028e+03,2.742849e+03
2.158920e+03,2.720649e+03
2.161813e+03,2.730719e+03
2.164706e+03,2.712544e+03
2.167598e+03,2.697793e+03
2.170491e+03,2.729165e+03
2.173384e+03,2.701127e+03
2.176277e+03,2.703629e+03
2.179169e+03,2.684694e+03
2.182062e+03,2.684844e+03
2.184955e+03,2.671501e+03
2.187847e+03,2.664744e+03
2.190740e+03,2.671537e+03
2.193633e+03,2.652787e+03
2.196525e+03,2.656491e+03
2.199418e+03,2.653826e+03
2.202311e+03,2.646543e+03
2.205204e+03,2.644267e+03
2.208096e+03,2.638302e+03
2.210989e+03,2.624843e+03
2.213882e+03,2.622505e+03
2.216774e+03,2.625390e+03
2.219667e+03,2.624023e+03
2.222560e+03,2.597971e+03
2.225452e+03,2.596804e+03
2.228345e+03,2.573304e+03
2.231238e+03,2.618809e+03
2.234131e+03,2.586886e+03
2.237023e+03,2.586029e+03
2.239916e+03,2.575960e+03
2.242809e+03,2.548194e+03
2.245701e+03,2.558266e+03
2.248594e+03,2.539311e+03
2.251487e+03,2.562113e+03
2.254379e+03,2.586161e+03
2.257272e+03,2.539983e+03
2.260165e+03,2.520882e+03
2.263058e+03,2.522565e+03
2.265950e+03,2.523534e+03
2.268843e+03,2.483978e+03
2.271736e+03,2.498883e+03
2.274628e+03,2.508219e+03
2.277521e+03,2.496969e+03
2.280414e+03,2.512335e+03
2.283306e+03,2.468519e+03
2.286199e+03,2.456576e+03
2.289092e+03,2.475742e+03
2.291985e+03,2.479162e+03
2.294877e+03,2.465030e+03
2.297770e+03,2.463096e+03
2.300663e+03,2.459448e+03
2.303555e+03,2.460161e+03
2.306448e+03,2.433505e+03
2.309341e+03,2.432898e+03
2.312233e+03,2.413215e+03
2.315126e+03,2.412132e+03
2.318019e+03,2.411137e+03
2.320912e+03,2.413630e+03
2.323804e+03,2.403662e+03
2.326697e+03,2.406877e+03
2.329590e+03,2.382171e+03
2.332482e+03,2.377390e+03
2.335375e+03,2.404709e+03
2.338268e+03,2.356528e+03
2.341160e+03,2.376302e+03
2.344053e+03,2.367241e+03
2.346946e+03,2.359816e+03
2.349839e+03,2.365223e+03
2.352731e+03,2.343666e+03
2.355624e+03,2.347495e+03
2.358517e+03,2.347697e+03
2.361409e+03,2.345928e+03
2.364302e+03,2.328886e+03
2.367195e+03,2.327521e+03
2.370087e+03,2.326028e+03
2.372980e+03,2.311699e+03
2.375873e+03,2.327678e+03
2.378766e+03,2.315097e+03
2.381658e+03,2.288878e+03
2.384551e+03,2.292485e+03
2.387444e+03,2.286633e+03
2.390336e+03,2.295161e+03
2.393229e+03,2.303144e+03
2.396122e+03,2.274374e+03
2.399014e+03,2.272795e+03
2.401907e+03,2.262556e+03
2.404800e+03,2.277198e+03
2.407693e+03,2.269083e+03
2.410585e+03,2.264565e+03
2.413478e+03,2.253331e+03
2.416371e+03,2.246216e+03
2.419263e+03,2.225251e+03
2.422156e+03,2.246747e+03
2.425049e+03,2.225271e+03
2.427941e+03,2.221018e+03
2.430834e+03,2.222193e+03
2.433727e+03,2.194144e+03
2.436620e+03,2.208059e+03
2.439512e+03,2.195265e+03
2.442405e+03,2.192067e+03
2.445298e+03,2.192670e+03
2.448190e+03,2.178692e+03
2.451083e+03,2.195341e+03
2.453976e+03,2.179774e+03
2.456868e+03,2.196804e+03
2.459761e+03,2.172638e+03
2.462654e+03,2.173300e+03
2.465547e+03,2.162684e+03
2.468439e+03,2.162792e+03
2.471332e+03,2.181513e+03
2.474225e+03,2.136446e+03
2.477117e+03,2.133955e+03
2.480010e+03,2.161779e+03
2.482903e+03,2.136253e+03
2.485795e+03,2.129664e+03
2.488688e+03,2.122553e+03
2.491581e+03,2.128024e+03
2.494474e+03,2.122263e+03
2.497366e+03,2.135983e+03
2.500259e+03,2.122746e+03
2.503152e+03,2.102970e+03
2.506044e+03,2.118708e+03
2.508937e+03,2.089073e+03
2.511830e+03,2.094263e+03
2.514722e+03,2.104463e+03
2.517615e+03,2.089650e+03
2.520508e+03,2.073952e+03
2.523401e+03,2.053413e+03
2.526293e+03,2.085200e+03
2.529186e+03,2.075466e+03
2.532079e+03,2.073349e+03
2.534971e+03,2.060030e+03
2.537864e+03,2.045890e+03
2.540757e+03,2.047406e+03
2.543649e+03,2.067425e+03
2.546542e+03,2.056990e+03
2.549435e+03,2.055959e+03
2.552328e+03,2.039482e+03
2.555220e+03,2.052449e+03
2.558113e+03,2.042402e+03
2.561006e+03,2.049934e+03
2.563898e+03,2.023366e+03
2.566791e+03,2.004263e+03
2.569684e+03,2.020926e+03
2.572576e+03,2.008929e+03
2.575469e+03,2.018693e+03
2.578362e+03,1.989925e+03
2.581255e+03,2.020002e+03
2.584147e+03,1.988491e+03
2.587040e+03,1.983276e+03
2.589933e+03,1.990873e+03
2.592825e+03,2.003574e+03
2.595718e+03,1.992463e+03
2.598611e+03,1.984568e+03
2.601503e+03,1.983314e+03
2.604396e+03,1.979905e+03
2.607289e+03,1.959772e+03
2.610182e+03,1.950068e+03
2.613074e+03,1.955776e+03
2.615967e+03,1.942154e+03
2.618860e+03,1.935209e+03
2.621752e+03,1.981309e+03
2.624645e+03,1.939075e+03
2.627538e+03,1.951977e+03
2.630430e+03,1.935236e+03
2.633323e+03,1.937695e+03
2.636216e+03,1.926842e+03
2.639109e+03,1.932722e+03
2.642001e+03,1.948745e+03
2.644894e+03,1.911001e+03
2.647787e+03,1.918915e+03
2.650679e+03,1.910089e+03
2.653572e+03,1.917956e+03
2.656465e+03,1.899596e+03
2.659357e+03,1.893141e+03
2.662250e+03,1.876799e+03
2.665143e+03,1.897830e+03
2.668036e+03,1.903899e+03
2.670928e+03,1.894621e+03
2.673821e+03,1.874204e+03
2.676714e+03,1.867160e+03
2.679606e+03,1.859107e+03
2.682499e+03,1.865829e+03
2.685392e+03,1.869103e+03
2.688284e+03,1.859333e+03
2.691177e+03,1.861633e+03
2.694070e+03,1.870318e+03
2.696963e+03,1.874555e+03
2.699855e+03,1.857051e+03
2.702748e+03,1.858656e+03
2.705641e+03,1.851202e+03
2.708533e+03,1.845609e+03
2.711426e+03,1.832262e+03
2.714319e+03,1.831716e+03
2.717211e+03,1.810975e+03
2.720104e+03,1.840415e+03
2.722997e+03,1.841537e+03
2.725890e+03,1.818926e+03
2.728782e+03,1.833063e+03
2.731675e+03,1.809935e+03
2.734568e+03,1.832946e+03
2.737460e+03,1.829458e+03
2.740353e+03,1.822657e+03
2.743246e+03,1.820081e+03
2.746138e+03,1.812217e+03
2.749031e+03,1.802732e+03
2.751924e+03,1.800848e+03
2.754817e+03,1.772214e+03
2.757709e+03,1.803684e+03
2.760602e+03,1.796193e+03
2.763495e+03,1.791737e+03
2.766387e+03,1.782640e+03
2.769280e+03,1.778209e+03
2.772173e+03,1.792594e+03
2.775065e+03,1.753495e+03
2.777958e+03,1.769189e+03
2.780851e+03,1.781018e+03
2.783744e+03,1.780721e+03
2.786636e+03,1.760072e+03
2.789529e+03,1.766904e+03
2.792422e+03,1.756931e+03
2.795314e+03,1.742310e+03
2.798207e+03,1.777645e+03
2.801100e+03,1.726714e+03
2.803992e+03,1.759742e+03
2.806885e+03,1.744217e+03
2.809778e+03,1.731641e+03
2.812671e+03,1.728329e+03
2.815563e+03,1.735272e+03
2.818456e+03,1.744275e+03
2.821349e+03,1.739634e+03
2.824241e+03,1.733075e+03
2.827134e+03,1.719689e+03
2.830027e+03,1.725324e+03
2.832919e+03,1.725945e+03
2.835812e+03,1.718771e+03
2.838705e+03,1.718664e+03
2.841598e+03,1.696585e+03
2.844490e+03,1.706981e+03
2.847383e+03,1.704327e+03
2.850276e+03,1.701609e+03
2.853168e+03,1.704434e+03
2.856061e+03,1.727942e+03
2.858954e+03,1.724342e+03
2.861846e+03,1.693616e+03
2.864739e+03,1.717291e+03
2.867632e+03,1.688500e+03
2.870525e+03,1.712208e+03
2.873417e+03,1.682292e+03
2.876310e+03,1.681588e+03
2.879203e+03,1.691781e+03
2.882095e+03,1.700937e+03
2.884988e+03,1.703328e+03
2.887881e+03,1.678462e+03
2.890773e+03,1.691226e+03
2.893666e+03,1.672498e+03
2.896559e+03,1.671873e+03
2.899452e+03,1.667928e+03
2.902344e+03,1.697908e+03
2.905237e+03,1.671096e+03
2.908130e+03,1.672375e+03
2.911022e+03,1.676730e+03
2.913915e+03,1.646845e+03
2.916808e+03,1.656794e+03
2.919700e+03,1.655773e+03
2.922593e+03,1.664965e+03
2.925486e+03,1.640252e+03
2.928379e+03,1.663636e+03
2.931271e+03,1.642458e+03
2.934164e+03,1.661965e+03
2.937057e+03,1.626372e+03
2.939949e+03,1.622809e+03
2.942842e+03,1.626987e+03
2.945735e+03,1.659101e+03
2.948627e+03,1.624914e+03
2.951520e+03,1.648395e+03
2.954413e+03,1.629437e+03
2.957306e+03,1.657453e+03
2.960198e+03,1.623462e+03
2.963091e+03,1.617198e+03
2.965984e+03,1.586952e+03
2.968876e+03,1.608059e+03
2.971769e+03,1.586776e+03
2.974662e+03,1.573626e+03
2.977554e+03,1.609301e+03
2.980447e+03,1.560204e+03
2.983340e+03,1.612931e+03
2.986233e+03,1.550921e+03
2.989125e+03,1.584281e+03
2.992018e+03,1.587444e+03
2.994911e+03,1.589831e+03
2.997803e+03,1.552178e+03
3.000696e+03,1.541937e+03
3.003589e+03,1.550791e+03
3.006481e+03,1.585392e+03
3.009374e+03,1.567011e+03
3.012267e+03,1.592108e+03
3.015160e+03,1.550217e+03
3.018052e+03,1.581667e+03
3.020945e+03,1.578817e+03
3.023838e+03,1.599417e+03
3.026730e+03,1.562591e+03
3.029623e+03,1.593099e+03
3.032516e+03,1.543784e+03
3.035408e+03,1.537672e+03
3.038301e+03,1.562488e+03
3.041194e+03,1.548268e+03
3.044087e+03,1.515267e+03
3.046979e+03,1.484734e+03
3.049872e+03,1.538322e+03
3.052765e+03,1.510090e+03
3.055657e+03,1.578859e+03
3.058550e+03,1.593251e+03
3.061443e+03,1.526092e+03
3.064335e+03,1.498540e+03
3.067228e+03,1.534261e+03
3.070121e+03,1.554446e+03
3.073014e+03,1.587017e+03
3.075906e+03,1.527955e+03
3.078799e+03,1.496807e+03
3.081692e+03,1.500966e+03
3.084584e+03,1.534685e+03
3.087477e+03,1.538145e+03
3.090370e+03,1.511689e+03
3.093262e+03,1.546207e+03
3.096155e+03,1.525426e+03
3.099048e+03,1.518691e+03
3.101941e+03,1.512933e+03
3.104833e+03,1.518281e+03
3.107726e+03,1.526068e+03
3.110619e+03,1.501742e+03
3.113511e+03,1.479082e+03
3.116404e+03,1.507789e+03
3.119297e+03,1.526306e+03
3.122189e+03,1.491054e+03
3.125082e+03,1.504688e+03
3.127975e+03,1.470594e+03
3.130868e+03,1.533155e+03
3.133760e+03,1.470331e+03
3.136653e+03,1.552104e+03
3.139546e+03,1.538053e+03
3.142438e+03,1.525435e+03
3.145331e+03,1.493786e+03
3.148224e+03,1.467319e+03
3.151116e+03,1.523033e+03
3.154009e+03,1.512639e+03
3.156902e+03,1.529426e+03
3.159795e+03,1.570430e+03
3.162687e+03,1.541429e+03
3.165580e+03,1.473624e+03
3.168473e+03,1.510427e+03
3.171365e+03,1.500889e+03
3.174258e+03,1.565005e+03
3.177151e+03,1.508419e+03
3.180043e+03,1.500237e+03
3.182936e+03,1.499933e+03
3.185829e+03,1.533981e+03
3.188722e+03,1.509262e+03
3.191614e+03,1.481832e+03
3.194507e+03,1.487481e+03
3.197400e+03,1.530399e+03
3.200292e+03,1.543121e+03
3.203185e+03,0.000000e+00
3.206078e+03,0.000000e+00
3.208970e+03,0.000000e+00
3.211863e+03,0.000000e+00
3.214756e+03,0.000000e+00
3.217649e+03,0.000000e+00
3.220541e+03,0.000000e+00
3.223434e+03,0.000000e+00
3.226327e+03,0.000000e+00
3.229219e+03,0.000000e+00
3.232112e+03,0.000000e+00
3.235005e+03,0.000000e+00
3.237897e+03,0.000000e+00
3.240790e+03,0.000000e+00
3.243683e+03,0.000000e+00
3.246576e+03,0.000000e+00
3.249468e+03,0.000000e+00
3.252361e+03,0.000000e+00
3.255254e+03,0.000000e+00
3.258146e+03,0.000000e+00
3.261039e+03,0.000000e+00
3.263932e+03,0.000000e+00
3.266824e+03,0.000000e+00
3.269717e+03,0.000000e+00
3.272610e+03,0.000000e+00
3.275503e+03,0.000000e+00
3.278395e+03,0.000000e+00
3.281288e+03,0.000000e+00
3.284181e+03,0.000000e+00
3.287073e+03,0.000000e+00
3.289966e+03,0.000000e+00
3.292859e+03,0.000000e+00
3.295751e+03,0.000000e+00
3.298644e+03,0.000000e+00
3.301537e+03,0.000000e+00
3.304430e+03,0.000000e+00
3.307322e+03,0.000000e+00
3.310215e+03,0.000000e+00
3.313108e+03,0.000000e+00
3.316000e+03,0.000000e+00
3.318893e+03,0.000000e+00
3.321786e+03,0.000000e+00
3.324678e+03,0.000000e+00
3.327571e+03,0.000000e+00
3.330464e+03,0.000000e+00
3.333357e+03,0.000000e+00
3.336249e+03,0.000000e+00
3.339142e+03,0.000000e+00
3.342035e+03,0.000000e+00
3.344927e+03,0.000000e+00
3.347820e+03,0.000000e+00
3.350713e+03,0.000000e+00
3.353605e+03,0.000000e+00
3.356498e+03,0.000000e+00
3.359391e+03,0.000000e+00
3.362284e+03,0.000000e+00
3.365176e+03,0.000000e+00
3.368069e+03,0.000000e+00
3.370962e+03,0.000000e+00
3.373854e+03,0.000000e+00
3.376747e+03,0.000000e+00
3.379640e+03,0.000000e+00
3.382532e+03,0.000000e+00
3.385425e+03,0.000000e+00
3.388318e+03,0.000000e+00
3.391211e+03,0.000000e+00
3.394103e+03,0.000000e+00
3.396996e+03,0.000000e+00
3.399889e+03,0.000000e+00
3.402781e+03,0.000000e+00
3.405674e+03,0.000000e+00
3.408567e+03,0.000000e+00
3.411459e+03,0.000000e+00
3.414352e+03,0.000000e+00
3.417245e+03,0.000000e+00
3.420138e+03,0.000000e+00
3.423030e+03,0.000000e+00
3.425923e+03,0.000000e+00
3.428816e+03,0.000000e+00
3.431708e+03,0.000000e+00
3.434601e+03,0.000000e+00
3.437494e+03,0.000000e+00
3.440386e+03,0.000000e+00
3.443279e+03,0.000000e+00
3.446172e+03,0.000000e+00
3.449065e+03,0.000000e+00
3.451957e+03,0.000000e+00
3.454850e+03,0.000000e+00
3.457743e+03,0.000000e+00
3.460635e+03,0.000000e+00
3.463528e+03,0.000000e+00
3.466421e+03,0.000000e+00
3.469313e+03,0.000000e+00
3.472206e+03,0.000000e+00
3.475099e+03,0.000000e+00
3.477992e+03,0.000000e+00
3.480884e+03,0.000000e+00
3.483777e+03,0.000000e+00
3.486670e+03,0.000000e+00
3.489563e+03,0.000000e+00
3.492455e+03,0.000000e+00
3.495348e+03,0.000000e+00
3.498240e+03,0.000000e+00
3.500169e+03,0.000000e+00