File: RAMAN_data/13042023_r1/black fibre1.CSV
9.931763e+01,0.000000e+00
1.022103e+02,0.000000e+00
1.051030e+02,0.000000e+00
1.079957e+02,0.000000e+00
1.108884e+02,0.000000e+00
1.137811e+02,0.000000e+00
1.166738e+02,0.000000e+00
1.195665e+02,0.000000e+00
1.224592e+02,0.000000e+00
1.253519e+02,0.000000e+00
1.282446e+02,0.000000e+00
1.311373e+02,0.000000e+00
1.340300e+02,0.000000e+00
1.369227e+02,0.000000e+00
1.398154e+02,0.000000e+00
1.427081e+02,0.000000e+00
1.456008e+02,0.000000e+00
1.484935e+02,0.000000e+00
1.513862e+02,0.000000e+00
1.542789e+02,0.000000e+00
1.571716e+02,0.000000e+00
1.600643e+02,0.000000e+00
1.629570e+02,0.000000e+00
1.658497e+02,0.000000e+00
1.687424e+02,0.000000e+00
1.716351e+02,0.000000e+00
1.745278e+02,0.000000e+00
1.774205e+02,0.000000e+00
1.803132e+02,0.000000e+00
1.832059e+02,0.000000e+00
1.860986e+02,0.000000e+00
1.889913e+02,0.000000e+00
1.918840e+02,0.000000e+00
1.947767e+02,0.000000e+00
1.976694e+02,0.000000e+00
2.005621e+02,1.047981e+04
2.034548e+02,1.052034e+04
2.063475e+02,1.054905e+04
2.092402e+02,1.055023e+04
2.121329e+02,1.055114e+04
2.150256e+02,1.057994e+04
2.179183e+02,1.060919e+04
2.208110e+02,1.066058e+04
2.237037e+02,1.067718e+04
2.265964e+02,1.068749e+04
2.294892e+02,1.071674e+04
2.323819e+02,1.076485e+04
2.352746e+02,1.080180e+04
2.381673e+02,1.083688e+04
2.410600e+02,1.083374e+04
2.439527e+02,1.085114e+04
2.468454e+02,1.088743e+04
2.497381e+02,1.092293e+04
2.526308e+02,1.095972e+04
2.555235e+02,1.097477e+04
2.584161e+02,1.097703e+04
2.613088e+02,1.102010e+04
2.642015e+02,1.107264e+04
2.670942e+02,1.109793e+04
2.699869e+02,1.113241e+04
2.728796e+02,1.114520e+04
2.757723e+02,1.118599e+04
2.786650e+02,1.122956e+04
2.815577e+02,1.125743e+04
2.844504e+02,1.128402e+04
2.873431e+02,1.129060e+04
2.902358e+02,1.131700e+04
2.931285e+02,1.134644e+04
2.960212e+02,1.139113e+04
2.989139e+02,1.141448e+04
3.018066e+02,1.143413e+04
3.046993e+02,1.146692e+04
3.075920e+02,1.148884e+04
3.104847e+02,1.152890e+04
3.133774e+02,1.157925e+04
3.162701e+02,1.159601e+04
3.191628e+02,1.160888e+04
3.220555e+02,1.164175e+04
3.249482e+02,1.168424e+04
3.278409e+02,1.172364e+04
3.307336e+02,1.175929e+04
3.336263e+02,1.178546e+04
3.365190e+02,1.179593e+04
3.394117e+02,1.184477e+04
3.423044e+02,1.189110e+04
3.451971e+02,1.195065e+04
3.480898e+02,1.197636e+04
3.509825e+02,1.198931e+04
3.538752e+02,1.203903e+04
3.567680e+02,1.208796e+04
3.596607e+02,1.212734e+04
3.625534e+02,1.216518e+04
3.654461e+02,1.215143e+04
3.683388e+02,1.217766e+04
3.712315e+02,1.224066e+04
3.741242e+02,1.227460e+04
3.770169e+02,1.231209e+04
3.799096e+02,1.235504e+04
3.828023e+02,1.237077e+04
3.856950e+02,1.241141e+04
3.885877e+02,1.246715e+04
3.914804e+02,1.251785e+04
3.943731e+02,1.254654e+04
3.972658e+02,1.257221e+04
4.001585e+02,1.259571e+04
4.030512e+02,1.265208e+04
4.059439e+02,1.268439e+04
4.088366e+02,1.272684e+04
4.117293e+02,1.274472e+04
4.146220e+02,1.277363e+04
4.175147e+02,1.281375e+04
4.204074e+02,1.285257e+04
4.233001e+02,1.288676e+04
4.261928e+02,1.290905e+04
4.290855e+02,1.294774e+04
4.319782e+02,1.298699e+04
4.348709e+02,1.304558e+04
4.377636e+02,1.309523e+04
4.406563e+02,1.313692e+04
4.435490e+02,1.317664e+04
4.464417e+02,1.321787e+04
4.493344e+02,1.326524e+04
4.522271e+02,1.329400e+04
4.551198e+02,1.332378e+04
4.580125e+02,1.333318e+04
4.609052e+02,1.337773e+04
4.637979e+02,1.340457e+04
4.666906e+02,1.342763e+04
4.695833e+02,1.347483e+04
4.724760e+02,1.349982e+04
4.753687e+02,1.350096e+04
4.782614e+02,1.351888e+04
4.811541e+02,1.354627e+04
4.840468e+02,1.358733e+04
4.869395e+02,1.359071e+04
4.898322e+02,1.360640e+04
4.927249e+02,1.362679e+04
4.956176e+02,1.365702e+04
4.985103e+02,1.368193e+04
5.014030e+02,1.369147e+04
5.042957e+02,1.370077e+04
5.071884e+02,1.368050e+04
5.100811e+02,1.367509e+04
5.129738e+02,1.365912e+04
5.158665e+02,1.367593e+04
5.187592e+02,1.369765e+04
5.216519e+02,1.364180e+04
5.245446e+02,1.366677e+04
5.274373e+02,1.371460e+04
5.303300e+02,1.371262e+04
5.332227e+02,1.367096e+04
5.361154e+02,1.366597e+04
5.390081e+02,1.365834e+04
5.419008e+02,1.368821e+04
5.447935e+02,1.368484e+04
5.476862e+02,1.367014e+04
5.505789e+02,1.368090e+04
5.534716e+02,1.362050e+04
5.563643e+02,1.364831e+04
5.592570e+02,1.368243e+04
5.621497e+02,1.367364e+04
5.650424e+02,1.368794e+04
5.679351e+02,1.365217e+04
5.708278e+02,1.361315e+04
5.737205e+02,1.365820e+04
5.766132e+02,1.366037e+04
5.795059e+02,1.366359e+04
5.823986e+02,1.367181e+04
5.852913e+02,1.365740e+04
5.881840e+02,1.365150e+04
5.910767e+02,1.367781e+04
5.939694e+02,1.368074e+04
5.968621e+02,1.366633e+04
5.997548e+02,1.367621e+04
6.026475e+02,1.367546e+04
6.055402e+02,1.370748e+04
6.084329e+02,1.364859e+04
6.113256e+02,1.365803e+04
6.142183e+02,1.364571e+04
6.171110e+02,1.364293e+04
6.200037e+02,1.361709e+04
6.228964e+02,1.364479e+04
6.257891e+02,1.364932e+04
6.286818e+02,1.366771e+04
6.315745e+02,1.363460e+04
6.344672e+02,1.364455e+04
6.373599e+02,1.360520e+04
6.402526e+02,1.359839e+04
6.431453e+02,1.364162e+04
6.460380e+02,1.361491e+04
6.489307e+02,1.359842e+04
6.518234e+02,1.360710e+04
6.547161e+02,1.364887e+04
6.576088e+02,1.355756e+04
6.605015e+02,1.359666e+04
6.633942e+02,1.356837e+04
6.662869e+02,1.360336e+04
6.691796e+02,1.362250e+04
6.720723e+02,1.358134e+04
6.749650e+02,1.350410e+04
6.778577e+02,1.352604e+04
6.807504e+02,1.350885e+04
6.836431e+02,1.348340e+04
6.865358e+02,1.346228e+04
6.894285e+02,1.347264e+04
6.923212e+02,1.342491e+04
6.952139e+02,1.341994e+04
6.981066e+02,1.343350e+04
7.009993e+02,1.341428e+04
7.038920e+02,1.338168e+04
7.067847e+02,1.337760e+04
7.096774e+02,1.333464e+04
7.125701e+02,1.334647e+04
7.154628e+02,1.338177e+04
7.183555e+02,1.330427e+04
7.212482e+02,1.331693e+04
7.241409e+02,1.332322e+04
7.270336e+02,1.331569e+04
7.299263e+02,1.329774e+04
7.328190e+02,1.326837e+04
7.357117e+02,1.330108e+04
7.386044e+02,1.327363e+04
7.414971e+02,1.324231e+04
7.443898e+02,1.320662e+04
7.472825e+02,1.323028e+04
7.501752e+02,1.319304e+04
7.530679e+02,1.317610e+04
7.559606e+02,1.316303e+04
7.588533e+02,1.315780e+04
7.617460e+02,1.312789e+04
7.646387e+02,1.313384e+04
7.675314e+02,1.309756e+04
7.704241e+02,1.304279e+04
7.733168e+02,1.303266e+04
7.762095e+02,1.304801e+04
7.791022e+02,1.305963e+04
7.819949e+02,1.303049e+04
7.848876e+02,1.302529e+04
7.877803e+02,1.297958e+04
7.906730e+02,1.296614e+04
7.935657e+02,1.299411e+04
7.964584e+02,1.291402e+04
7.993511e+02,1.291678e+04
8.022438e+02,1.287602e+04
8.051365e+02,1.290175e+04
8.080292e+02,1.287091e+04
8.109219e+02,1.288335e+04
8.138146e+02,1.284267e+04
8.167073e+02,1.281066e+04
8.196000e+02,1.282828e+04
8.224927e+02,1.281879e+04
8.253854e+02,1.278766e+04
8.282781e+02,1.279434e+04
8.311708e+02,1.278844e+04
8.340635e+02,1.281099e+04
8.369562e+02,1.276409e+04
8.398489e+02,1.273892e+04
8.427416e+02,1.276052e+04
8.456343e+02,1.271299e+04
8.485270e+02,1.274757e+04
8.514197e+02,1.272021e+04
8.543124e+02,1.273661e+04
8.572051e+02,1.269229e+04
8.600978e+02,1.265929e+04
8.629905e+02,1.264348e+04
8.658832e+02,1.263333e+04
8.687759e+02,1.261301e+04
8.716686e+02,1.258403e+04
8.745613e+02,1.255834e+04
8.774540e+02,1.253143e+04
8.803467e+02,1.256087e+04
8.832394e+02,1.255917e+04
8.861321e+02,1.253872e+04
8.890248e+02,1.250679e+04
8.919175e+02,1.245769e+04
8.948102e+02,1.245510e+04
8.977029e+02,1.243293e+04
9.005956e+02,1.243892e+04
9.034883e+02,1.238860e+04
9.063810e+02,1.235331e+04
9.092737e+02,1.235956e+04
9.121664e+02,1.238103e+04
9.150591e+02,1.237527e+04
9.179518e+02,1.236625e+04
9.208445e+02,1.226960e+04
9.237372e+02,1.226534e+04
9.266299e+02,1.228381e+04
9.295226e+02,1.229778e+04
9.324153e+02,1.220660e+04
9.353080e+02,1.225089e+04
9.382007e+02,1.222493e+04
9.410934e+02,1.222507e+04
9.439861e+02,1.218122e+04
9.468788e+02,1.219683e+04
9.497715e+02,1.213624e+04
9.526642e+02,1.213683e+04
9.555569e+02,1.214972e+04
9.584496e+02,1.211586e+04
9.613423e+02,1.212446e+04
9.642350e+02,1.210418e+04
9.671277e+02,1.205973e+04
9.700204e+02,1.201706e+04
9.729131e+02,1.204923e+04
9.758058e+02,1.199548e+04
9.786985e+02,1.203174e+04
9.815912e+02,1.200115e+04
9.844839e+02,1.196058e+04
9.873766e+02,1.196082e+04
9.902693e+02,1.194806e+04
9.931620e+02,1.196402e+04
9.960547e+02,1.190005e+04
9.989474e+02,1.190545e+04
1.001840e+03,1.186654e+04
1.004733e+03,1.184913e+04
1.007626e+03,1.188013e+04
1.010518e+03,1.186820e+04
1.013411e+03,1.183659e+04
1.016304e+03,1.181391e+04
1.019196e+03,1.179519e+04
1.022089e+03,1.179226e+04
1.024982e+03,1.179783e+04
1.027875e+03,1.176859e+04
1.030767e+03,1.172484e+04
1.033660e+03,1.174121e+04
1.036552e+03,1.171459e+04
1.039445e+03,1.173119e+04
1.042338e+03,1.171413e+04
1.045231e+03,1.166876e+04
1.048123e+03,1.165594e+04
1.051016e+03,1.166543e+04
1.053909e+03,1.167547e+04
1.056802e+03,1.162669e+04
1.059694e+03,1.163443e+04
1.062587e+03,1.159967e+04
1.065479e+03,1.159996e+04
1.068372e+03,1.162472e+04
1.071265e+03,1.164662e+04
1.074158e+03,1.160196e+04
1.077050e+03,1.156599e+04
1.079943e+03,1.154174e+04
1.082836e+03,1.156815e+04
1.085729e+03,1.151200e+04
1.088621e+03,1.151184e+04
1.091514e+03,1.149618e+04
1.094406e+03,1.140885e+04
1.097299e+03,1.141435e+04
1.100192e+03,1.141180e+04
1.103085e+03,1.140239e+04
1.105977e+03,1.139384e+04
1.108870e+03,1.136948e+04
1.111763e+03,1.136988e+04
1.114656e+03,1.137376e+04
1.117548e+03,1.137656e+04
1.120441e+03,1.134281e+04
1.123334e+03,1.132103e+04
1.126226e+03,1.129841e+04
1.129119e+03,1.127121e+04
1.132012e+03,1.129760e+04
1.134904e+03,1.126070e+04
1.137797e+03,1.121405e+04
1.140690e+03,1.123596e+04
1.143583e+03,1.124947e+04
1.146475e+03,1.122748e+04
1.149368e+03,1.125594e+04
1.152261e+03,1.125953e+04
1.155153e+03,1.121553e+04
1.158046e+03,1.119929e+04
1.160939e+03,1.125120e+04
1.163831e+03,1.125361e+04
1.166724e+03,1.123861e+04
1.169617e+03,1.118179e+04
1.172510e+03,1.112532e+04
1.175402e+03,1.114041e+04
1.178295e+03,1.113251e+04
1.181188e+03,1.108269e+04
1.184080e+03,1.103513e+04
1.186973e+03,1.099581e+04
1.189866e+03,1.099814e+04
1.192758e+03,1.100171e+04
1.195651e+03,1.096263e+04
1.198544e+03,1.097332e+04
1.201437e+03,1.094512e+04
1.204329e+03,1.089165e+04
1.207222e+03,1.093258e+04
1.210115e+03,1.093054e+04
1.213007e+03,1.090074e+04
1.215900e+03,1.084995e+04
1.218793e+03,1.083625e+04
1.221685e+03,1.081165e+04
1.224578e+03,1.080577e+04
1.227471e+03,1.081346e+04
1.230364e+03,1.077228e+04
1.233256e+03,1.073085e+04
1.236149e+03,1.072683e+04
1.239042e+03,1.072331e+04
1.241934e+03,1.072467e+04
1.244827e+03,1.070801e+04
1.247720e+03,1.065345e+04
1.250612e+03,1.063383e+04
1.253505e+03,1.059695e+04
1.256398e+03,1.059974e+04
1.259291e+03,1.062451e+04
1.262183e+03,1.056743e+04
1.265076e+03,1.052469e+04
1.267969e+03,1.055857e+04
1.270861e+03,1.052349e+04
1.273754e+03,1.056456e+04
1.276647e+03,1.053784e+04
1.279539e+03,1.053116e+04
1.282432e+03,1.045588e+04
1.285325e+03,1.046467e+04
1.288218e+03,1.048887e+04
1.291110e+03,1.048209e+04
1.294003e+03,1.044196e+04
1.296896e+03,1.040051e+04
1.299788e+03,1.039819e+04
1.302681e+03,1.042905e+04
1.305574e+03,1.041656e+04
1.308466e+03,1.040039e+04
1.311359e+03,1.039625e+04
1.314252e+03,1.036833e+04
1.317145e+03,1.037809e+04
1.320037e+03,1.043422e+04
1.322930e+03,1.042233e+04
1.325823e+03,1.038665e+04
1.328715e+03,1.034154e+04
1.331608e+03,1.034892e+04
1.334501e+03,1.034337e+04
1.337393e+03,1.028630e+04
1.340286e+03,1.026011e+04
1.343179e+03,1.020978e+04
1.346072e+03,1.016236e+04
1.348964e+03,1.016989e+04
1.351857e+03,1.016403e+04
1.354750e+03,1.011981e+04
1.357642e+03,1.010774e+04
1.360535e+03,1.007261e+04
1.363428e+03,1.004206e+04
1.366320e+03,1.003468e+04
1.369213e+03,1.006895e+04
1.372106e+03,9.996089e+03
1.374999e+03,9.965424e+03
1.377891e+03,9.964168e+03
1.380784e+03,9.955635e+03
1.383677e+03,9.951354e+03
1.386569e+03,9.933100e+03
1.389462e+03,9.881510e+03
1.392355e+03,9.841187e+03
1.395247e+03,9.845650e+03
1.398140e+03,9.860332e+03
1.401033e+03,9.853283e+03
1.403926e+03,9.804484e+03
1.406818e+03,9.786259e+03
1.409711e+03,9.782473e+03
1.412604e+03,9.772059e+03
1.415496e+03,9.764419e+03
1.418389e+03,9.774229e+03
1.421282e+03,9.688913e+03
1.424174e+03,9.665853e+03
1.427067e+03,9.666902e+03
1.429960e+03,9.656535e+03
1.432853e+03,9.658275e+03
1.435745e+03,9.636045e+03
1.438638e+03,9.610354e+03
1.441531e+03,9.614079e+03
1.444423e+03,9.611382e+03
1.447316e+03,9.577830e+03
1.450209e+03,9.532998e+03
1.453101e+03,9.525540e+03
1.455994e+03,9.507578e+03
1.458887e+03,9.514424e+03
1.461780e+03,9.508703e+03
1.464672e+03,9.495324e+03
1.467565e+03,9.450787e+03
1.470458e+03,9.426755e+03
1.473350e+03,9.435854e+03
1.476243e+03,9.374481e+03
1.479136e+03,9.400754e+03
1.482028e+03,9.367149e+03
1.484921e+03,9.346198e+03
1.487814e+03,9.340436e+03
1.490707e+03,9.344549e+03
1.493599e+03,9.335568e+03
1.496492e+03,9.321928e+03
1.499385e+03,9.267415e+03
1.502277e+03,9.269726e+03
1.505170e+03,9.249253e+03
1.508063e+03,9.289153e+03
1.510955e+03,9.225754e+03
1.513848e+03,9.176183e+03
1.516741e+03,9.193688e+03
1.519634e+03,9.187115e+03
1.522526e+03,9.167252e+03
1.525419e+03,9.167033e+03
1.528312e+03,9.148174e+03
1.531204e+03,9.105428e+03
1.534097e+03,9.093101e+03
1.536990e+03,9.080987e+03
1.539882e+03,9.052942e+03
1.542775e+03,9.028093e+03
1.545668e+03,9.005311e+03
1.548561e+03,9.044221e+03
1.551453e+03,9.056904e+03
1.554346e+03,9.052638e+03
1.557239e+03,9.011341e+03
1.560131e+03,9.038708e+03
1.563024e+03,9.010597e+03
1.565917e+03,9.014558e+03
1.568809e+03,9.020438e+03
1.571702e+03,8.952892e+03
1.574595e+03,8.958464e+03
1.577488e+03,8.969200e+03
1.580380e+03,8.959916e+03
1.583273e+03,8.971234e+03
1.586166e+03,8.912958e+03
1.589058e+03,8.891918e+03
1.591951e+03,8.839321e+03
1.594844e+03,8.851799e+03
1.597736e+03,8.873797e+03
1.600629e+03,8.826257e+03
1.603522e+03,8.831612e+03
1.606415e+03,8.806870e+03
1.609307e+03,8.831901e+03
1.612200e+03,8.799653e+03
1.615093e+03,8.787462e+03
1.617985e+03,8.778761e+03
1.620878e+03,8.721186e+03
1.623771e+03,8.686719e+03
1.626663e+03,8.678656e+03
1.629556e+03,8.664173e+03
1.632449e+03,8.610099e+03
1.635342e+03,8.594171e+03
1.638234e+03,8.616083e+03
1.641127e+03,8.582430e+03
1.644020e+03,8.587970e+03
1.646912e+03,8.561019e+03
1.649805e+03,8.560692e+03
1.652698e+03,8.523258e+03
1.655590e+03,8.485771e+03
1.658483e+03,8.462267e+03
1.661376e+03,8.455815e+03
1.664269e+03,8.438118e+03
1.667161e+03,8.447846e+03
1.670054e+03,8.385754e+03
1.672947e+03,8.360184e+03
1.675839e+03,8.394563e+03
1.678732e+03,8.363140e+03
1.681625e+03,8.328088e+03
1.684517e+03,8.337462e+03
1.687410e+03,8.317533e+03
1.690303e+03,8.303378e+03
1.693196e+03,8.307730e+03
1.696088e+03,8.303650e+03
1.698981e+03,8.265662e+03
1.701874e+03,8.253239e+03
1.704766e+03,8.254861e+03
1.707659e+03,8.186374e+03
1.710552e+03,8.223061e+03
1.713444e+03,8.181708e+03
1.716337e+03,8.170392e+03
1.719230e+03,8.162031e+03
1.722123e+03,8.152587e+03
1.725015e+03,8.153992e+03
1.727908e+03,8.095892e+03
1.730801e+03,8.123745e+03
1.733693e+03,8.087539e+03
1.736586e+03,8.092425e+03
1.739479e+03,8.079689e+03
1.742371e+03,8.063401e+03
1.745264e+03,8.058610e+03
1.748157e+03,8.003992e+03
1.751050e+03,7.982687e+03
1.753942e+03,8.007830e+03
1.756835e+03,7.986553e+03
1.759728e+03,7.979806e+03
1.762620e+03,7.955656e+03
1.765513e+03,7.936455e+03
1.768406e+03,7.935907e+03
1.771298e+03,7.921399e+03
1.774191e+03,7.908952e+03
1.777084e+03,7.898510e+03
1.779977e+03,7.843133e+03
1.782869e+03,7.912785e+03
1.785762e+03,7.881626e+03
1.788655e+03,7.840805e+03
1.791547e+03,7.812860e+03
1.794440e+03,7.857694e+03
1.797333e+03,7.873411e+03
1.800225e+03,7.791329e+03
1.803118e+03,7.764594e+03
1.806011e+03,7.767697e+03
1.808904e+03,7.711305e+03
1.811796e+03,7.755436e+03
1.814689e+03,7.757718e+03
1.817582e+03,7.734429e+03
1.820474e+03,7.684909e+03
1.823367e+03,7.661516e+03
1.826260e+03,7.663116e+03
1.829152e+03,7.668437e+03
1.832045e+03,7.705897e+03
1.834938e+03,7.611647e+03
1.837831e+03,7.600307e+03
1.840723e+03,7.589583e+03
1.843616e+03,7.594521e+03
1.846509e+03,7.570979e+03
1.849401e+03,7.573020e+03
1.852294e+03,7.522960e+03
1.855187e+03,7.521687e+03
1.858079e+03,7.515868e+03
1.860972e+03,7.519928e+03
1.863865e+03,7.500521e+03
1.866758e+03,7.429893e+03
1.869650e+03,7.435451e+03
1.872543e+03,7.451845e+03
1.875436e+03,7.440903e+03
1.878328e+03,7.421775e+03
1.881221e+03,7.392833e+03
1.884114e+03,7.350355e+03
1.887006e+03,7.365913e+03
1.889899e+03,7.375556e+03
1.892792e+03,7.339835e+03
1.895685e+03,7.299229e+03
1.898577e+03,7.292618e+03
1.901470e+03,7.275260e+03
1.904363e+03,7.273158e+03
1.907255e+03,7.261727e+03
1.910148e+03,7.255609e+03
1.913041e+03,7.226274e+03
1.915933e+03,7.213322e+03
1.918826e+03,7.184274e+03
1.921719e+03,7.191834e+03
1.924612e+03,7.181320e+03
1.927504e+03,7.170153e+03
1.930397e+03,7.124481e+03
1.933290e+03,7.097055e+03
1.936182e+03,7.157608e+03
1.939075e+03,7.088779e+03
1.941968e+03,7.071773e+03
1.944860e+03,7.043549e+03
1.947753e+03,7.005432e+03
1.950646e+03,7.025997e+03
1.953539e+03,7.033316e+03
1.956431e+03,7.016227e+03
1.959324e+03,7.010233e+03
1.962217e+03,6.944274e+03
1.965109e+03,6.931735e+03
1.968002e+03,6.961758e+03
1.970895e+03,6.962596e+03
1.973787e+03,6.938757e+03
1.976680e+03,6.881646e+03
1.979573e+03,6.903333e+03
1.982466e+03,6.889494e+03
1.985358e+03,6.873008e+03
1.988251e+03,6.897362e+03
1.991144e+03,6.853884e+03
1.994036e+03,6.851233e+03
1.996929e+03,6.836328e+03
1.999822e+03,6.839824e+03
2.002714e+03,6.776479e+03
2.005607e+03,6.770647e+03
2.008500e+03,6.783323e+03
2.011393e+03,6.741085e+03
2.014285e+03,6.760648e+03
2.017178e+03,6.728833e+03
2.020071e+03,6.686838e+03
2.022963e+03,6.677165e+03
2.025856e+03,6.678056e+03
2.028749e+03,6.667114e+03
2.031641e+03,6.672743e+03
2.034534e+03,6.695005e+03
2.037427e+03,6.626233e+03
2.040320e+03,6.647967e+03
2.043212e+03,6.543255e+03
2.046105e+03,6.576516e+03
2.048998e+03,6.608166e+03
2.051890e+03,6.555125e+03
2.054783e+03,6.500547e+03
2.057676e+03,6.522820e+03
2.060568e+03,6.531020e+03
2.063461e+03,6.487753e+03
2.066354e+03,6.498355e+03
2.069247e+03,6.448494e+03
2.072139e+03,6.419224e+03
2.075032e+03,6.443486e+03
2.077925e+03,6.409550e+03
2.080817e+03,6.379209e+03
2.083710e+03,6.353521e+03
2.086603e+03,6.320444e+03
2.089496e+03,6.356905e+03
2.092388e+03,6.386247e+03
2.095281e+03,6.292408e+03
2.098174e+03,6.318881e+03
2.101066e+03,6.304786e+03
2.103959e+03,6.249616e+03
2.106852e+03,6.293350e+03
2.109744e+03,6.321102e+03
2.112637e+03,6.250053e+03
2.115530e+03,6.181937e+03
2.118422e+03,6.169703e+03
2.121315e+03,6.221466e+03
2.124208e+03,6.205132e+03
2.127101e+03,6.160572e+03
2.129993e+03,6.148273e+03
2.132886e+03,6.151925e+03
2.135779e+03,6.111255e+03
2.138671e+03,6.109964e+03
2.141564e+03,6.093853e+03
2.144457e+03,6.084507e+03
2.147350e+03,5.991847e+03
2.150242e+03,6.042852e+03
2.153135e+03,6.024968e+03
2.156028e+03,6.030547e+03
2.158920e+03,5.995548e+03
2.161813e+03,5.991673e+03
2.164706e+03,5.990513e+03
2.167598e+03,5.963042e+03
2.170491e+03,5.928105e+03
2.173384e+03,5.964674e+03
2.176277e+03,5.923267e+03
2.179169e+03,5.882054e+03
2.182062e+03,5.876939e+03
2.184955e+03,5.856613e+03
2.187847e+03,5.870128e+03
2.190740e+03,5.863629e+03
2.193633e+03,5.825766e+03
2.196525e+03,5.847243e+03
2.199418e+03,5.824263e+03
2.202311e+03,5.782242e+03
2.205204e+03,5.796507e+03
2.208096e+03,5.734699e+03
2.210989e+03,5.703838e+03
2.213882e+03,5.740389e+03
2.216774e+03,5.752392e+03
2.219667e+03,5.717335e+03
2.222560e+03,5.675978e+03
2.225452e+03,5.662924e+03
2.228345e+03,5.655106e+03
2.231238e+03,5.700928e+03
2.234131e+03,5.653512e+03
2.237023e+03,5.606643e+03
2.239916e+03,5.599561e+03
2.242809e+03,5.581892e+03
2.245701e+03,5.562706e+03
2.248594e+03,5.549073e+03
2.251487e+03,5.547669e+03
2.254379e+03,5.538006e+03
2.257272e+03,5.501604e+03
2.260165e+03,5.481411e+03
2.263058e+03,5.493837e+03
2.265950e+03,5.478250e+03
2.268843e+03,5.462505e+03
2.271736e+03,5.400588e+03
2.274628e+03,5.432282e+03
2.277521e+03,5.427775e+03
2.280414e+03,5.408314e+03
2.283306e+03,5.395555e+03
2.286199e+03,5.337499e+03
2.289092e+03,5.367952e+03
2.291985e+03,5.315021e+03
2.294877e+03,5.343286e+03
2.297770e+03,5.327961e+03
2.300663e+03,5.302001e+03
2.303555e+03,5.303663e+03
2.306448e+03,5.239848e+03
2.309341e+03,5.255907e+03
2.312233e+03,5.216072e+03
2.315126e+03,5.237486e+03
2.318019e+03,5.189560e+03
2.320912e+03,5.203571e+03
2.323804e+03,5.178835e+03
2.326697e+03,5.163363e+03
2.329590e+03,5.146060e+03
2.332482e+03,5.145888e+03
2.335375e+03,5.117499e+03
2.338268e+03,5.111193e+03
2.341160e+03,5.053722e+03
2.344053e+03,5.106032e+03
2.346946e+03,5.066164e+03
2.349839e+03,5.042241e+03
2.352731e+03,5.014823e+03
2.355624e+03,5.047795e+03
2.358517e+03,5.033596e+03
2.361409e+03,5.034188e+03
2.364302e+03,4.987782e+03
2.367195e+03,4.959163e+03
2.370087e+03,4.982584e+03
2.372980e+03,4.955536e+03
2.375873e+03,4.975843e+03
2.378766e+03,4.943208e+03
2.381658e+03,4.931189e+03
2.384551e+03,4.925373e+03
2.387444e+03,4.915111e+03
2.390336e+03,4.871941e+03
2.393229e+03,4.862882e+03
2.396122e+03,4.863282e+03
2.399014e+03,4.836750e+03
2.401907e+03,4.833559e+03
2.404800e+03,4.813356e+03
2.407693e+03,4.829874e+03
2.410585e+03,4.775304e+03
2.413478e+03,4.760935e+03
2.416371e+03,4.759239e+03
2.419263e+03,4.770042e+03
2.422156e+03,4.753569e+03
2.425049e+03,4.739711e+03
2.427941e+03,4.695149e+03
2.430834e+03,4.703376e+03
2.433727e+03,4.732718e+03
2.436620e+03,4.691709e+03
2.439512e+03,4.681059e+03
2.442405e+03,4.639126e+03
2.445298e+03,4.648797e+03
2.448190e+03,4.622463e+03
2.451083e+03,4.638484e+03
2.453976e+03,4.625858e+03
2.456868e+03,4.593791e+03
2.459761e+03,4.565847e+03
2.462654e+03,4.574311e+03
2.465547e+03,4.572628e+03
2.468439e+03,4.521326e+03
2.471332e+03,4.520518e+03
2.474225e+03,4.512430e+03
2.477117e+03,4.510850e+03
2.480010e+03,4.534304e+03
2.482903e+03,4.502484e+03
2.485795e+03,4.471704e+03
2.488688e+03,4.455811e+03
2.491581e+03,4.452053e+03
2.494474e+03,4.450396e+03
2.497366e+03,4.440281e+03
2.500259e+03,4.426502e+03
2.503152e+03,4.428112e+03
2.506044e+03,4.396344e+03
2.508937e+03,4.367900e+03
2.511830e+03,4.405215e+03
2.514722e+03,4.379893e+03
2.517615e+03,4.340889e+03
2.520508e+03,4.358071e+03
2.523401e+03,4.343419e+03
2.526293e+03,4.296437e+03
2.529186e+03,4.351497e+03
2.532079e+03,4.320046e+03
2.534971e+03,4.302967e+03
2.537864e+03,4.273805e+03
2.540757e+03,4.249058e+03
2.543649e+03,4.263951e+03
2.546542e+03,4.271525e+03
2.549435e+03,4.264454e+03
2.552328e+03,4.236608e+03
2.555220e+03,4.216440e+03
2.558113e+03,4.226415e+03
2.561006e+03,4.229329e+03
2.563898e+03,4.197084e+03
2.566791e+03,4.180834e+03
2.569684e+03,4.155221e+03
2.572576e+03,4.171492e+03
2.575469e+03,4.195091e+03
2.578362e+03,4.199675e+03
2.581255e+03,4.148476e+03
2.584147e+03,4.121817e+03
2.587040e+03,4.092038e+03
2.589933e+03,4.114851e+03
2.592825e+03,4.116280e+03
2.595718e+03,4.098686e+03
2.598611e+03,4.081872e+03
2.601503e+03,4.060040e+03
2.604396e+03,4.060417e+03
2.607289e+03,4.044869e+03
2.610182e+03,4.064172e+03
2.613074e+03,4.076210e+03
2.615967e+03,4.018470e+03
2.618860e+03,4.024753e+03
2.621752e+03,4.040475e+03
2.624645e+03,3.984642e+03
2.627538e+03,3.996714e+03
2.630430e+03,4.013922e+03
2.633323e+03,4.022069e+03
2.636216e+03,3.989763e+03
2.639109e+03,3.981605e+03
2.642001e+03,3.962313e+03
2.644894e+03,3.935014e+03
2.647787e+03,3.960266e+03
2.650679e+03,3.905470e+03
2.653572e+03,3.918702e+03
2.656465e+03,3.905680e+03
2.659357e+03,3.901030e+03
2.662250e+03,3.889182e+03
2.665143e+03,3.873312e+03
2.668036e+03,3.861263e+03
2.670928e+03,3.820768e+03
2.673821e+03,3.849216e+03
2.676714e+03,3.827661e+03
2.679606e+03,3.856460e+03
2.682499e+03,3.862867e+03
2.685392e+03,3.796268e+03
2.688284e+03,3.828531e+03
2.691177e+03,3.764981e+03
2.694070e+03,3.777591e+03
2.696963e+03,3.783995e+03
2.699855e+03,3.804385e+03
2.702748e+03,3.781094e+03
2.705641e+03,3.742250e+03
2.708533e+03,3.771235e+03
2.711426e+03,3.773700e+03
2.714319e+03,3.748741e+03
2.717211e+03,3.731815e+03
2.720104e+03,3.741644e+03
2.722997e+03,3.731752e+03
2.725890e+03,3.714883e+03
2.728782e+03,3.716888e+03
2.731675e+03,3.705834e+03
2.734568e+03,3.692753e+03
2.737460e+03,3.682429e+03
2.740353e+03,3.667811e+03
2.743246e+03,3.696205e+03
2.746138e+03,3.662985e+03
2.749031e+03,3.650691e+03
2.751924e+03,3.657152e+03
2.754817e+03,3.654383e+03
2.757709e+03,3.667561e+03
2.760602e+03,3.625229e+03
2.763495e+03,3.631472e+03
2.766387e+03,3.628701e+03
2.769280e+03,3.618350e+03
2.772173e+03,3.576113e+03
2.775065e+03,3.597082e+03
2.777958e+03,3.533667e+03
2.780851e+03,3.576560e+03
2.783744e+03,3.557222e+03
2.786636e+03,3.575074e+03
2.789529e+03,3.573836e+03
2.792422e+03,3.557365e+03
2.795314e+03,3.550387e+03
2.798207e+03,3.563159e+03
2.801100e+03,3.495768e+03
2.803992e+03,3.566365e+03
2.806885e+03,3.516989e+03
2.809778e+03,3.513255e+03
2.812671e+03,3.487799e+03
2.815563e+03,3.504367e+03
2.818456e+03,3.502307e+03
2.821349e+03,3.478843e+03
2.824241e+03,3.491702e+03
2.827134e+03,3.526112e+03
2.830027e+03,3.498933e+03
2.832919e+03,3.467173e+03
2.835812e+03,3.457462e+03
2.838705e+03,3.444893e+03
2.841598e+03,3.424847e+03
2.844490e+03,3.437562e+03
2.847383e+03,3.428505e+03
2.850276e+03,3.442510e+03
2.853168e+03,3.398632e+03
2.856061e+03,3.420785e+03
2.858954e+03,3.430717e+03
2.861846e+03,3.346283e+03
2.864739e+03,3.404514e+03
2.867632e+03,3.436559e+03
2.870525e+03,3.360517e+03
2.873417e+03,3.367573e+03
2.876310e+03,3.409103e+03
2.879203e+03,3.343995e+03
2.882095e+03,3.367980e+03
2.884988e+03,3.359444e+03
2.887881e+03,3.410755e+03
2.890773e+03,3.358151e+03
2.893666e+03,3.297493e+03
2.896559e+03,3.325642e+03
2.899452e+03,3.327792e+03
2.902344e+03,3.321821e+03
2.905237e+03,3.360457e+03
2.908130e+03,3.296740e+03
2.911022e+03,3.307813e+03
2.913915e+03,3.316214e+03
2.916808e+03,3.275112e+03
2.919700e+03,3.318858e+03
2.922593e+03,3.273607e+03
2.925486e+03,3.255331e+03
2.928379e+03,3.253323e+03
2.931271e+03,3.265009e+03
2.934164e+03,3.239863e+03
2.937057e+03,3.233395e+03
2.939949e+03,3.239530e+03
2.942842e+03,3.228635e+03
2.945735e+03,3.236644e+03
2.948627e+03,3.215395e+03
2.951520e+03,3.270165e+03
2.954413e+03,3.253928e+03
2.957306e+03,3.199596e+03
2.960198e+03,3.224009e+03
2.963091e+03,3.229765e+03
2.965984e+03,3.256560e+03
2.968876e+03,3.127833e+03
2.971769e+03,3.209065e+03
2.974662e+03,3.136919e+03
2.977554e+03,3.166073e+03
2.980447e+03,3.156559e+03
2.983340e+03,3.193094e+03
2.986233e+03,3.142934e+03
2.989125e+03,3.174997e+03
2.992018e+03,3.190431e+03
2.994911e+03,3.192365e+03
2.997803e+03,3.135928e+03
3.000696e+03,3.111776e+03
3.003589e+03,3.157411e+03
3.006481e+03,3.082858e+03
3.009374e+03,3.101744e+03
3.012267e+03,3.169264e+03
3.015160e+03,3.098618e+03
3.018052e+03,3.157542e+03
3.020945e+03,3.169957e+03
3.023838e+03,3.060743e+03
3.026730e+03,3.094865e+03
3.029623e+03,3.041071e+03
3.032516e+03,3.078002e+03
3.035408e+03,3.110727e+03
3.038301e+03,3.085083e+03
3.041194e+03,3.030576e+03
3.044087e+03,3.118686e+03
3.046979e+03,3.047159e+03
3.049872e+03,3.039294e+03
3.052765e+03,3.126518e+03
3.055657e+03,3.043030e+03
3.058550e+03,3.093910e+03
3.061443e+03,3.062073e+03
3.064335e+03,3.028858e+03
3.067228e+03,3.068161e+03
3.070121e+03,3.092858e+03
3.073014e+03,3.038585e+03
3.075906e+03,3.051179e+03
3.078799e+03,3.036278e+03
3.081692e+03,3.019662e+03
3.084584e+03,3.079710e+03
3.087477e+03,3.048917e+03
3.090370e+03,3.090284e+03
3.093262e+03,2.959595e+03
3.096155e+03,3.036982e+03
3.099048e+03,3.034260e+03
3.101941e+03,3.029949e+03
3.104833e+03,2.911738e+03
3.107726e+03,2.985822e+03
3.110619e+03,2.921606e+03
3.113511e+03,2.978745e+03
3.116404e+03,3.015528e+03
3.119297e+03,2.944959e+03
3.122189e+03,3.005079e+03
3.125082e+03,2.952039e+03
3.127975e+03,2.977349e+03
3.130868e+03,2.945725e+03
3.133760e+03,2.936570e+03
3.136653e+03,2.980870e+03
3.139546e+03,3.015188e+03
3.142438e+03,2.989981e+03
3.145331e+03,2.957245e+03
3.148224e+03,2.986916e+03
3.151116e+03,2.989644e+03
3.154009e+03,2.977789e+03
3.156902e+03,2.929410e+03
3.159795e+03,2.959433e+03
3.162687e+03,2.916242e+03
3.165580e+03,2.978446e+03
3.168473e+03,3.006078e+03
3.171365e+03,2.970693e+03
3.174258e+03,2.958866e+03
3.177151e+03,2.955736e+03
3.180043e+03,2.952807e+03
3.182936e+03,3.024636e+03
3.185829e+03,2.961100e+03
3.188722e+03,2.912300e+03
3.191614e+03,2.986728e+03
3.194507e+03,2.985379e+03
3.197400e+03,2.973934e+03
3.200292e+03,2.910849e+03
3.203185e+03,0.000000e+00
3.206078e+03,0.000000e+00
3.208970e+03,0.000000e+00
3.211863e+03,0.000000e+00
3.214756e+03,0.000000e+00
3.217649e+03,0.000000e+00
3.220541e+03,0.000000e+00
3.223434e+03,0.000000e+00
3.226327e+03,0.000000e+00
3.229219e+03,0.000000e+00
3.232112e+03,0.000000e+00
3.235005e+03,0.000000e+00
3.237897e+03,0.000000e+00
3.240790e+03,0.000000e+00
3.243683e+03,0.000000e+00
3.246576e+03,0.000000e+00
3.249468e+03,0.000000e+00
3.252361e+03,0.000000e+00
3.255254e+03,0.000000e+00
3.258146e+03,0.000000e+00
3.261039e+03,0.000000e+00
3.263932e+03,0.000000e+00
3.266824e+03,0.000000e+00
3.269717e+03,0.000000e+00
3.272610e+03,0.000000e+00
3.275503e+03,0.000000e+00
3.278395e+03,0.000000e+00
3.281288e+03,0.000000e+00
3.284181e+03,0.000000e+00
3.287073e+03,0.000000e+00
3.289966e+03,0.000000e+00
3.292859e+03,0.000000e+00
3.295751e+03,0.000000e+00
3.298644e+03,0.000000e+00
3.301537e+03,0.000000e+00
3.304430e+03,0.000000e+00
3.307322e+03,0.000000e+00
3.310215e+03,0.000000e+00
3.313108e+03,0.000000e+00
3.316000e+03,0.000000e+00
3.318893e+03,0.000000e+00
3.321786e+03,0.000000e+00
3.324678e+03,0.000000e+00
3.327571e+03,0.000000e+00
3.330464e+03,0.000000e+00
3.333357e+03,0.000000e+00
3.336249e+03,0.000000e+00
3.339142e+03,0.000000e+00
3.342035e+03,0.000000e+00
3.344927e+03,0.000000e+00
3.347820e+03,0.000000e+00
3.350713e+03,0.000000e+00
3.353605e+03,0.000000e+00
3.356498e+03,0.000000e+00
3.359391e+03,0.000000e+00
3.362284e+03,0.000000e+00
3.365176e+03,0.000000e+00
3.368069e+03,0.000000e+00
3.370962e+03,0.000000e+00
3.373854e+03,0.000000e+00
3.376747e+03,0.000000e+00
3.379640e+03,0.000000e+00
3.382532e+03,0.000000e+00
3.385425e+03,0.000000e+00
3.388318e+03,0.000000e+00
3.391211e+03,0.000000e+00
3.394103e+03,0.000000e+00
3.396996e+03,0.000000e+00
3.399889e+03,0.000000e+00
3.402781e+03,0.000000e+00
3.405674e+03,0.000000e+00
3.408567e+03,0.000000e+00
3.411459e+03,0.000000e+00
3.414352e+03,0.000000e+00
3.417245e+03,0.000000e+00
3.420138e+03,0.000000e+00
3.423030e+03,0.000000e+00
3.425923e+03,0.000000e+00
3.428816e+03,0.000000e+00
3.431708e+03,0.000000e+00
3.434601e+03,0.000000e+00
3.437494e+03,0.000000e+00
3.440386e+03,0.000000e+00
3.443279e+03,0.000000e+00
3.446172e+03,0.000000e+00
3.449065e+03,0.000000e+00
3.451957e+03,0.000000e+00
3.454850e+03,0.000000e+00
3.457743e+03,0.000000e+00
3.460635e+03,0.000000e+00
3.463528e+03,0.000000e+00
3.466421e+03,0.000000e+00
3.469313e+03,0.000000e+00
3.472206e+03,0.000000e+00
3.475099e+03,0.000000e+00
3.477992e+03,0.000000e+00
3.480884e+03,0.000000e+00
3.483777e+03,0.000000e+00
3.486670e+03,0.000000e+00
3.489563e+03,0.000000e+00
3.492455e+03,0.000000e+00
3.495348e+03,0.000000e+00
3.498240e+03,0.000000e+00
3.500169e+03,0.000000e+00