File: RAMAN_data/13042023_r1/black fibre3.CSV
9.931763e+01,0.000000e+00
1.022103e+02,0.000000e+00
1.051030e+02,0.000000e+00
1.079957e+02,0.000000e+00
1.108884e+02,0.000000e+00
1.137811e+02,0.000000e+00
1.166738e+02,0.000000e+00
1.195665e+02,0.000000e+00
1.224592e+02,0.000000e+00
1.253519e+02,0.000000e+00
1.282446e+02,0.000000e+00
1.311373e+02,0.000000e+00
1.340300e+02,0.000000e+00
1.369227e+02,0.000000e+00
1.398154e+02,0.000000e+00
1.427081e+02,0.000000e+00
1.456008e+02,0.000000e+00
1.484935e+02,0.000000e+00
1.513862e+02,0.000000e+00
1.542789e+02,0.000000e+00
1.571716e+02,0.000000e+00
1.600643e+02,0.000000e+00
1.629570e+02,0.000000e+00
1.658497e+02,0.000000e+00
1.687424e+02,0.000000e+00
1.716351e+02,0.000000e+00
1.745278e+02,0.000000e+00
1.774205e+02,0.000000e+00
1.803132e+02,0.000000e+00
1.832059e+02,0.000000e+00
1.860986e+02,0.000000e+00
1.889913e+02,0.000000e+00
1.918840e+02,0.000000e+00
1.947767e+02,0.000000e+00
1.976694e+02,0.000000e+00
2.005621e+02,1.047981e+04
2.034548e+02,1.052034e+04
2.063475e+02,1.054905e+04
2.092402e+02,1.055023e+04
2.121329e+02,1.055114e+04
2.150256e+02,1.057994e+04
2.179183e+02,1.060919e+04
2.208110e+02,1.066058e+04
2.237037e+02,1.067718e+04
2.265964e+02,1.068749e+04
2.294892e+02,1.071674e+04
2.323819e+02,1.076485e+04
2.352746e+02,1.080180e+04
2.381673e+02,1.083688e+04
2.410600e+02,1.083374e+04
2.439527e+02,1.085114e+04
2.468454e+02,1.088743e+04
2.497381e+02,1.092293e+04
2.526308e+02,1.095972e+04
2.555235e+02,1.097477e+04
2.584161e+02,1.097703e+04
2.613088e+02,1.102010e+04
2.642015e+02,1.107264e+04
2.670942e+02,1.109793e+04
2.699869e+02,1.113241e+04
2.728796e+02,1.114520e+04
2.757723e+02,1.118599e+04
2.786650e+02,1.122956e+04
2.815577e+02,1.125743e+04
2.844504e+02,1.128402e+04
2.873431e+02,1.129060e+04
2.902358e+02,1.131700e+04
2.931285e+02,1.134644e+04
2.960212e+02,1.139113e+04
2.989139e+02,1.141448e+04
3.018066e+02,1.143413e+04
3.046993e+02,1.146692e+04
3.075920e+02,1.148884e+04
3.104847e+02,1.152890e+04
3.133774e+02,1.157925e+04
3.162701e+02,1.159601e+04
3.191628e+02,1.160888e+04
3.220555e+02,1.164175e+04
3.249482e+02,1.168424e+04
3.278409e+02,1.172364e+04
3.307336e+02,1.175929e+04
3.336263e+02,1.178546e+04
3.365190e+02,1.179593e+04
3.394117e+02,1.184477e+04
3.423044e+02,1.189110e+04
3.451971e+02,1.195065e+04
3.480898e+02,1.197636e+04
3.509825e+02,1.198931e+04
3.538752e+02,1.203903e+04
3.567680e+02,1.208796e+04
3.596607e+02,1.212734e+04
3.625534e+02,1.216518e+04
3.654461e+02,1.215143e+04
3.683388e+02,1.217766e+04
3.712315e+02,1.224066e+04
3.741242e+02,1.227460e+04
3.770169e+02,1.231209e+04
3.799096e+02,1.235504e+04
3.828023e+02,1.237077e+04
3.856950e+02,1.241141e+04
3.885877e+02,1.246715e+04
3.914804e+02,1.251785e+04
3.943731e+02,1.254654e+04
3.972658e+02,1.257221e+04
4.001585e+02,1.259571e+04
4.030512e+02,1.265336e+04
4.059439e+02,1.267855e+04
4.088366e+02,1.270694e+04
4.117293e+02,1.272411e+04
4.146220e+02,1.273431e+04
4.175147e+02,1.276876e+04
4.204074e+02,1.277898e+04
4.233001e+02,1.278911e+04
4.261928e+02,1.279377e+04
4.290855e+02,1.281244e+04
4.319782e+02,1.285038e+04
4.348709e+02,1.289660e+04
4.377636e+02,1.292713e+04
4.406563e+02,1.294166e+04
4.435490e+02,1.294438e+04
4.464417e+02,1.298687e+04
4.493344e+02,1.299889e+04
4.522271e+02,1.302468e+04
4.551198e+02,1.304961e+04
4.580125e+02,1.304292e+04
4.609052e+02,1.304398e+04
4.637979e+02,1.307050e+04
4.666906e+02,1.306751e+04
4.695833e+02,1.309181e+04
4.724760e+02,1.311946e+04
4.753687e+02,1.306324e+04
4.782614e+02,1.306786e+04
4.811541e+02,1.308246e+04
4.840468e+02,1.309937e+04
4.869395e+02,1.308252e+04
4.898322e+02,1.307438e+04
4.927249e+02,1.310762e+04
4.956176e+02,1.311369e+04
4.985103e+02,1.312477e+04
5.014030e+02,1.311733e+04
5.042957e+02,1.311222e+04
5.071884e+02,1.311026e+04
5.100811e+02,1.308496e+04
5.129738e+02,1.309813e+04
5.158665e+02,1.313969e+04
5.187592e+02,1.313411e+04
5.216519e+02,1.310594e+04
5.245446e+02,1.309991e+04
5.274373e+02,1.311173e+04
5.303300e+02,1.311931e+04
5.332227e+02,1.311793e+04
5.361154e+02,1.311274e+04
5.390081e+02,1.309005e+04
5.419008e+02,1.309255e+04
5.447935e+02,1.312303e+04
5.476862e+02,1.310242e+04
5.505789e+02,1.309111e+04
5.534716e+02,1.306482e+04
5.563643e+02,1.306650e+04
5.592570e+02,1.309572e+04
5.621497e+02,1.312207e+04
5.650424e+02,1.308361e+04
5.679351e+02,1.309513e+04
5.708278e+02,1.303121e+04
5.737205e+02,1.306377e+04
5.766132e+02,1.309076e+04
5.795059e+02,1.308875e+04
5.823986e+02,1.307574e+04
5.852913e+02,1.308872e+04
5.881840e+02,1.307651e+04
5.910767e+02,1.309754e+04
5.939694e+02,1.308924e+04
5.968621e+02,1.307629e+04
5.997548e+02,1.308235e+04
6.026475e+02,1.306798e+04
6.055402e+02,1.305996e+04
6.084329e+02,1.306973e+04
6.113256e+02,1.306342e+04
6.142183e+02,1.303742e+04
6.171110e+02,1.303474e+04
6.200037e+02,1.302926e+04
6.228964e+02,1.304358e+04
6.257891e+02,1.304801e+04
6.286818e+02,1.304796e+04
6.315745e+02,1.303605e+04
6.344672e+02,1.303490e+04
6.373599e+02,1.303496e+04
6.402526e+02,1.300991e+04
6.431453e+02,1.296998e+04
6.460380e+02,1.300966e+04
6.489307e+02,1.298428e+04
6.518234e+02,1.297536e+04
6.547161e+02,1.295523e+04
6.576088e+02,1.295754e+04
6.605015e+02,1.290084e+04
6.633942e+02,1.282771e+04
6.662869e+02,1.285766e+04
6.691796e+02,1.289354e+04
6.720723e+02,1.284624e+04
6.749650e+02,1.278747e+04
6.778577e+02,1.276290e+04
6.807504e+02,1.275874e+04
6.836431e+02,1.279604e+04
6.865358e+02,1.275753e+04
6.894285e+02,1.270600e+04
6.923212e+02,1.268942e+04
6.952139e+02,1.266820e+04
6.981066e+02,1.266223e+04
7.009993e+02,1.265760e+04
7.038920e+02,1.267617e+04
7.067847e+02,1.259317e+04
7.096774e+02,1.257710e+04
7.125701e+02,1.261136e+04
7.154628e+02,1.255818e+04
7.183555e+02,1.258312e+04
7.212482e+02,1.252931e+04
7.241409e+02,1.250937e+04
7.270336e+02,1.248225e+04
7.299263e+02,1.247094e+04
7.328190e+02,1.244636e+04
7.357117e+02,1.244573e+04
7.386044e+02,1.240996e+04
7.414971e+02,1.238989e+04
7.443898e+02,1.239867e+04
7.472825e+02,1.233409e+04
7.501752e+02,1.235313e+04
7.530679e+02,1.230041e+04
7.559606e+02,1.229292e+04
7.588533e+02,1.232255e+04
7.617460e+02,1.235725e+04
7.646387e+02,1.224019e+04
7.675314e+02,1.222862e+04
7.704241e+02,1.217287e+04
7.733168e+02,1.215275e+04
7.762095e+02,1.219829e+04
7.791022e+02,1.216283e+04
7.819949e+02,1.213214e+04
7.848876e+02,1.211280e+04
7.877803e+02,1.210096e+04
7.906730e+02,1.207618e+04
7.935657e+02,1.207247e+04
7.964584e+02,1.203652e+04
7.993511e+02,1.207070e+04
8.022438e+02,1.199762e+04
8.051365e+02,1.198609e+04
8.080292e+02,1.195389e+04
8.109219e+02,1.198855e+04
8.138146e+02,1.197570e+04
8.167073e+02,1.193115e+04
8.196000e+02,1.190506e+04
8.224927e+02,1.189296e+04
8.253854e+02,1.189461e+04
8.282781e+02,1.187991e+04
8.311708e+02,1.183311e+04
8.340635e+02,1.180678e+04
8.369562e+02,1.179753e+04
8.398489e+02,1.178615e+04
8.427416e+02,1.180166e+04
8.456343e+02,1.176933e+04
8.485270e+02,1.172775e+04
8.514197e+02,1.173015e+04
8.543124e+02,1.170395e+04
8.572051e+02,1.170518e+04
8.600978e+02,1.166189e+04
8.629905e+02,1.161049e+04
8.658832e+02,1.162265e+04
8.687759e+02,1.160654e+04
8.716686e+02,1.159714e+04
8.745613e+02,1.151791e+04
8.774540e+02,1.152967e+04
8.803467e+02,1.155067e+04
8.832394e+02,1.152746e+04
8.861321e+02,1.154344e+04
8.890248e+02,1.151147e+04
8.919175e+02,1.143659e+04
8.948102e+02,1.140987e+04
8.977029e+02,1.141158e+04
9.005956e+02,1.139323e+04
9.034883e+02,1.138173e+04
9.063810e+02,1.138378e+04
9.092737e+02,1.133100e+04
9.121664e+02,1.130658e+04
9.150591e+02,1.131469e+04
9.179518e+02,1.132026e+04
9.208445e+02,1.123640e+04
9.237372e+02,1.122376e+04
9.266299e+02,1.119940e+04
9.295226e+02,1.120863e+04
9.324153e+02,1.122813e+04
9.353080e+02,1.120703e+04
9.382007e+02,1.114612e+04
9.410934e+02,1.114517e+04
9.439861e+02,1.109216e+04
9.468788e+02,1.110329e+04
9.497715e+02,1.108846e+04
9.526642e+02,1.105926e+04
9.555569e+02,1.101283e+04
9.584496e+02,1.099958e+04
9.613423e+02,1.103672e+04
9.642350e+02,1.101272e+04
9.671277e+02,1.095567e+04
9.700204e+02,1.094879e+04
9.729131e+02,1.094238e+04
9.758058e+02,1.091320e+04
9.786985e+02,1.091035e+04
9.815912e+02,1.089264e+04
9.844839e+02,1.080718e+04
9.873766e+02,1.082661e+04
9.902693e+02,1.082012e+04
9.931620e+02,1.083608e+04
9.960547e+02,1.080912e+04
9.989474e+02,1.076769e+04
1.001840e+03,1.069640e+04
1.004733e+03,1.069460e+04
1.007626e+03,1.070872e+04
1.010518e+03,1.071044e+04
1.013411e+03,1.064402e+04
1.016304e+03,1.064278e+04
1.019196e+03,1.065632e+04
1.022089e+03,1.059934e+04
1.024982e+03,1.063036e+04
1.027875e+03,1.059398e+04
1.030767e+03,1.053152e+04
1.033660e+03,1.051820e+04
1.036552e+03,1.053606e+04
1.039445e+03,1.049167e+04
1.042338e+03,1.050654e+04
1.045231e+03,1.047350e+04
1.048123e+03,1.040113e+04
1.051016e+03,1.042175e+04
1.053909e+03,1.043116e+04
1.056802e+03,1.039100e+04
1.059694e+03,1.037301e+04
1.062587e+03,1.035007e+04
1.065479e+03,1.031464e+04
1.068372e+03,1.031614e+04
1.071265e+03,1.032931e+04
1.074158e+03,1.030650e+04
1.077050e+03,1.025538e+04
1.079943e+03,1.024676e+04
1.082836e+03,1.024116e+04
1.085729e+03,1.022148e+04
1.088621e+03,1.022632e+04
1.091514e+03,1.019272e+04
1.094406e+03,1.011207e+04
1.097299e+03,1.015279e+04
1.100192e+03,1.015349e+04
1.103085e+03,1.012477e+04
1.105977e+03,1.009030e+04
1.108870e+03,1.005783e+04
1.111763e+03,1.005727e+04
1.114656e+03,1.003942e+04
1.117548e+03,1.005318e+04
1.120441e+03,1.000630e+04
1.123334e+03,9.958567e+03
1.126226e+03,9.946084e+03
1.129119e+03,9.941982e+03
1.132012e+03,9.922014e+03
1.134904e+03,9.903438e+03
1.137797e+03,9.834088e+03
1.140690e+03,9.867558e+03
1.143583e+03,9.865296e+03
1.146475e+03,9.817849e+03
1.149368e+03,9.806642e+03
1.152261e+03,9.803715e+03
1.155153e+03,9.757223e+03
1.158046e+03,9.727402e+03
1.160939e+03,9.731465e+03
1.163831e+03,9.747188e+03
1.166724e+03,9.733438e+03
1.169617e+03,9.697409e+03
1.172510e+03,9.617584e+03
1.175402e+03,9.608931e+03
1.178295e+03,9.634528e+03
1.181188e+03,9.655167e+03
1.184080e+03,9.596312e+03
1.186973e+03,9.577574e+03
1.189866e+03,9.545134e+03
1.192758e+03,9.574252e+03
1.195651e+03,9.553897e+03
1.198544e+03,9.561889e+03
1.201437e+03,9.492724e+03
1.204329e+03,9.465050e+03
1.207222e+03,9.457120e+03
1.210115e+03,9.485028e+03
1.213007e+03,9.472855e+03
1.215900e+03,9.423485e+03
1.218793e+03,9.398974e+03
1.221685e+03,9.378113e+03
1.224578e+03,9.356160e+03
1.227471e+03,9.346547e+03
1.230364e+03,9.306534e+03
1.233256e+03,9.281857e+03
1.236149e+03,9.270566e+03
1.239042e+03,9.267149e+03
1.241934e+03,9.286487e+03
1.244827e+03,9.271048e+03
1.247720e+03,9.212106e+03
1.250612e+03,9.197755e+03
1.253505e+03,9.191810e+03
1.256398e+03,9.170963e+03
1.259291e+03,9.160053e+03
1.262183e+03,9.118893e+03
1.265076e+03,9.104116e+03
1.267969e+03,9.112569e+03
1.270861e+03,9.114283e+03
1.273754e+03,9.049516e+03
1.276647e+03,9.050788e+03
1.279539e+03,9.024215e+03
1.282432e+03,8.969380e+03
1.285325e+03,8.986184e+03
1.288218e+03,8.978479e+03
1.291110e+03,8.956918e+03
1.294003e+03,8.939739e+03
1.296896e+03,8.907920e+03
1.299788e+03,8.882285e+03
1.302681e+03,8.884931e+03
1.305574e+03,8.873868e+03
1.308466e+03,8.869046e+03
1.311359e+03,8.813263e+03
1.314252e+03,8.802083e+03
1.317145e+03,8.807933e+03
1.320037e+03,8.827205e+03
1.322930e+03,8.776346e+03
1.325823e+03,8.775862e+03
1.328715e+03,8.755463e+03
1.331608e+03,8.726260e+03
1.334501e+03,8.729784e+03
1.337393e+03,8.724133e+03
1.340286e+03,8.671308e+03
1.343179e+03,8.688467e+03
1.346072e+03,8.689658e+03
1.348964e+03,8.653584e+03
1.351857e+03,8.635955e+03
1.354750e+03,8.643054e+03
1.357642e+03,8.601217e+03
1.360535e+03,8.620792e+03
1.363428e+03,8.584364e+03
1.366320e+03,8.568001e+03
1.369213e+03,8.566333e+03
1.372106e+03,8.514337e+03
1.374999e+03,8.520298e+03
1.377891e+03,8.517562e+03
1.380784e+03,8.495838e+03
1.383677e+03,8.453140e+03
1.386569e+03,8.461691e+03
1.389462e+03,8.431825e+03
1.392355e+03,8.391975e+03
1.395247e+03,8.378621e+03
1.398140e+03,8.424790e+03
1.401033e+03,8.364573e+03
1.403926e+03,8.346140e+03
1.406818e+03,8.317867e+03
1.409711e+03,8.322797e+03
1.412604e+03,8.311668e+03
1.415496e+03,8.282496e+03
1.418389e+03,8.262025e+03
1.421282e+03,8.244704e+03
1.424174e+03,8.217990e+03
1.427067e+03,8.206822e+03
1.429960e+03,8.200836e+03
1.432853e+03,8.177908e+03
1.435745e+03,8.170375e+03
1.438638e+03,8.144743e+03
1.441531e+03,8.154850e+03
1.444423e+03,8.106290e+03
1.447316e+03,8.090771e+03
1.450209e+03,8.062569e+03
1.453101e+03,8.077404e+03
1.455994e+03,8.039821e+03
1.458887e+03,8.068107e+03
1.461780e+03,8.004296e+03
1.464672e+03,8.039005e+03
1.467565e+03,7.968673e+03
1.470458e+03,7.965208e+03
1.473350e+03,7.935733e+03
1.476243e+03,7.953857e+03
1.479136e+03,7.918457e+03
1.482028e+03,7.887749e+03
1.484921e+03,7.860604e+03
1.487814e+03,7.855173e+03
1.490707e+03,7.878440e+03
1.493599e+03,7.827534e+03
1.496492e+03,7.786553e+03
1.499385e+03,7.784060e+03
1.502277e+03,7.764354e+03
1.505170e+03,7.783056e+03
1.508063e+03,7.750384e+03
1.510955e+03,7.723733e+03
1.513848e+03,7.724536e+03
1.516741e+03,7.700690e+03
1.519634e+03,7.730638e+03
1.522526e+03,7.727188e+03
1.525419e+03,7.678101e+03
1.528312e+03,7.634927e+03
1.531204e+03,7.630372e+03
1.534097e+03,7.614246e+03
1.536990e+03,7.609744e+03
1.539882e+03,7.595669e+03
1.542775e+03,7.572362e+03
1.545668e+03,7.550028e+03
1.548561e+03,7.556619e+03
1.551453e+03,7.577125e+03
1.554346e+03,7.527903e+03
1.557239e+03,7.510372e+03
1.560131e+03,7.486642e+03
1.563024e+03,7.481044e+03
1.565917e+03,7.468407e+03
1.568809e+03,7.483506e+03
1.571702e+03,7.436395e+03
1.574595e+03,7.394773e+03
1.577488e+03,7.382845e+03
1.580380e+03,7.372775e+03
1.583273e+03,7.350878e+03
1.586166e+03,7.347714e+03
1.589058e+03,7.306671e+03
1.591951e+03,7.318771e+03
1.594844e+03,7.309203e+03
1.597736e+03,7.307221e+03
1.600629e+03,7.299282e+03
1.603522e+03,7.286187e+03
1.606415e+03,7.210109e+03
1.609307e+03,7.230910e+03
1.612200e+03,7.233017e+03
1.615093e+03,7.218982e+03
1.617985e+03,7.216154e+03
1.620878e+03,7.157640e+03
1.623771e+03,7.101208e+03
1.626663e+03,7.136795e+03
1.629556e+03,7.145280e+03
1.632449e+03,7.138561e+03
1.635342e+03,7.076665e+03
1.638234e+03,7.089534e+03
1.641127e+03,7.031944e+03
1.644020e+03,7.074668e+03
1.646912e+03,7.056445e+03
1.649805e+03,7.002220e+03
1.652698e+03,6.997814e+03
1.655590e+03,6.982135e+03
1.658483e+03,6.957676e+03
1.661376e+03,6.954775e+03
1.664269e+03,6.928377e+03
1.667161e+03,6.907892e+03
1.670054e+03,6.900767e+03
1.672947e+03,6.888367e+03
1.675839e+03,6.873566e+03
1.678732e+03,6.856794e+03
1.681625e+03,6.838211e+03
1.684517e+03,6.806303e+03
1.687410e+03,6.822533e+03
1.690303e+03,6.804968e+03
1.693196e+03,6.773728e+03
1.696088e+03,6.794107e+03
1.698981e+03,6.757211e+03
1.701874e+03,6.726251e+03
1.704766e+03,6.736099e+03
1.707659e+03,6.742591e+03
1.710552e+03,6.714509e+03
1.713444e+03,6.703839e+03
1.716337e+03,6.663423e+03
1.719230e+03,6.663610e+03
1.722123e+03,6.635151e+03
1.725015e+03,6.623255e+03
1.727908e+03,6.604267e+03
1.730801e+03,6.614018e+03
1.733693e+03,6.568070e+03
1.736586e+03,6.566283e+03
1.739479e+03,6.577976e+03
1.742371e+03,6.533894e+03
1.745264e+03,6.537311e+03
1.748157e+03,6.513125e+03
1.751050e+03,6.470336e+03
1.753942e+03,6.501040e+03
1.756835e+03,6.496487e+03
1.759728e+03,6.433908e+03
1.762620e+03,6.445853e+03
1.765513e+03,6.453250e+03
1.768406e+03,6.409815e+03
1.771298e+03,6.427458e+03
1.774191e+03,6.397042e+03
1.777084e+03,6.388431e+03
1.779977e+03,6.339396e+03
1.782869e+03,6.382476e+03
1.785762e+03,6.342271e+03
1.788655e+03,6.334372e+03
1.791547e+03,6.333559e+03
1.794440e+03,6.299958e+03
1.797333e+03,6.278017e+03
1.800225e+03,6.271473e+03
1.803118e+03,6.218459e+03
1.806011e+03,6.232625e+03
1.808904e+03,6.212464e+03
1.811796e+03,6.199815e+03
1.814689e+03,6.215542e+03
1.817582e+03,6.224203e+03
1.820474e+03,6.167700e+03
1.823367e+03,6.136221e+03
1.826260e+03,6.158389e+03
1.829152e+03,6.159946e+03
1.832045e+03,6.105683e+03
1.834938e+03,6.131780e+03
1.837831e+03,6.090837e+03
1.840723e+03,6.079882e+03
1.843616e+03,6.110110e+03
1.846509e+03,6.033163e+03
1.849401e+03,6.046416e+03
1.852294e+03,6.038915e+03
1.855187e+03,6.007415e+03
1.858079e+03,5.986206e+03
1.860972e+03,5.989027e+03
1.863865e+03,5.957710e+03
1.866758e+03,5.969721e+03
1.869650e+03,5.914727e+03
1.872543e+03,5.917297e+03
1.875436e+03,5.938960e+03
1.878328e+03,5.927057e+03
1.881221e+03,5.873037e+03
1.884114e+03,5.872583e+03
1.887006e+03,5.853107e+03
1.889899e+03,5.831219e+03
1.892792e+03,5.823180e+03
1.895685e+03,5.820172e+03
1.898577e+03,5.809452e+03
1.901470e+03,5.786425e+03
1.904363e+03,5.797013e+03
1.907255e+03,5.768384e+03
1.910148e+03,5.751990e+03
1.913041e+03,5.720290e+03
1.915933e+03,5.718862e+03
1.918826e+03,5.670849e+03
1.921719e+03,5.680234e+03
1.924612e+03,5.696430e+03
1.927504e+03,5.659460e+03
1.930397e+03,5.622879e+03
1.933290e+03,5.635565e+03
1.936182e+03,5.617240e+03
1.939075e+03,5.603975e+03
1.941968e+03,5.586818e+03
1.944860e+03,5.583872e+03
1.947753e+03,5.537776e+03
1.950646e+03,5.547694e+03
1.953539e+03,5.539824e+03
1.956431e+03,5.517009e+03
1.959324e+03,5.473838e+03
1.962217e+03,5.488048e+03
1.965109e+03,5.458571e+03
1.968002e+03,5.464108e+03
1.970895e+03,5.474649e+03
1.973787e+03,5.479083e+03
1.976680e+03,5.424521e+03
1.979573e+03,5.400810e+03
1.982466e+03,5.422344e+03
1.985358e+03,5.416319e+03
1.988251e+03,5.376965e+03
1.991144e+03,5.365627e+03
1.994036e+03,5.334124e+03
1.996929e+03,5.337154e+03
1.999822e+03,5.354284e+03
2.002714e+03,5.298284e+03
2.005607e+03,5.297452e+03
2.008500e+03,5.301443e+03
2.011393e+03,5.256958e+03
2.014285e+03,5.229542e+03
2.017178e+03,5.239549e+03
2.020071e+03,5.196914e+03
2.022963e+03,5.206093e+03
2.025856e+03,5.198419e+03
2.028749e+03,5.174804e+03
2.031641e+03,5.183642e+03
2.034534e+03,5.141774e+03
2.037427e+03,5.155702e+03
2.040320e+03,5.120909e+03
2.043212e+03,5.089122e+03
2.046105e+03,5.117808e+03
2.048998e+03,5.085658e+03
2.051890e+03,5.066292e+03
2.054783e+03,5.029395e+03
2.057676e+03,5.029696e+03
2.060568e+03,5.055874e+03
2.063461e+03,5.025651e+03
2.066354e+03,5.012143e+03
2.069247e+03,4.968045e+03
2.072139e+03,4.946064e+03
2.075032e+03,4.963560e+03
2.077925e+03,4.944397e+03
2.080817e+03,4.945379e+03
2.083710e+03,4.921188e+03
2.086603e+03,4.887596e+03
2.089496e+03,4.909981e+03
2.092388e+03,4.873965e+03
2.095281e+03,4.863718e+03
2.098174e+03,4.870356e+03
2.101066e+03,4.857677e+03
2.103959e+03,4.798739e+03
2.106852e+03,4.807569e+03
2.109744e+03,4.843328e+03
2.112637e+03,4.785525e+03
2.115530e+03,4.735313e+03
2.118422e+03,4.751538e+03
2.121315e+03,4.809231e+03
2.124208e+03,4.760359e+03
2.127101e+03,4.732956e+03
2.129993e+03,4.695731e+03
2.132886e+03,4.719957e+03
2.135779e+03,4.701296e+03
2.138671e+03,4.701778e+03
2.141564e+03,4.647071e+03
2.144457e+03,4.649335e+03
2.147350e+03,4.614847e+03
2.150242e+03,4.632052e+03
2.153135e+03,4.633267e+03
2.156028e+03,4.574636e+03
2.158920e+03,4.591839e+03
2.161813e+03,4.584045e+03
2.164706e+03,4.566409e+03
2.167598e+03,4.549563e+03
2.170491e+03,4.526123e+03
2.173384e+03,4.567917e+03
2.176277e+03,4.504105e+03
2.179169e+03,4.466265e+03
2.182062e+03,4.471976e+03
2.184955e+03,4.445499e+03
2.187847e+03,4.433554e+03
2.190740e+03,4.435508e+03
2.193633e+03,4.421112e+03
2.196525e+03,4.386186e+03
2.199418e+03,4.393546e+03
2.202311e+03,4.400672e+03
2.205204e+03,4.393964e+03
2.208096e+03,4.368517e+03
2.210989e+03,4.330224e+03
2.213882e+03,4.319259e+03
2.216774e+03,4.344271e+03
2.219667e+03,4.311551e+03
2.222560e+03,4.302626e+03
2.225452e+03,4.282349e+03
2.228345e+03,4.234767e+03
2.231238e+03,4.275699e+03
2.234131e+03,4.253254e+03
2.237023e+03,4.233437e+03
2.239916e+03,4.240691e+03
2.242809e+03,4.176493e+03
2.245701e+03,4.169205e+03
2.248594e+03,4.149343e+03
2.251487e+03,4.161471e+03
2.254379e+03,4.139819e+03
2.257272e+03,4.156531e+03
2.260165e+03,4.105661e+03
2.263058e+03,4.110726e+03
2.265950e+03,4.088926e+03
2.268843e+03,4.068499e+03
2.271736e+03,4.066614e+03
2.274628e+03,4.079777e+03
2.277521e+03,4.052789e+03
2.280414e+03,4.041674e+03
2.283306e+03,4.015966e+03
2.286199e+03,3.995323e+03
2.289092e+03,4.008082e+03
2.291985e+03,3.966632e+03
2.294877e+03,3.991188e+03
2.297770e+03,3.985829e+03
2.300663e+03,3.994597e+03
2.303555e+03,3.906542e+03
2.306448e+03,3.928929e+03
2.309341e+03,3.912579e+03
2.312233e+03,3.880482e+03
2.315126e+03,3.921216e+03
2.318019e+03,3.882374e+03
2.320912e+03,3.875810e+03
2.323804e+03,3.861815e+03
2.326697e+03,3.862451e+03
2.329590e+03,3.836798e+03
2.332482e+03,3.826332e+03
2.335375e+03,3.816474e+03
2.338268e+03,3.788864e+03
2.341160e+03,3.770608e+03
2.344053e+03,3.806787e+03
2.346946e+03,3.759379e+03
2.349839e+03,3.748268e+03
2.352731e+03,3.717983e+03
2.355624e+03,3.729334e+03
2.358517e+03,3.752882e+03
2.361409e+03,3.705636e+03
2.364302e+03,3.703770e+03
2.367195e+03,3.659333e+03
2.370087e+03,3.664331e+03
2.372980e+03,3.677511e+03
2.375873e+03,3.645418e+03
2.378766e+03,3.689303e+03
2.381658e+03,3.616468e+03
2.384551e+03,3.600993e+03
2.387444e+03,3.605871e+03
2.390336e+03,3.603658e+03
2.393229e+03,3.586987e+03
2.396122e+03,3.584172e+03
2.399014e+03,3.592517e+03
2.401907e+03,3.552215e+03
2.404800e+03,3.565083e+03
2.407693e+03,3.540078e+03
2.410585e+03,3.497273e+03
2.413478e+03,3.534241e+03
2.416371e+03,3.474714e+03
2.419263e+03,3.482906e+03
2.422156e+03,3.476099e+03
2.425049e+03,3.494589e+03
2.427941e+03,3.427942e+03
2.430834e+03,3.428633e+03
2.433727e+03,3.457736e+03
2.436620e+03,3.421142e+03
2.439512e+03,3.406530e+03
2.442405e+03,3.403308e+03
2.445298e+03,3.441965e+03
2.448190e+03,3.376059e+03
2.451083e+03,3.389954e+03
2.453976e+03,3.376728e+03
2.456868e+03,3.366291e+03
2.459761e+03,3.345312e+03
2.462654e+03,3.324516e+03
2.465547e+03,3.343311e+03
2.468439e+03,3.329134e+03
2.471332e+03,3.319351e+03
2.474225e+03,3.307259e+03
2.477117e+03,3.293654e+03
2.480010e+03,3.280029e+03
2.482903e+03,3.290658e+03
2.485795e+03,3.271045e+03
2.488688e+03,3.251035e+03
2.491581e+03,3.227924e+03
2.494474e+03,3.221295e+03
2.497366e+03,3.212198e+03
2.500259e+03,3.216483e+03
2.503152e+03,3.209974e+03
2.506044e+03,3.201263e+03
2.508937e+03,3.189260e+03
2.511830e+03,3.180356e+03
2.514722e+03,3.186350e+03
2.517615e+03,3.167559e+03
2.520508e+03,3.163388e+03
2.523401e+03,3.122208e+03
2.526293e+03,3.138109e+03
2.529186e+03,3.145841e+03
2.532079e+03,3.122815e+03
2.534971e+03,3.115369e+03
2.537864e+03,3.113831e+03
2.540757e+03,3.106627e+03
2.543649e+03,3.122245e+03
2.546542e+03,3.091949e+03
2.549435e+03,3.084484e+03
2.552328e+03,3.064996e+03
2.555220e+03,3.031457e+03
2.558113e+03,3.065313e+03
2.561006e+03,3.049759e+03
2.563898e+03,3.007933e+03
2.566791e+03,3.016061e+03
2.569684e+03,3.025451e+03
2.572576e+03,3.000684e+03
2.575469e+03,2.986507e+03
2.578362e+03,3.022595e+03
2.581255e+03,3.003972e+03
2.584147e+03,2.975099e+03
2.587040e+03,2.948098e+03
2.589933e+03,2.955779e+03
2.592825e+03,2.975948e+03
2.595718e+03,2.953770e+03
2.598611e+03,2.924857e+03
2.601503e+03,2.945604e+03
2.604396e+03,2.910945e+03
2.607289e+03,2.929063e+03
2.610182e+03,2.907387e+03
2.613074e+03,2.866347e+03
2.615967e+03,2.926411e+03
2.618860e+03,2.864940e+03
2.621752e+03,2.878252e+03
2.624645e+03,2.878884e+03
2.627538e+03,2.838786e+03
2.630430e+03,2.861610e+03
2.633323e+03,2.816771e+03
2.636216e+03,2.849901e+03
2.639109e+03,2.840561e+03
2.642001e+03,2.810618e+03
2.644894e+03,2.829460e+03
2.647787e+03,2.823984e+03
2.650679e+03,2.789480e+03
2.653572e+03,2.802521e+03
2.656465e+03,2.805026e+03
2.659357e+03,2.762245e+03
2.662250e+03,2.726431e+03
2.665143e+03,2.765402e+03
2.668036e+03,2.759368e+03
2.670928e+03,2.747478e+03
2.673821e+03,2.726762e+03
2.676714e+03,2.721213e+03
2.679606e+03,2.722486e+03
2.682499e+03,2.727610e+03
2.685392e+03,2.717848e+03
2.688284e+03,2.701369e+03
2.691177e+03,2.725690e+03
2.694070e+03,2.692917e+03
2.696963e+03,2.707407e+03
2.699855e+03,2.701250e+03
2.702748e+03,2.656352e+03
2.705641e+03,2.679110e+03
2.708533e+03,2.647784e+03
2.711426e+03,2.642116e+03
2.714319e+03,2.643413e+03
2.717211e+03,2.678931e+03
2.720104e+03,2.650349e+03
2.722997e+03,2.619875e+03
2.725890e+03,2.610019e+03
2.728782e+03,2.598425e+03
2.731675e+03,2.605958e+03
2.734568e+03,2.632514e+03
2.737460e+03,2.591359e+03
2.740353e+03,2.583690e+03
2.743246e+03,2.565789e+03
2.746138e+03,2.589649e+03
2.749031e+03,2.596993e+03
2.751924e+03,2.586582e+03
2.754817e+03,2.549294e+03
2.757709e+03,2.533477e+03
2.760602e+03,2.553871e+03
2.763495e+03,2.533808e+03
2.766387e+03,2.525411e+03
2.769280e+03,2.532218e+03
2.772173e+03,2.533638e+03
2.775065e+03,2.497968e+03
2.777958e+03,2.523511e+03
2.780851e+03,2.536522e+03
2.783744e+03,2.511090e+03
2.786636e+03,2.482659e+03
2.789529e+03,2.480328e+03
2.792422e+03,2.432167e+03
2.795314e+03,2.485808e+03
2.798207e+03,2.495166e+03
2.801100e+03,2.456563e+03
2.803992e+03,2.442810e+03
2.806885e+03,2.460053e+03
2.809778e+03,2.491187e+03
2.812671e+03,2.467960e+03
2.815563e+03,2.437697e+03
2.818456e+03,2.412011e+03
2.821349e+03,2.412283e+03
2.824241e+03,2.391126e+03
2.827134e+03,2.442592e+03
2.830027e+03,2.403078e+03
2.832919e+03,2.387701e+03
2.835812e+03,2.415939e+03
2.838705e+03,2.414050e+03
2.841598e+03,2.372795e+03
2.844490e+03,2.373181e+03
2.847383e+03,2.360052e+03
2.850276e+03,2.382997e+03
2.853168e+03,2.393483e+03
2.856061e+03,2.364371e+03
2.858954e+03,2.341339e+03
2.861846e+03,2.360742e+03
2.864739e+03,2.339155e+03
2.867632e+03,2.362067e+03
2.870525e+03,2.366929e+03
2.873417e+03,2.338296e+03
2.876310e+03,2.323222e+03
2.879203e+03,2.340741e+03
2.882095e+03,2.300614e+03
2.884988e+03,2.295109e+03
2.887881e+03,2.279292e+03
2.890773e+03,2.313634e+03
2.893666e+03,2.325675e+03
2.896559e+03,2.281045e+03
2.899452e+03,2.287098e+03
2.902344e+03,2.327648e+03
2.905237e+03,2.279401e+03
2.908130e+03,2.254868e+03
2.911022e+03,2.255773e+03
2.913915e+03,2.279555e+03
2.916808e+03,2.273208e+03
2.919700e+03,2.281078e+03
2.922593e+03,2.225315e+03
2.925486e+03,2.211679e+03
2.928379e+03,2.212225e+03
2.931271e+03,2.241885e+03
2.934164e+03,2.210226e+03
2.937057e+03,2.203498e+03
2.939949e+03,2.217198e+03
2.942842e+03,2.225919e+03
2.945735e+03,2.168972e+03
2.948627e+03,2.203746e+03
2.951520e+03,2.234545e+03
2.954413e+03,2.173035e+03
2.957306e+03,2.207251e+03
2.960198e+03,2.201183e+03
2.963091e+03,2.202853e+03
2.965984e+03,2.189213e+03
2.968876e+03,2.148494e+03
2.971769e+03,2.151419e+03
2.974662e+03,2.163346e+03
2.977554e+03,2.154307e+03
2.980447e+03,2.161989e+03
2.983340e+03,2.146318e+03
2.986233e+03,2.151672e+03
2.989125e+03,2.094703e+03
2.992018e+03,2.143769e+03
2.994911e+03,2.109252e+03
2.997803e+03,2.155180e+03
3.000696e+03,2.120446e+03
3.003589e+03,2.128685e+03
3.006481e+03,2.092869e+03
3.009374e+03,2.129658e+03
3.012267e+03,2.062486e+03
3.015160e+03,2.102994e+03
3.018052e+03,2.125353e+03
3.020945e+03,2.078229e+03
3.023838e+03,2.128683e+03
3.026730e+03,2.105879e+03
3.029623e+03,2.104006e+03
3.032516e+03,2.053975e+03
3.035408e+03,2.094828e+03
3.038301e+03,2.066672e+03
3.041194e+03,2.110944e+03
3.044087e+03,2.070877e+03
3.046979e+03,2.090966e+03
3.049872e+03,2.056196e+03
3.052765e+03,2.096923e+03
3.055657e+03,2.051385e+03
3.058550e+03,2.084102e+03
3.061443e+03,2.058974e+03
3.064335e+03,2.026809e+03
3.067228e+03,2.078095e+03
3.070121e+03,2.084731e+03
3.073014e+03,2.051344e+03
3.075906e+03,2.036183e+03
3.078799e+03,2.078472e+03
3.081692e+03,2.018583e+03
3.084584e+03,2.016075e+03
3.087477e+03,2.022291e+03
3.090370e+03,2.080292e+03
3.093262e+03,2.033713e+03
3.096155e+03,2.039472e+03
3.099048e+03,2.010029e+03
3.101941e+03,2.057158e+03
3.104833e+03,2.039228e+03
3.107726e+03,1.988438e+03
3.110619e+03,2.038683e+03
3.113511e+03,1.984366e+03
3.116404e+03,2.027953e+03
3.119297e+03,1.988502e+03
3.122189e+03,1.982288e+03
3.125082e+03,2.047017e+03
3.127975e+03,2.003673e+03
3.130868e+03,2.074910e+03
3.133760e+03,2.011849e+03
3.136653e+03,2.063339e+03
3.139546e+03,2.036802e+03
3.142438e+03,2.037402e+03
3.145331e+03,2.031012e+03
3.148224e+03,2.018501e+03
3.151116e+03,2.052908e+03
3.154009e+03,2.014495e+03
3.156902e+03,1.999570e+03
3.159795e+03,2.010359e+03
3.162687e+03,2.048202e+03
3.165580e+03,2.057810e+03
3.168473e+03,2.018255e+03
3.171365e+03,2.001828e+03
3.174258e+03,2.044114e+03
3.177151e+03,2.032713e+03
3.180043e+03,2.001965e+03
3.182936e+03,2.050805e+03
3.185829e+03,1.974276e+03
3.188722e+03,2.038259e+03
3.191614e+03,2.080340e+03
3.194507e+03,1.979649e+03
3.197400e+03,1.992676e+03
3.200292e+03,2.078256e+03
3.203185e+03,0.000000e+00
3.206078e+03,0.000000e+00
3.208970e+03,0.000000e+00
3.211863e+03,0.000000e+00
3.214756e+03,0.000000e+00
3.217649e+03,0.000000e+00
3.220541e+03,0.000000e+00
3.223434e+03,0.000000e+00
3.226327e+03,0.000000e+00
3.229219e+03,0.000000e+00
3.232112e+03,0.000000e+00
3.235005e+03,0.000000e+00
3.237897e+03,0.000000e+00
3.240790e+03,0.000000e+00
3.243683e+03,0.000000e+00
3.246576e+03,0.000000e+00
3.249468e+03,0.000000e+00
3.252361e+03,0.000000e+00
3.255254e+03,0.000000e+00
3.258146e+03,0.000000e+00
3.261039e+03,0.000000e+00
3.263932e+03,0.000000e+00
3.266824e+03,0.000000e+00
3.269717e+03,0.000000e+00
3.272610e+03,0.000000e+00
3.275503e+03,0.000000e+00
3.278395e+03,0.000000e+00
3.281288e+03,0.000000e+00
3.284181e+03,0.000000e+00
3.287073e+03,0.000000e+00
3.289966e+03,0.000000e+00
3.292859e+03,0.000000e+00
3.295751e+03,0.000000e+00
3.298644e+03,0.000000e+00
3.301537e+03,0.000000e+00
3.304430e+03,0.000000e+00
3.307322e+03,0.000000e+00
3.310215e+03,0.000000e+00
3.313108e+03,0.000000e+00
3.316000e+03,0.000000e+00
3.318893e+03,0.000000e+00
3.321786e+03,0.000000e+00
3.324678e+03,0.000000e+00
3.327571e+03,0.000000e+00
3.330464e+03,0.000000e+00
3.333357e+03,0.000000e+00
3.336249e+03,0.000000e+00
3.339142e+03,0.000000e+00
3.342035e+03,0.000000e+00
3.344927e+03,0.000000e+00
3.347820e+03,0.000000e+00
3.350713e+03,0.000000e+00
3.353605e+03,0.000000e+00
3.356498e+03,0.000000e+00
3.359391e+03,0.000000e+00
3.362284e+03,0.000000e+00
3.365176e+03,0.000000e+00
3.368069e+03,0.000000e+00
3.370962e+03,0.000000e+00
3.373854e+03,0.000000e+00
3.376747e+03,0.000000e+00
3.379640e+03,0.000000e+00
3.382532e+03,0.000000e+00
3.385425e+03,0.000000e+00
3.388318e+03,0.000000e+00
3.391211e+03,0.000000e+00
3.394103e+03,0.000000e+00
3.396996e+03,0.000000e+00
3.399889e+03,0.000000e+00
3.402781e+03,0.000000e+00
3.405674e+03,0.000000e+00
3.408567e+03,0.000000e+00
3.411459e+03,0.000000e+00
3.414352e+03,0.000000e+00
3.417245e+03,0.000000e+00
3.420138e+03,0.000000e+00
3.423030e+03,0.000000e+00
3.425923e+03,0.000000e+00
3.428816e+03,0.000000e+00
3.431708e+03,0.000000e+00
3.434601e+03,0.000000e+00
3.437494e+03,0.000000e+00
3.440386e+03,0.000000e+00
3.443279e+03,0.000000e+00
3.446172e+03,0.000000e+00
3.449065e+03,0.000000e+00
3.451957e+03,0.000000e+00
3.454850e+03,0.000000e+00
3.457743e+03,0.000000e+00
3.460635e+03,0.000000e+00
3.463528e+03,0.000000e+00
3.466421e+03,0.000000e+00
3.469313e+03,0.000000e+00
3.472206e+03,0.000000e+00
3.475099e+03,0.000000e+00
3.477992e+03,0.000000e+00
3.480884e+03,0.000000e+00
3.483777e+03,0.000000e+00
3.486670e+03,0.000000e+00
3.489563e+03,0.000000e+00
3.492455e+03,0.000000e+00
3.495348e+03,0.000000e+00
3.498240e+03,0.000000e+00
3.500169e+03,0.000000e+00