File: RAMAN_data/13042023_r1/black fibre7.CSV
9.931763e+01,0.000000e+00
1.022103e+02,0.000000e+00
1.051030e+02,0.000000e+00
1.079957e+02,0.000000e+00
1.108884e+02,0.000000e+00
1.137811e+02,0.000000e+00
1.166738e+02,0.000000e+00
1.195665e+02,0.000000e+00
1.224592e+02,0.000000e+00
1.253519e+02,0.000000e+00
1.282446e+02,0.000000e+00
1.311373e+02,0.000000e+00
1.340300e+02,0.000000e+00
1.369227e+02,0.000000e+00
1.398154e+02,0.000000e+00
1.427081e+02,0.000000e+00
1.456008e+02,0.000000e+00
1.484935e+02,0.000000e+00
1.513862e+02,0.000000e+00
1.542789e+02,0.000000e+00
1.571716e+02,0.000000e+00
1.600643e+02,0.000000e+00
1.629570e+02,0.000000e+00
1.658497e+02,0.000000e+00
1.687424e+02,0.000000e+00
1.716351e+02,0.000000e+00
1.745278e+02,0.000000e+00
1.774205e+02,0.000000e+00
1.803132e+02,0.000000e+00
1.832059e+02,0.000000e+00
1.860986e+02,0.000000e+00
1.889913e+02,0.000000e+00
1.918840e+02,0.000000e+00
1.947767e+02,0.000000e+00
1.976694e+02,0.000000e+00
2.005621e+02,1.015818e+04
2.034548e+02,1.017584e+04
2.063475e+02,1.018178e+04
2.092402e+02,1.014735e+04
2.121329e+02,1.017556e+04
2.150256e+02,1.015103e+04
2.179183e+02,1.020137e+04
2.208110e+02,1.017699e+04
2.237037e+02,1.018523e+04
2.265964e+02,1.015407e+04
2.294892e+02,1.015601e+04
2.323819e+02,1.019746e+04
2.352746e+02,1.021433e+04
2.381673e+02,1.020954e+04
2.410600e+02,1.017321e+04
2.439527e+02,1.019888e+04
2.468454e+02,1.020422e+04
2.497381e+02,1.019711e+04
2.526308e+02,1.021953e+04
2.555235e+02,1.021301e+04
2.584161e+02,1.018556e+04
2.613088e+02,1.021405e+04
2.642015e+02,1.023954e+04
2.670942e+02,1.022189e+04
2.699869e+02,1.022495e+04
2.728796e+02,1.020372e+04
2.757723e+02,1.024006e+04
2.786650e+02,1.026732e+04
2.815577e+02,1.025739e+04
2.844504e+02,1.024113e+04
2.873431e+02,1.021775e+04
2.902358e+02,1.021729e+04
2.931285e+02,1.022745e+04
2.960212e+02,1.024776e+04
2.989139e+02,1.024445e+04
3.018066e+02,1.021746e+04
3.046993e+02,1.021885e+04
3.075920e+02,1.022799e+04
3.104847e+02,1.024442e+04
3.133774e+02,1.022621e+04
3.162701e+02,1.025055e+04
3.191628e+02,1.022613e+04
3.220555e+02,1.015293e+04
3.249482e+02,1.020430e+04
3.278409e+02,1.020016e+04
3.307336e+02,1.018188e+04
3.336263e+02,1.019010e+04
3.365190e+02,1.012834e+04
3.394117e+02,1.011088e+04
3.423044e+02,1.011826e+04
3.451971e+02,1.009333e+04
3.480898e+02,1.008328e+04
3.509825e+02,1.001621e+04
3.538752e+02,1.001575e+04
3.567680e+02,1.002198e+04
3.596607e+02,1.002350e+04
3.625534e+02,1.001308e+04
3.654461e+02,9.979272e+03
3.683388e+02,9.953361e+03
3.712315e+02,9.925632e+03
3.741242e+02,9.907421e+03
3.770169e+02,9.910582e+03
3.799096e+02,9.905269e+03
3.828023e+02,9.850786e+03
3.856950e+02,9.849129e+03
3.885877e+02,9.849828e+03
3.914804e+02,9.811792e+03
3.943731e+02,9.760114e+03
3.972658e+02,9.763412e+03
4.001585e+02,9.753654e+03
4.030512e+02,9.739068e+03
4.059439e+02,9.729131e+03
4.088366e+02,9.709501e+03
4.117293e+02,9.673874e+03
4.146220e+02,9.656531e+03
4.175147e+02,9.614165e+03
4.204074e+02,9.659655e+03
4.233001e+02,9.626778e+03
4.261928e+02,9.611494e+03
4.290855e+02,9.568274e+03
4.319782e+02,9.562041e+03
4.348709e+02,9.541010e+03
4.377636e+02,9.547835e+03
4.406563e+02,9.498899e+03
4.435490e+02,9.494177e+03
4.464417e+02,9.447245e+03
4.493344e+02,9.446937e+03
4.522271e+02,9.456754e+03
4.551198e+02,9.435501e+03
4.580125e+02,9.416796e+03
4.609052e+02,9.400796e+03
4.637979e+02,9.357395e+03
4.666906e+02,9.371881e+03
4.695833e+02,9.344473e+03
4.724760e+02,9.335656e+03
4.753687e+02,9.311391e+03
4.782614e+02,9.286155e+03
4.811541e+02,9.275790e+03
4.840468e+02,9.272094e+03
4.869395e+02,9.251659e+03
4.898322e+02,9.235296e+03
4.927249e+02,9.199927e+03
4.956176e+02,9.213943e+03
4.985103e+02,9.171931e+03
5.014030e+02,9.188525e+03
5.042957e+02,9.156484e+03
5.071884e+02,9.135410e+03
5.100811e+02,9.102041e+03
5.129738e+02,9.075629e+03
5.158665e+02,9.073465e+03
5.187592e+02,9.079804e+03
5.216519e+02,9.039900e+03
5.245446e+02,9.027813e+03
5.274373e+02,9.059650e+03
5.303300e+02,8.985354e+03
5.332227e+02,8.962844e+03
5.361154e+02,8.956081e+03
5.390081e+02,8.931265e+03
5.419008e+02,8.928114e+03
5.447935e+02,8.901485e+03
5.476862e+02,8.899228e+03
5.505789e+02,8.860216e+03
5.534716e+02,8.834083e+03
5.563643e+02,8.803151e+03
5.592570e+02,8.855850e+03
5.621497e+02,8.832700e+03
5.650424e+02,8.799985e+03
5.679351e+02,8.797927e+03
5.708278e+02,8.742255e+03
5.737205e+02,8.747639e+03
5.766132e+02,8.744453e+03
5.795059e+02,8.743501e+03
5.823986e+02,8.683353e+03
5.852913e+02,8.660500e+03
5.881840e+02,8.646259e+03
5.910767e+02,8.629373e+03
5.939694e+02,8.650013e+03
5.968621e+02,8.628229e+03
5.997548e+02,8.590351e+03
6.026475e+02,8.571340e+03
6.055402e+02,8.584885e+03
6.084329e+02,8.600185e+03
6.113256e+02,8.557976e+03
6.142183e+02,8.533941e+03
6.171110e+02,8.467939e+03
6.200037e+02,8.495830e+03
6.228964e+02,8.491913e+03
6.257891e+02,8.490190e+03
6.286818e+02,8.447021e+03
6.315745e+02,8.410649e+03
6.344672e+02,8.415066e+03
6.373599e+02,8.411146e+03
6.402526e+02,8.379885e+03
6.431453e+02,8.366151e+03
6.460380e+02,8.332820e+03
6.489307e+02,8.337861e+03
6.518234e+02,8.343675e+03
6.547161e+02,8.318463e+03
6.576088e+02,8.299367e+03
6.605015e+02,8.280112e+03
6.633942e+02,8.256243e+03
6.662869e+02,8.233176e+03
6.691796e+02,8.287548e+03
6.720723e+02,8.264943e+03
6.749650e+02,8.205962e+03
6.778577e+02,8.195081e+03
6.807504e+02,8.144913e+03
6.836431e+02,8.152100e+03
6.865358e+02,8.152880e+03
6.894285e+02,8.117598e+03
6.923212e+02,8.123226e+03
6.952139e+02,8.095658e+03
6.981066e+02,8.100448e+03
7.009993e+02,8.090817e+03
7.038920e+02,8.066403e+03
7.067847e+02,8.062458e+03
7.096774e+02,8.003458e+03
7.125701e+02,8.032885e+03
7.154628e+02,8.027003e+03
7.183555e+02,7.991023e+03
7.212482e+02,7.988770e+03
7.241409e+02,7.969834e+03
7.270336e+02,7.928839e+03
7.299263e+02,7.985662e+03
7.328190e+02,7.927929e+03
7.357117e+02,7.896468e+03
7.386044e+02,7.908299e+03
7.414971e+02,7.877530e+03
7.443898e+02,7.870952e+03
7.472825e+02,7.852949e+03
7.501752e+02,7.856907e+03
7.530679e+02,7.817300e+03
7.559606e+02,7.810483e+03
7.588533e+02,7.809416e+03
7.617460e+02,7.785245e+03
7.646387e+02,7.788877e+03
7.675314e+02,7.782197e+03
7.704241e+02,7.742986e+03
7.733168e+02,7.718595e+03
7.762095e+02,7.713407e+03
7.791022e+02,7.700726e+03
7.819949e+02,7.656434e+03
7.848876e+02,7.669700e+03
7.877803e+02,7.645293e+03
7.906730e+02,7.641624e+03
7.935657e+02,7.654080e+03
7.964584e+02,7.629306e+03
7.993511e+02,7.606562e+03
8.022438e+02,7.566688e+03
8.051365e+02,7.585183e+03
8.080292e+02,7.581516e+03
8.109219e+02,7.532580e+03
8.138146e+02,7.550749e+03
8.167073e+02,7.497742e+03
8.196000e+02,7.499098e+03
8.224927e+02,7.494461e+03
8.253854e+02,7.495162e+03
8.282781e+02,7.469795e+03
8.311708e+02,7.463427e+03
8.340635e+02,7.470532e+03
8.369562e+02,7.465750e+03
8.398489e+02,7.431258e+03
8.427416e+02,7.380563e+03
8.456343e+02,7.410429e+03
8.485270e+02,7.382795e+03
8.514197e+02,7.340079e+03
8.543124e+02,7.349505e+03
8.572051e+02,7.338516e+03
8.600978e+02,7.319266e+03
8.629905e+02,7.329797e+03
8.658832e+02,7.281480e+03
8.687759e+02,7.295194e+03
8.716686e+02,7.294040e+03
8.745613e+02,7.241483e+03
8.774540e+02,7.238625e+03
8.803467e+02,7.256991e+03
8.832394e+02,7.230863e+03
8.861321e+02,7.252549e+03
8.890248e+02,7.223463e+03
8.919175e+02,7.197043e+03
8.948102e+02,7.178404e+03
8.977029e+02,7.172453e+03
9.005956e+02,7.139110e+03
9.034883e+02,7.170889e+03
9.063810e+02,7.124536e+03
9.092737e+02,7.121986e+03
9.121664e+02,7.103197e+03
9.150591e+02,7.081306e+03
9.179518e+02,7.107326e+03
9.208445e+02,7.055143e+03
9.237372e+02,7.024838e+03
9.266299e+02,7.027697e+03
9.295226e+02,7.008979e+03
9.324153e+02,7.043821e+03
9.353080e+02,7.001266e+03
9.382007e+02,6.964211e+03
9.410934e+02,6.973204e+03
9.439861e+02,6.945521e+03
9.468788e+02,6.958765e+03
9.497715e+02,6.957017e+03
9.526642e+02,6.930076e+03
9.555569e+02,6.914117e+03
9.584496e+02,6.928453e+03
9.613423e+02,6.925501e+03
9.642350e+02,6.884856e+03
9.671277e+02,6.855318e+03
9.700204e+02,6.870375e+03
9.729131e+02,6.791413e+03
9.758058e+02,6.838931e+03
9.786985e+02,6.832391e+03
9.815912e+02,6.799812e+03
9.844839e+02,6.774169e+03
9.873766e+02,6.766427e+03
9.902693e+02,6.773247e+03
9.931620e+02,6.781633e+03
9.960547e+02,6.764001e+03
9.989474e+02,6.719584e+03
1.001840e+03,6.704025e+03
1.004733e+03,6.693548e+03
1.007626e+03,6.691894e+03
1.010518e+03,6.714403e+03
1.013411e+03,6.659297e+03
1.016304e+03,6.614017e+03
1.019196e+03,6.657216e+03
1.022089e+03,6.647611e+03
1.024982e+03,6.640188e+03
1.027875e+03,6.629587e+03
1.030767e+03,6.588104e+03
1.033660e+03,6.566062e+03
1.036552e+03,6.601877e+03
1.039445e+03,6.586128e+03
1.042338e+03,6.578131e+03
1.045231e+03,6.557443e+03
1.048123e+03,6.536246e+03
1.051016e+03,6.536929e+03
1.053909e+03,6.522273e+03
1.056802e+03,6.508833e+03
1.059694e+03,6.493735e+03
1.062587e+03,6.476854e+03
1.065479e+03,6.469010e+03
1.068372e+03,6.462442e+03
1.071265e+03,6.457546e+03
1.074158e+03,6.488322e+03
1.077050e+03,6.416957e+03
1.079943e+03,6.436357e+03
1.082836e+03,6.424280e+03
1.085729e+03,6.427274e+03
1.088621e+03,6.445268e+03
1.091514e+03,6.385454e+03
1.094406e+03,6.360604e+03
1.097299e+03,6.380228e+03
1.100192e+03,6.372319e+03
1.103085e+03,6.355303e+03
1.105977e+03,6.349649e+03
1.108870e+03,6.336219e+03
1.111763e+03,6.306750e+03
1.114656e+03,6.310906e+03
1.117548e+03,6.329765e+03
1.120441e+03,6.307310e+03
1.123334e+03,6.268162e+03
1.126226e+03,6.240078e+03
1.129119e+03,6.245929e+03
1.132012e+03,6.257171e+03
1.134904e+03,6.246821e+03
1.137797e+03,6.214034e+03
1.140690e+03,6.224845e+03
1.143583e+03,6.207236e+03
1.146475e+03,6.185277e+03
1.149368e+03,6.178170e+03
1.152261e+03,6.191229e+03
1.155153e+03,6.177195e+03
1.158046e+03,6.161106e+03
1.160939e+03,6.156497e+03
1.163831e+03,6.149466e+03
1.166724e+03,6.128858e+03
1.169617e+03,6.076575e+03
1.172510e+03,6.106846e+03
1.175402e+03,6.079352e+03
1.178295e+03,6.074234e+03
1.181188e+03,6.075987e+03
1.184080e+03,6.036628e+03
1.186973e+03,6.031579e+03
1.189866e+03,6.029173e+03
1.192758e+03,6.019364e+03
1.195651e+03,6.008353e+03
1.198544e+03,6.023670e+03
1.201437e+03,5.993602e+03
1.204329e+03,5.963125e+03
1.207222e+03,5.970838e+03
1.210115e+03,5.978669e+03
1.213007e+03,5.952552e+03
1.215900e+03,5.929342e+03
1.218793e+03,5.917922e+03
1.221685e+03,5.910743e+03
1.224578e+03,5.896628e+03
1.227471e+03,5.921698e+03
1.230364e+03,5.904464e+03
1.233256e+03,5.850149e+03
1.236149e+03,5.881488e+03
1.239042e+03,5.857049e+03
1.241934e+03,5.842432e+03
1.244827e+03,5.828998e+03
1.247720e+03,5.834125e+03
1.250612e+03,5.815715e+03
1.253505e+03,5.804605e+03
1.256398e+03,5.802506e+03
1.259291e+03,5.803011e+03
1.262183e+03,5.791169e+03
1.265076e+03,5.751477e+03
1.267969e+03,5.745080e+03
1.270861e+03,5.777493e+03
1.273754e+03,5.756914e+03
1.276647e+03,5.748021e+03
1.279539e+03,5.713075e+03
1.282432e+03,5.712204e+03
1.285325e+03,5.707417e+03
1.288218e+03,5.706592e+03
1.291110e+03,5.698690e+03
1.294003e+03,5.686907e+03
1.296896e+03,5.659526e+03
1.299788e+03,5.647587e+03
1.302681e+03,5.623510e+03
1.305574e+03,5.647266e+03
1.308466e+03,5.630250e+03
1.311359e+03,5.598958e+03
1.314252e+03,5.591284e+03
1.317145e+03,5.586521e+03
1.320037e+03,5.584628e+03
1.322930e+03,5.578294e+03
1.325823e+03,5.562135e+03
1.328715e+03,5.542083e+03
1.331608e+03,5.552427e+03
1.334501e+03,5.554967e+03
1.337393e+03,5.539574e+03
1.340286e+03,5.518424e+03
1.343179e+03,5.500936e+03
1.346072e+03,5.498670e+03
1.348964e+03,5.480236e+03
1.351857e+03,5.483539e+03
1.354750e+03,5.453771e+03
1.357642e+03,5.437694e+03
1.360535e+03,5.438298e+03
1.363428e+03,5.427357e+03
1.366320e+03,5.429458e+03
1.369213e+03,5.408826e+03
1.372106e+03,5.409445e+03
1.374999e+03,5.369813e+03
1.377891e+03,5.381683e+03
1.380784e+03,5.363417e+03
1.383677e+03,5.336121e+03
1.386569e+03,5.334349e+03
1.389462e+03,5.312713e+03
1.392355e+03,5.314891e+03
1.395247e+03,5.315269e+03
1.398140e+03,5.323447e+03
1.401033e+03,5.296475e+03
1.403926e+03,5.282536e+03
1.406818e+03,5.257655e+03
1.409711e+03,5.256958e+03
1.412604e+03,5.245317e+03
1.415496e+03,5.245567e+03
1.418389e+03,5.236174e+03
1.421282e+03,5.223875e+03
1.424174e+03,5.209108e+03
1.427067e+03,5.174451e+03
1.429960e+03,5.176926e+03
1.432853e+03,5.172715e+03
1.435745e+03,5.147732e+03
1.438638e+03,5.158757e+03
1.441531e+03,5.140670e+03
1.444423e+03,5.119817e+03
1.447316e+03,5.118706e+03
1.450209e+03,5.094493e+03
1.453101e+03,5.087093e+03
1.455994e+03,5.093333e+03
1.458887e+03,5.074717e+03
1.461780e+03,5.057073e+03
1.464672e+03,5.062344e+03
1.467565e+03,5.031648e+03
1.470458e+03,5.047218e+03
1.473350e+03,5.019693e+03
1.476243e+03,5.035851e+03
1.479136e+03,4.998982e+03
1.482028e+03,4.980967e+03
1.484921e+03,4.975274e+03
1.487814e+03,4.963177e+03
1.490707e+03,4.962581e+03
1.493599e+03,4.926606e+03
1.496492e+03,4.924533e+03
1.499385e+03,4.934345e+03
1.502277e+03,4.932698e+03
1.505170e+03,4.928817e+03
1.508063e+03,4.893703e+03
1.510955e+03,4.885939e+03
1.513848e+03,4.871271e+03
1.516741e+03,4.865397e+03
1.519634e+03,4.855408e+03
1.522526e+03,4.875857e+03
1.525419e+03,4.858519e+03
1.528312e+03,4.829278e+03
1.531204e+03,4.821750e+03
1.534097e+03,4.808421e+03
1.536990e+03,4.802168e+03
1.539882e+03,4.792127e+03
1.542775e+03,4.780828e+03
1.545668e+03,4.766970e+03
1.548561e+03,4.756331e+03
1.551453e+03,4.764757e+03
1.554346e+03,4.770732e+03
1.557239e+03,4.748134e+03
1.560131e+03,4.715385e+03
1.563024e+03,4.725677e+03
1.565917e+03,4.723193e+03
1.568809e+03,4.722648e+03
1.571702e+03,4.709974e+03
1.574595e+03,4.691530e+03
1.577488e+03,4.675119e+03
1.580380e+03,4.698457e+03
1.583273e+03,4.674121e+03
1.586166e+03,4.651657e+03
1.589058e+03,4.647750e+03
1.591951e+03,4.640272e+03
1.594844e+03,4.640813e+03
1.597736e+03,4.615639e+03
1.600629e+03,4.620259e+03
1.603522e+03,4.610937e+03
1.606415e+03,4.588794e+03
1.609307e+03,4.555679e+03
1.612200e+03,4.582479e+03
1.615093e+03,4.536321e+03
1.617985e+03,4.577817e+03
1.620878e+03,4.510260e+03
1.623771e+03,4.496516e+03
1.626663e+03,4.519445e+03
1.629556e+03,4.495653e+03
1.632449e+03,4.492569e+03
1.635342e+03,4.468668e+03
1.638234e+03,4.456675e+03
1.641127e+03,4.447158e+03
1.644020e+03,4.461313e+03
1.646912e+03,4.442798e+03
1.649805e+03,4.417221e+03
1.652698e+03,4.411772e+03
1.655590e+03,4.387154e+03
1.658483e+03,4.410403e+03
1.661376e+03,4.377902e+03
1.664269e+03,4.359696e+03
1.667161e+03,4.365150e+03
1.670054e+03,4.371001e+03
1.672947e+03,4.344051e+03
1.675839e+03,4.338219e+03
1.678732e+03,4.328688e+03
1.681625e+03,4.296936e+03
1.684517e+03,4.299276e+03
1.687410e+03,4.280226e+03
1.690303e+03,4.283116e+03
1.693196e+03,4.247847e+03
1.696088e+03,4.260606e+03
1.698981e+03,4.249813e+03
1.701874e+03,4.241949e+03
1.704766e+03,4.238618e+03
1.707659e+03,4.239155e+03
1.710552e+03,4.213933e+03
1.713444e+03,4.199910e+03
1.716337e+03,4.175639e+03
1.719230e+03,4.175915e+03
1.722123e+03,4.199382e+03
1.725015e+03,4.150541e+03
1.727908e+03,4.142640e+03
1.730801e+03,4.144483e+03
1.733693e+03,4.132746e+03
1.736586e+03,4.126562e+03
1.739479e+03,4.104870e+03
1.742371e+03,4.103402e+03
1.745264e+03,4.107976e+03
1.748157e+03,4.087935e+03
1.751050e+03,4.069347e+03
1.753942e+03,4.079828e+03
1.756835e+03,4.071208e+03
1.759728e+03,4.046219e+03
1.762620e+03,4.039810e+03
1.765513e+03,4.043201e+03
1.768406e+03,4.043388e+03
1.771298e+03,4.019628e+03
1.774191e+03,4.018869e+03
1.777084e+03,4.025770e+03
1.779977e+03,3.975429e+03
1.782869e+03,3.982537e+03
1.785762e+03,4.003505e+03
1.788655e+03,3.983106e+03
1.791547e+03,3.953866e+03
1.794440e+03,3.935538e+03
1.797333e+03,3.951897e+03
1.800225e+03,3.922990e+03
1.803118e+03,3.914501e+03
1.806011e+03,3.858896e+03
1.808904e+03,3.893992e+03
1.811796e+03,3.881020e+03
1.814689e+03,3.891156e+03
1.817582e+03,3.866365e+03
1.820474e+03,3.850245e+03
1.823367e+03,3.846997e+03
1.826260e+03,3.816196e+03
1.829152e+03,3.827159e+03
1.832045e+03,3.821880e+03
1.834938e+03,3.838013e+03
1.837831e+03,3.813906e+03
1.840723e+03,3.769376e+03
1.843616e+03,3.795336e+03
1.846509e+03,3.759357e+03
1.849401e+03,3.765709e+03
1.852294e+03,3.731376e+03
1.855187e+03,3.707515e+03
1.858079e+03,3.741027e+03
1.860972e+03,3.707989e+03
1.863865e+03,3.719654e+03
1.866758e+03,3.701643e+03
1.869650e+03,3.695050e+03
1.872543e+03,3.694276e+03
1.875436e+03,3.710160e+03
1.878328e+03,3.681430e+03
1.881221e+03,3.634000e+03
1.884114e+03,3.645438e+03
1.887006e+03,3.623867e+03
1.889899e+03,3.661839e+03
1.892792e+03,3.644376e+03
1.895685e+03,3.596200e+03
1.898577e+03,3.612203e+03
1.901470e+03,3.576071e+03
1.904363e+03,3.595917e+03
1.907255e+03,3.574300e+03
1.910148e+03,3.583617e+03
1.913041e+03,3.565872e+03
1.915933e+03,3.538339e+03
1.918826e+03,3.558854e+03
1.921719e+03,3.533724e+03
1.924612e+03,3.523281e+03
1.927504e+03,3.526864e+03
1.930397e+03,3.470356e+03
1.933290e+03,3.489309e+03
1.936182e+03,3.493496e+03
1.939075e+03,3.452975e+03
1.941968e+03,3.439763e+03
1.944860e+03,3.461085e+03
1.947753e+03,3.432891e+03
1.950646e+03,3.417720e+03
1.953539e+03,3.411086e+03
1.956431e+03,3.423335e+03
1.959324e+03,3.412240e+03
1.962217e+03,3.407138e+03
1.965109e+03,3.364710e+03
1.968002e+03,3.397310e+03
1.970895e+03,3.380493e+03
1.973787e+03,3.354417e+03
1.976680e+03,3.346915e+03
1.979573e+03,3.347517e+03
1.982466e+03,3.328292e+03
1.985358e+03,3.345648e+03
1.988251e+03,3.338675e+03
1.991144e+03,3.316907e+03
1.994036e+03,3.301644e+03
1.996929e+03,3.258620e+03
1.999822e+03,3.296594e+03
2.002714e+03,3.308046e+03
2.005607e+03,3.255928e+03
2.008500e+03,3.239200e+03
2.011393e+03,3.222684e+03
2.014285e+03,3.243826e+03
2.017178e+03,3.214919e+03
2.020071e+03,3.211270e+03
2.022963e+03,3.198154e+03
2.025856e+03,3.198199e+03
2.028749e+03,3.213516e+03
2.031641e+03,3.209615e+03
2.034534e+03,3.172059e+03
2.037427e+03,3.173636e+03
2.040320e+03,3.150833e+03
2.043212e+03,3.161690e+03
2.046105e+03,3.159395e+03
2.048998e+03,3.122412e+03
2.051890e+03,3.142846e+03
2.054783e+03,3.102374e+03
2.057676e+03,3.117187e+03
2.060568e+03,3.100332e+03
2.063461e+03,3.081991e+03
2.066354e+03,3.080626e+03
2.069247e+03,3.050547e+03
2.072139e+03,3.053237e+03
2.075032e+03,3.051267e+03
2.077925e+03,3.051155e+03
2.080817e+03,3.048532e+03
2.083710e+03,3.033459e+03
2.086603e+03,3.022277e+03
2.089496e+03,3.008425e+03
2.092388e+03,2.982973e+03
2.095281e+03,2.976988e+03
2.098174e+03,2.986788e+03
2.101066e+03,2.961107e+03
2.103959e+03,2.966500e+03
2.106852e+03,2.953515e+03
2.109744e+03,2.968134e+03
2.112637e+03,2.937623e+03
2.115530e+03,2.895830e+03
2.118422e+03,2.941820e+03
2.121315e+03,2.937153e+03
2.124208e+03,2.907017e+03
2.127101e+03,2.883304e+03
2.129993e+03,2.894407e+03
2.132886e+03,2.882318e+03
2.135779e+03,2.883208e+03
2.138671e+03,2.862550e+03
2.141564e+03,2.858666e+03
2.144457e+03,2.847851e+03
2.147350e+03,2.829621e+03
2.150242e+03,2.832262e+03
2.153135e+03,2.835240e+03
2.156028e+03,2.829018e+03
2.158920e+03,2.829246e+03
2.161813e+03,2.804970e+03
2.164706e+03,2.785654e+03
2.167598e+03,2.776569e+03
2.170491e+03,2.785239e+03
2.173384e+03,2.768033e+03
2.176277e+03,2.753756e+03
2.179169e+03,2.747208e+03
2.182062e+03,2.756901e+03
2.184955e+03,2.732336e+03
2.187847e+03,2.743922e+03
2.190740e+03,2.691282e+03
2.193633e+03,2.714100e+03
2.196525e+03,2.701277e+03
2.199418e+03,2.697746e+03
2.202311e+03,2.688159e+03
2.205204e+03,2.674389e+03
2.208096e+03,2.661357e+03
2.210989e+03,2.655579e+03
2.213882e+03,2.652016e+03
2.216774e+03,2.673786e+03
2.219667e+03,2.630218e+03
2.222560e+03,2.600777e+03
2.225452e+03,2.613196e+03
2.228345e+03,2.610036e+03
2.231238e+03,2.635359e+03
2.234131e+03,2.608924e+03
2.237023e+03,2.606690e+03
2.239916e+03,2.579260e+03
2.242809e+03,2.558139e+03
2.245701e+03,2.566645e+03
2.248594e+03,2.556828e+03
2.251487e+03,2.562723e+03
2.254379e+03,2.532141e+03
2.257272e+03,2.535167e+03
2.260165e+03,2.516356e+03
2.263058e+03,2.501381e+03
2.265950e+03,2.517152e+03
2.268843e+03,2.509268e+03
2.271736e+03,2.471324e+03
2.274628e+03,2.489493e+03
2.277521e+03,2.508782e+03
2.280414e+03,2.475969e+03
2.283306e+03,2.473031e+03
2.286199e+03,2.437009e+03
2.289092e+03,2.446611e+03
2.291985e+03,2.427866e+03
2.294877e+03,2.426199e+03
2.297770e+03,2.441014e+03
2.300663e+03,2.424899e+03
2.303555e+03,2.399727e+03
2.306448e+03,2.376638e+03
2.309341e+03,2.392599e+03
2.312233e+03,2.387916e+03
2.315126e+03,2.390746e+03
2.318019e+03,2.359725e+03
2.320912e+03,2.356221e+03
2.323804e+03,2.355309e+03
2.326697e+03,2.345323e+03
2.329590e+03,2.374793e+03
2.332482e+03,2.343310e+03
2.335375e+03,2.316694e+03
2.338268e+03,2.323439e+03
2.341160e+03,2.299223e+03
2.344053e+03,2.337208e+03
2.346946e+03,2.295906e+03
2.349839e+03,2.288149e+03
2.352731e+03,2.280177e+03
2.355624e+03,2.302974e+03
2.358517e+03,2.288866e+03
2.361409e+03,2.293828e+03
2.364302e+03,2.275166e+03
2.367195e+03,2.238256e+03
2.370087e+03,2.236296e+03
2.372980e+03,2.241619e+03
2.375873e+03,2.228772e+03
2.378766e+03,2.222614e+03
2.381658e+03,2.223152e+03
2.384551e+03,2.220424e+03
2.387444e+03,2.222252e+03
2.390336e+03,2.194813e+03
2.393229e+03,2.186413e+03
2.396122e+03,2.209729e+03
2.399014e+03,2.191868e+03
2.401907e+03,2.174717e+03
2.404800e+03,2.169741e+03
2.407693e+03,2.170869e+03
2.410585e+03,2.144658e+03
2.413478e+03,2.158281e+03
2.416371e+03,2.142475e+03
2.419263e+03,2.128713e+03
2.422156e+03,2.140413e+03
2.425049e+03,2.123035e+03
2.427941e+03,2.130989e+03
2.430834e+03,2.110712e+03
2.433727e+03,2.122080e+03
2.436620e+03,2.102781e+03
2.439512e+03,2.089607e+03
2.442405e+03,2.105041e+03
2.445298e+03,2.083256e+03
2.448190e+03,2.091962e+03
2.451083e+03,2.067024e+03
2.453976e+03,2.065507e+03
2.456868e+03,2.055217e+03
2.459761e+03,2.063302e+03
2.462654e+03,2.044146e+03
2.465547e+03,2.049969e+03
2.468439e+03,2.027766e+03
2.471332e+03,2.042078e+03
2.474225e+03,2.047531e+03
2.477117e+03,2.028901e+03
2.480010e+03,2.022264e+03
2.482903e+03,2.020065e+03
2.485795e+03,2.008398e+03
2.488688e+03,1.990807e+03
2.491581e+03,1.984330e+03
2.494474e+03,1.989739e+03
2.497366e+03,1.985736e+03
2.500259e+03,1.985634e+03
2.503152e+03,1.983679e+03
2.506044e+03,1.961582e+03
2.508937e+03,1.956366e+03
2.511830e+03,1.963128e+03
2.514722e+03,1.952234e+03
2.517615e+03,1.956195e+03
2.520508e+03,1.948395e+03
2.523401e+03,1.930068e+03
2.526293e+03,1.943112e+03
2.529186e+03,1.933163e+03
2.532079e+03,1.927016e+03
2.534971e+03,1.918242e+03
2.537864e+03,1.912646e+03
2.540757e+03,1.895765e+03
2.543649e+03,1.915553e+03
2.546542e+03,1.898949e+03
2.549435e+03,1.891563e+03
2.552328e+03,1.909501e+03
2.555220e+03,1.911422e+03
2.558113e+03,1.882000e+03
2.561006e+03,1.892402e+03
2.563898e+03,1.883722e+03
2.566791e+03,1.870571e+03
2.569684e+03,1.881749e+03
2.572576e+03,1.854742e+03
2.575469e+03,1.861332e+03
2.578362e+03,1.851759e+03
2.581255e+03,1.852315e+03
2.584147e+03,1.840698e+03
2.587040e+03,1.834856e+03
2.589933e+03,1.846189e+03
2.592825e+03,1.831540e+03
2.595718e+03,1.827954e+03
2.598611e+03,1.827088e+03
2.601503e+03,1.811794e+03
2.604396e+03,1.835259e+03
2.607289e+03,1.810948e+03
2.610182e+03,1.783063e+03
2.613074e+03,1.789519e+03
2.615967e+03,1.786491e+03
2.618860e+03,1.782100e+03
2.621752e+03,1.777256e+03
2.624645e+03,1.771597e+03
2.627538e+03,1.774358e+03
2.630430e+03,1.779652e+03
2.633323e+03,1.771993e+03
2.636216e+03,1.762232e+03
2.639109e+03,1.752334e+03
2.642001e+03,1.755606e+03
2.644894e+03,1.748964e+03
2.647787e+03,1.742576e+03
2.650679e+03,1.746631e+03
2.653572e+03,1.724436e+03
2.656465e+03,1.761676e+03
2.659357e+03,1.728731e+03
2.662250e+03,1.723665e+03
2.665143e+03,1.716045e+03
2.668036e+03,1.728915e+03
2.670928e+03,1.712135e+03
2.673821e+03,1.716527e+03
2.676714e+03,1.703158e+03
2.679606e+03,1.695725e+03
2.682499e+03,1.691267e+03
2.685392e+03,1.714969e+03
2.688284e+03,1.677318e+03
2.691177e+03,1.676137e+03
2.694070e+03,1.682778e+03
2.696963e+03,1.671652e+03
2.699855e+03,1.670155e+03
2.702748e+03,1.639055e+03
2.705641e+03,1.674035e+03
2.708533e+03,1.654298e+03
2.711426e+03,1.663085e+03
2.714319e+03,1.659554e+03
2.717211e+03,1.632574e+03
2.720104e+03,1.655377e+03
2.722997e+03,1.640170e+03
2.725890e+03,1.671690e+03
2.728782e+03,1.635136e+03
2.731675e+03,1.633260e+03
2.734568e+03,1.632370e+03
2.737460e+03,1.642155e+03
2.740353e+03,1.604839e+03
2.743246e+03,1.614347e+03
2.746138e+03,1.607027e+03
2.749031e+03,1.610676e+03
2.751924e+03,1.629030e+03
2.754817e+03,1.601664e+03
2.757709e+03,1.606031e+03
2.760602e+03,1.596899e+03
2.763495e+03,1.612999e+03
2.766387e+03,1.583138e+03
2.769280e+03,1.595064e+03
2.772173e+03,1.579166e+03
2.775065e+03,1.584946e+03
2.777958e+03,1.564719e+03
2.780851e+03,1.585033e+03
2.783744e+03,1.559069e+03
2.786636e+03,1.568169e+03
2.789529e+03,1.562952e+03
2.792422e+03,1.571942e+03
2.795314e+03,1.570097e+03
2.798207e+03,1.562465e+03
2.801100e+03,1.554580e+03
2.803992e+03,1.546748e+03
2.806885e+03,1.554108e+03
2.809778e+03,1.555190e+03
2.812671e+03,1.545102e+03
2.815563e+03,1.548751e+03
2.818456e+03,1.533574e+03
2.821349e+03,1.533399e+03
2.824241e+03,1.522706e+03
2.827134e+03,1.547707e+03
2.830027e+03,1.517190e+03
2.832919e+03,1.530027e+03
2.835812e+03,1.527366e+03
2.838705e+03,1.533128e+03
2.841598e+03,1.513148e+03
2.844490e+03,1.503063e+03
2.847383e+03,1.501574e+03
2.850276e+03,1.491695e+03
2.853168e+03,1.507952e+03
2.856061e+03,1.509055e+03
2.858954e+03,1.505428e+03
2.861846e+03,1.496281e+03
2.864739e+03,1.520074e+03
2.867632e+03,1.500362e+03
2.870525e+03,1.508092e+03
2.873417e+03,1.495411e+03
2.876310e+03,1.499394e+03
2.879203e+03,1.507237e+03
2.882095e+03,1.477838e+03
2.884988e+03,1.491528e+03
2.887881e+03,1.464288e+03
2.890773e+03,1.492091e+03
2.893666e+03,1.482794e+03
2.896559e+03,1.493409e+03
2.899452e+03,1.486413e+03
2.902344e+03,1.486339e+03
2.905237e+03,1.476664e+03
2.908130e+03,1.441870e+03
2.911022e+03,1.469799e+03
2.913915e+03,1.466850e+03
2.916808e+03,1.465658e+03
2.919700e+03,1.450332e+03
2.922593e+03,1.454832e+03
2.925486e+03,1.429650e+03
2.928379e+03,1.424600e+03
2.931271e+03,1.431762e+03
2.934164e+03,1.443608e+03
2.937057e+03,1.455190e+03
2.939949e+03,1.443767e+03
2.942842e+03,1.423097e+03
2.945735e+03,1.465676e+03
2.948627e+03,1.425745e+03
2.951520e+03,1.408341e+03
2.954413e+03,1.448514e+03
2.957306e+03,1.469757e+03
2.960198e+03,1.423000e+03
2.963091e+03,1.435303e+03
2.965984e+03,1.406494e+03
2.968876e+03,1.390495e+03
2.971769e+03,1.402759e+03
2.974662e+03,1.354291e+03
2.977554e+03,1.407095e+03
2.980447e+03,1.382333e+03
2.983340e+03,1.396247e+03
2.986233e+03,1.359186e+03
2.989125e+03,1.405479e+03
2.992018e+03,1.400809e+03
2.994911e+03,1.394636e+03
2.997803e+03,1.374344e+03
3.000696e+03,1.371859e+03
3.003589e+03,1.351614e+03
3.006481e+03,1.353439e+03
3.009374e+03,1.373801e+03
3.012267e+03,1.333133e+03
3.015160e+03,1.383303e+03
3.018052e+03,1.369413e+03
3.020945e+03,1.356736e+03
3.023838e+03,1.369388e+03
3.026730e+03,1.362430e+03
3.029623e+03,1.353116e+03
3.032516e+03,1.345854e+03
3.035408e+03,1.335419e+03
3.038301e+03,1.350942e+03
3.041194e+03,1.356840e+03
3.044087e+03,1.330787e+03
3.046979e+03,1.348770e+03
3.049872e+03,1.353061e+03
3.052765e+03,1.382045e+03
3.055657e+03,1.347945e+03
3.058550e+03,1.394455e+03
3.061443e+03,1.354182e+03
3.064335e+03,1.354259e+03
3.067228e+03,1.350851e+03
3.070121e+03,1.353797e+03
3.073014e+03,1.348750e+03
3.075906e+03,1.346307e+03
3.078799e+03,1.324634e+03
3.081692e+03,1.339936e+03
3.084584e+03,1.345596e+03
3.087477e+03,1.325765e+03
3.090370e+03,1.362029e+03
3.093262e+03,1.335022e+03
3.096155e+03,1.351205e+03
3.099048e+03,1.342801e+03
3.101941e+03,1.335495e+03
3.104833e+03,1.351931e+03
3.107726e+03,1.315258e+03
3.110619e+03,1.329668e+03
3.113511e+03,1.346031e+03
3.116404e+03,1.357808e+03
3.119297e+03,1.318692e+03
3.122189e+03,1.350054e+03
3.125082e+03,1.318561e+03
3.127975e+03,1.376187e+03
3.130868e+03,1.322954e+03
3.133760e+03,1.353818e+03
3.136653e+03,1.340955e+03
3.139546e+03,1.400323e+03
3.142438e+03,1.374444e+03
3.145331e+03,1.362948e+03
3.148224e+03,1.347005e+03
3.151116e+03,1.313451e+03
3.154009e+03,1.335546e+03
3.156902e+03,1.333454e+03
3.159795e+03,1.291852e+03
3.162687e+03,1.317609e+03
3.165580e+03,1.321427e+03
3.168473e+03,1.359075e+03
3.171365e+03,1.296273e+03
3.174258e+03,1.349275e+03
3.177151e+03,1.365768e+03
3.180043e+03,1.300982e+03
3.182936e+03,1.341515e+03
3.185829e+03,1.343647e+03
3.188722e+03,1.346863e+03
3.191614e+03,1.406004e+03
3.194507e+03,1.359545e+03
3.197400e+03,1.307479e+03
3.200292e+03,1.361303e+03
3.203185e+03,0.000000e+00
3.206078e+03,0.000000e+00
3.208970e+03,0.000000e+00
3.211863e+03,0.000000e+00
3.214756e+03,0.000000e+00
3.217649e+03,0.000000e+00
3.220541e+03,0.000000e+00
3.223434e+03,0.000000e+00
3.226327e+03,0.000000e+00
3.229219e+03,0.000000e+00
3.232112e+03,0.000000e+00
3.235005e+03,0.000000e+00
3.237897e+03,0.000000e+00
3.240790e+03,0.000000e+00
3.243683e+03,0.000000e+00
3.246576e+03,0.000000e+00
3.249468e+03,0.000000e+00
3.252361e+03,0.000000e+00
3.255254e+03,0.000000e+00
3.258146e+03,0.000000e+00
3.261039e+03,0.000000e+00
3.263932e+03,0.000000e+00
3.266824e+03,0.000000e+00
3.269717e+03,0.000000e+00
3.272610e+03,0.000000e+00
3.275503e+03,0.000000e+00
3.278395e+03,0.000000e+00
3.281288e+03,0.000000e+00
3.284181e+03,0.000000e+00
3.287073e+03,0.000000e+00
3.289966e+03,0.000000e+00
3.292859e+03,0.000000e+00
3.295751e+03,0.000000e+00
3.298644e+03,0.000000e+00
3.301537e+03,0.000000e+00
3.304430e+03,0.000000e+00
3.307322e+03,0.000000e+00
3.310215e+03,0.000000e+00
3.313108e+03,0.000000e+00
3.316000e+03,0.000000e+00
3.318893e+03,0.000000e+00
3.321786e+03,0.000000e+00
3.324678e+03,0.000000e+00
3.327571e+03,0.000000e+00
3.330464e+03,0.000000e+00
3.333357e+03,0.000000e+00
3.336249e+03,0.000000e+00
3.339142e+03,0.000000e+00
3.342035e+03,0.000000e+00
3.344927e+03,0.000000e+00
3.347820e+03,0.000000e+00
3.350713e+03,0.000000e+00
3.353605e+03,0.000000e+00
3.356498e+03,0.000000e+00
3.359391e+03,0.000000e+00
3.362284e+03,0.000000e+00
3.365176e+03,0.000000e+00
3.368069e+03,0.000000e+00
3.370962e+03,0.000000e+00
3.373854e+03,0.000000e+00
3.376747e+03,0.000000e+00
3.379640e+03,0.000000e+00
3.382532e+03,0.000000e+00
3.385425e+03,0.000000e+00
3.388318e+03,0.000000e+00
3.391211e+03,0.000000e+00
3.394103e+03,0.000000e+00
3.396996e+03,0.000000e+00
3.399889e+03,0.000000e+00
3.402781e+03,0.000000e+00
3.405674e+03,0.000000e+00
3.408567e+03,0.000000e+00
3.411459e+03,0.000000e+00
3.414352e+03,0.000000e+00
3.417245e+03,0.000000e+00
3.420138e+03,0.000000e+00
3.423030e+03,0.000000e+00
3.425923e+03,0.000000e+00
3.428816e+03,0.000000e+00
3.431708e+03,0.000000e+00
3.434601e+03,0.000000e+00
3.437494e+03,0.000000e+00
3.440386e+03,0.000000e+00
3.443279e+03,0.000000e+00
3.446172e+03,0.000000e+00
3.449065e+03,0.000000e+00
3.451957e+03,0.000000e+00
3.454850e+03,0.000000e+00
3.457743e+03,0.000000e+00
3.460635e+03,0.000000e+00
3.463528e+03,0.000000e+00
3.466421e+03,0.000000e+00
3.469313e+03,0.000000e+00
3.472206e+03,0.000000e+00
3.475099e+03,0.000000e+00
3.477992e+03,0.000000e+00
3.480884e+03,0.000000e+00
3.483777e+03,0.000000e+00
3.486670e+03,0.000000e+00
3.489563e+03,0.000000e+00
3.492455e+03,0.000000e+00
3.495348e+03,0.000000e+00
3.498240e+03,0.000000e+00
3.500169e+03,0.000000e+00