File: RAMAN_data/13042023_r1/black fibre10.CSV
9.931763e+01,0.000000e+00
1.022103e+02,0.000000e+00
1.051030e+02,0.000000e+00
1.079957e+02,0.000000e+00
1.108884e+02,0.000000e+00
1.137811e+02,0.000000e+00
1.166738e+02,0.000000e+00
1.195665e+02,0.000000e+00
1.224592e+02,0.000000e+00
1.253519e+02,0.000000e+00
1.282446e+02,0.000000e+00
1.311373e+02,0.000000e+00
1.340300e+02,0.000000e+00
1.369227e+02,0.000000e+00
1.398154e+02,0.000000e+00
1.427081e+02,0.000000e+00
1.456008e+02,0.000000e+00
1.484935e+02,0.000000e+00
1.513862e+02,0.000000e+00
1.542789e+02,0.000000e+00
1.571716e+02,0.000000e+00
1.600643e+02,0.000000e+00
1.629570e+02,0.000000e+00
1.658497e+02,0.000000e+00
1.687424e+02,0.000000e+00
1.716351e+02,0.000000e+00
1.745278e+02,0.000000e+00
1.774205e+02,0.000000e+00
1.803132e+02,0.000000e+00
1.832059e+02,0.000000e+00
1.860986e+02,0.000000e+00
1.889913e+02,0.000000e+00
1.918840e+02,0.000000e+00
1.947767e+02,0.000000e+00
1.976694e+02,0.000000e+00
2.005621e+02,1.047981e+04
2.034548e+02,1.052034e+04
2.063475e+02,1.054905e+04
2.092402e+02,1.055023e+04
2.121329e+02,1.055114e+04
2.150256e+02,1.057994e+04
2.179183e+02,1.060919e+04
2.208110e+02,1.066058e+04
2.237037e+02,1.067718e+04
2.265964e+02,1.068749e+04
2.294892e+02,1.071674e+04
2.323819e+02,1.076485e+04
2.352746e+02,1.080180e+04
2.381673e+02,1.083688e+04
2.410600e+02,1.083374e+04
2.439527e+02,1.085114e+04
2.468454e+02,1.088743e+04
2.497381e+02,1.092293e+04
2.526308e+02,1.095972e+04
2.555235e+02,1.097477e+04
2.584161e+02,1.097703e+04
2.613088e+02,1.102010e+04
2.642015e+02,1.107264e+04
2.670942e+02,1.109793e+04
2.699869e+02,1.113241e+04
2.728796e+02,1.114520e+04
2.757723e+02,1.118599e+04
2.786650e+02,1.122956e+04
2.815577e+02,1.125743e+04
2.844504e+02,1.128402e+04
2.873431e+02,1.129060e+04
2.902358e+02,1.131700e+04
2.931285e+02,1.134644e+04
2.960212e+02,1.139113e+04
2.989139e+02,1.141448e+04
3.018066e+02,1.143413e+04
3.046993e+02,1.146692e+04
3.075920e+02,1.148884e+04
3.104847e+02,1.152890e+04
3.133774e+02,1.157925e+04
3.162701e+02,1.159601e+04
3.191628e+02,1.160888e+04
3.220555e+02,1.164175e+04
3.249482e+02,1.168424e+04
3.278409e+02,1.172364e+04
3.307336e+02,1.175929e+04
3.336263e+02,1.178546e+04
3.365190e+02,1.179593e+04
3.394117e+02,1.184477e+04
3.423044e+02,1.189110e+04
3.451971e+02,1.195065e+04
3.480898e+02,1.197636e+04
3.509825e+02,1.198931e+04
3.538752e+02,1.203903e+04
3.567680e+02,1.208796e+04
3.596607e+02,1.212734e+04
3.625534e+02,1.216518e+04
3.654461e+02,1.215143e+04
3.683388e+02,1.217766e+04
3.712315e+02,1.224066e+04
3.741242e+02,1.227460e+04
3.770169e+02,1.231209e+04
3.799096e+02,1.235504e+04
3.828023e+02,1.237077e+04
3.856950e+02,1.241141e+04
3.885877e+02,1.246715e+04
3.914804e+02,1.251785e+04
3.943731e+02,1.254654e+04
3.972658e+02,1.257221e+04
4.001585e+02,1.259577e+04
4.030512e+02,1.265072e+04
4.059439e+02,1.265439e+04
4.088366e+02,1.266665e+04
4.117293e+02,1.266041e+04
4.146220e+02,1.267415e+04
4.175147e+02,1.270089e+04
4.204074e+02,1.270360e+04
4.233001e+02,1.273395e+04
4.261928e+02,1.272591e+04
4.290855e+02,1.272061e+04
4.319782e+02,1.273087e+04
4.348709e+02,1.274104e+04
4.377636e+02,1.277569e+04
4.406563e+02,1.273786e+04
4.435490e+02,1.273601e+04
4.464417e+02,1.273928e+04
4.493344e+02,1.274311e+04
4.522271e+02,1.276328e+04
4.551198e+02,1.274634e+04
4.580125e+02,1.270956e+04
4.609052e+02,1.268682e+04
4.637979e+02,1.265583e+04
4.666906e+02,1.266111e+04
4.695833e+02,1.268672e+04
4.724760e+02,1.266199e+04
4.753687e+02,1.263699e+04
4.782614e+02,1.265032e+04
4.811541e+02,1.263315e+04
4.840468e+02,1.263409e+04
4.869395e+02,1.264044e+04
4.898322e+02,1.263830e+04
4.927249e+02,1.262895e+04
4.956176e+02,1.262763e+04
4.985103e+02,1.263141e+04
5.014030e+02,1.259339e+04
5.042957e+02,1.253683e+04
5.071884e+02,1.250536e+04
5.100811e+02,1.249918e+04
5.129738e+02,1.248883e+04
5.158665e+02,1.251159e+04
5.187592e+02,1.243625e+04
5.216519e+02,1.236604e+04
5.245446e+02,1.236349e+04
5.274373e+02,1.232729e+04
5.303300e+02,1.233121e+04
5.332227e+02,1.228204e+04
5.361154e+02,1.224289e+04
5.390081e+02,1.222361e+04
5.419008e+02,1.221301e+04
5.447935e+02,1.217225e+04
5.476862e+02,1.215703e+04
5.505789e+02,1.212083e+04
5.534716e+02,1.207701e+04
5.563643e+02,1.203818e+04
5.592570e+02,1.204051e+04
5.621497e+02,1.204238e+04
5.650424e+02,1.199559e+04
5.679351e+02,1.196910e+04
5.708278e+02,1.190856e+04
5.737205e+02,1.190359e+04
5.766132e+02,1.187354e+04
5.795059e+02,1.186579e+04
5.823986e+02,1.185193e+04
5.852913e+02,1.183521e+04
5.881840e+02,1.176960e+04
5.910767e+02,1.175438e+04
5.939694e+02,1.171646e+04
5.968621e+02,1.168392e+04
5.997548e+02,1.169865e+04
6.026475e+02,1.159183e+04
6.055402e+02,1.164457e+04
6.084329e+02,1.162304e+04
6.113256e+02,1.156032e+04
6.142183e+02,1.151106e+04
6.171110e+02,1.151350e+04
6.200037e+02,1.147337e+04
6.228964e+02,1.145575e+04
6.257891e+02,1.144043e+04
6.286818e+02,1.139434e+04
6.315745e+02,1.138067e+04
6.344672e+02,1.134483e+04
6.373599e+02,1.129541e+04
6.402526e+02,1.128247e+04
6.431453e+02,1.120374e+04
6.460380e+02,1.120284e+04
6.489307e+02,1.120763e+04
6.518234e+02,1.118603e+04
6.547161e+02,1.116042e+04
6.576088e+02,1.114199e+04
6.605015e+02,1.109260e+04
6.633942e+02,1.109733e+04
6.662869e+02,1.108562e+04
6.691796e+02,1.108587e+04
6.720723e+02,1.103780e+04
6.749650e+02,1.098497e+04
6.778577e+02,1.096226e+04
6.807504e+02,1.095117e+04
6.836431e+02,1.096648e+04
6.865358e+02,1.095052e+04
6.894285e+02,1.083767e+04
6.923212e+02,1.086936e+04
6.952139e+02,1.086943e+04
6.981066e+02,1.083633e+04
7.009993e+02,1.081553e+04
7.038920e+02,1.079024e+04
7.067847e+02,1.072587e+04
7.096774e+02,1.073108e+04
7.125701e+02,1.072757e+04
7.154628e+02,1.072540e+04
7.183555e+02,1.069951e+04
7.212482e+02,1.062916e+04
7.241409e+02,1.062813e+04
7.270336e+02,1.062451e+04
7.299263e+02,1.060370e+04
7.328190e+02,1.058834e+04
7.357117e+02,1.054815e+04
7.386044e+02,1.049335e+04
7.414971e+02,1.050705e+04
7.443898e+02,1.050257e+04
7.472825e+02,1.048081e+04
7.501752e+02,1.049599e+04
7.530679e+02,1.041441e+04
7.559606e+02,1.038985e+04
7.588533e+02,1.036139e+04
7.617460e+02,1.034175e+04
7.646387e+02,1.034179e+04
7.675314e+02,1.031746e+04
7.704241e+02,1.031375e+04
7.733168e+02,1.025621e+04
7.762095e+02,1.027321e+04
7.791022e+02,1.025121e+04
7.819949e+02,1.021174e+04
7.848876e+02,1.018735e+04
7.877803e+02,1.014213e+04
7.906730e+02,1.014151e+04
7.935657e+02,1.011706e+04
7.964584e+02,1.013264e+04
7.993511e+02,1.009544e+04
8.022438e+02,1.004273e+04
8.051365e+02,1.003808e+04
8.080292e+02,1.005275e+04
8.109219e+02,9.991468e+03
8.138146e+02,9.991140e+03
8.167073e+02,9.962160e+03
8.196000e+02,9.942295e+03
8.224927e+02,9.949342e+03
8.253854e+02,9.939989e+03
8.282781e+02,9.865799e+03
8.311708e+02,9.830255e+03
8.340635e+02,9.837877e+03
8.369562e+02,9.836246e+03
8.398489e+02,9.831647e+03
8.427416e+02,9.818453e+03
8.456343e+02,9.814660e+03
8.485270e+02,9.764611e+03
8.514197e+02,9.744941e+03
8.543124e+02,9.747619e+03
8.572051e+02,9.735751e+03
8.600978e+02,9.682200e+03
8.629905e+02,9.638106e+03
8.658832e+02,9.650016e+03
8.687759e+02,9.647753e+03
8.716686e+02,9.602395e+03
8.745613e+02,9.594067e+03
8.774540e+02,9.578291e+03
8.803467e+02,9.556202e+03
8.832394e+02,9.568876e+03
8.861321e+02,9.528821e+03
8.890248e+02,9.529714e+03
8.919175e+02,9.495196e+03
8.948102e+02,9.471569e+03
8.977029e+02,9.465493e+03
9.005956e+02,9.434078e+03
9.034883e+02,9.413668e+03
9.063810e+02,9.373951e+03
9.092737e+02,9.377354e+03
9.121664e+02,9.380529e+03
9.150591e+02,9.372840e+03
9.179518e+02,9.335005e+03
9.208445e+02,9.327290e+03
9.237372e+02,9.293830e+03
9.266299e+02,9.291237e+03
9.295226e+02,9.288183e+03
9.324153e+02,9.268190e+03
9.353080e+02,9.249276e+03
9.382007e+02,9.226712e+03
9.410934e+02,9.230179e+03
9.439861e+02,9.238138e+03
9.468788e+02,9.198271e+03
9.497715e+02,9.198660e+03
9.526642e+02,9.158993e+03
9.555569e+02,9.089669e+03
9.584496e+02,9.129538e+03
9.613423e+02,9.139522e+03
9.642350e+02,9.096710e+03
9.671277e+02,9.085290e+03
9.700204e+02,9.082387e+03
9.729131e+02,9.000812e+03
9.758058e+02,9.007332e+03
9.786985e+02,9.039428e+03
9.815912e+02,8.982470e+03
9.844839e+02,8.945995e+03
9.873766e+02,8.930276e+03
9.902693e+02,8.931996e+03
9.931620e+02,8.924265e+03
9.960547e+02,8.939807e+03
9.989474e+02,8.913427e+03
1.001840e+03,8.878254e+03
1.004733e+03,8.859531e+03
1.007626e+03,8.854766e+03
1.010518e+03,8.850330e+03
1.013411e+03,8.794176e+03
1.016304e+03,8.803479e+03
1.019196e+03,8.773059e+03
1.022089e+03,8.780372e+03
1.024982e+03,8.776675e+03
1.027875e+03,8.761046e+03
1.030767e+03,8.730069e+03
1.033660e+03,8.723248e+03
1.036552e+03,8.678232e+03
1.039445e+03,8.685377e+03
1.042338e+03,8.703105e+03
1.045231e+03,8.666034e+03
1.048123e+03,8.625724e+03
1.051016e+03,8.661250e+03
1.053909e+03,8.670666e+03
1.056802e+03,8.656603e+03
1.059694e+03,8.649199e+03
1.062587e+03,8.641051e+03
1.065479e+03,8.590877e+03
1.068372e+03,8.598089e+03
1.071265e+03,8.606080e+03
1.074158e+03,8.584081e+03
1.077050e+03,8.571087e+03
1.079943e+03,8.537600e+03
1.082836e+03,8.546161e+03
1.085729e+03,8.537478e+03
1.088621e+03,8.534239e+03
1.091514e+03,8.484694e+03
1.094406e+03,8.478558e+03
1.097299e+03,8.484143e+03
1.100192e+03,8.436147e+03
1.103085e+03,8.439203e+03
1.105977e+03,8.434030e+03
1.108870e+03,8.422599e+03
1.111763e+03,8.376565e+03
1.114656e+03,8.408672e+03
1.117548e+03,8.397877e+03
1.120441e+03,8.400745e+03
1.123334e+03,8.388064e+03
1.126226e+03,8.334289e+03
1.129119e+03,8.331954e+03
1.132012e+03,8.369568e+03
1.134904e+03,8.387557e+03
1.137797e+03,8.329427e+03
1.140690e+03,8.325359e+03
1.143583e+03,8.312617e+03
1.146475e+03,8.302729e+03
1.149368e+03,8.283257e+03
1.152261e+03,8.299988e+03
1.155153e+03,8.259890e+03
1.158046e+03,8.257785e+03
1.160939e+03,8.274333e+03
1.163831e+03,8.279951e+03
1.166724e+03,8.263349e+03
1.169617e+03,8.190819e+03
1.172510e+03,8.196645e+03
1.175402e+03,8.146263e+03
1.178295e+03,8.143165e+03
1.181188e+03,8.149733e+03
1.184080e+03,8.102947e+03
1.186973e+03,8.087610e+03
1.189866e+03,8.099354e+03
1.192758e+03,8.110698e+03
1.195651e+03,8.093789e+03
1.198544e+03,8.094506e+03
1.201437e+03,8.031825e+03
1.204329e+03,8.038916e+03
1.207222e+03,8.009825e+03
1.210115e+03,8.012893e+03
1.213007e+03,8.002438e+03
1.215900e+03,7.976868e+03
1.218793e+03,7.977398e+03
1.221685e+03,7.968264e+03
1.224578e+03,7.952117e+03
1.227471e+03,7.963474e+03
1.230364e+03,7.930458e+03
1.233256e+03,7.884357e+03
1.236149e+03,7.856864e+03
1.239042e+03,7.877401e+03
1.241934e+03,7.886581e+03
1.244827e+03,7.855860e+03
1.247720e+03,7.853251e+03
1.250612e+03,7.829248e+03
1.253505e+03,7.804535e+03
1.256398e+03,7.797357e+03
1.259291e+03,7.801481e+03
1.262183e+03,7.781720e+03
1.265076e+03,7.743586e+03
1.267969e+03,7.750268e+03
1.270861e+03,7.777053e+03
1.273754e+03,7.765375e+03
1.276647e+03,7.735298e+03
1.279539e+03,7.734471e+03
1.282432e+03,7.714093e+03
1.285325e+03,7.709006e+03
1.288218e+03,7.710143e+03
1.291110e+03,7.712131e+03
1.294003e+03,7.696050e+03
1.296896e+03,7.643245e+03
1.299788e+03,7.677607e+03
1.302681e+03,7.659881e+03
1.305574e+03,7.678651e+03
1.308466e+03,7.645251e+03
1.311359e+03,7.652440e+03
1.314252e+03,7.648717e+03
1.317145e+03,7.638630e+03
1.320037e+03,7.645985e+03
1.322930e+03,7.634166e+03
1.325823e+03,7.618748e+03
1.328715e+03,7.598664e+03
1.331608e+03,7.595266e+03
1.334501e+03,7.603310e+03
1.337393e+03,7.570773e+03
1.340286e+03,7.543164e+03
1.343179e+03,7.531008e+03
1.346072e+03,7.504032e+03
1.348964e+03,7.496568e+03
1.351857e+03,7.488097e+03
1.354750e+03,7.465013e+03
1.357642e+03,7.452589e+03
1.360535e+03,7.420123e+03
1.363428e+03,7.413728e+03
1.366320e+03,7.432774e+03
1.369213e+03,7.415528e+03
1.372106e+03,7.394367e+03
1.374999e+03,7.369735e+03
1.377891e+03,7.359947e+03
1.380784e+03,7.362770e+03
1.383677e+03,7.321944e+03
1.386569e+03,7.281038e+03
1.389462e+03,7.310564e+03
1.392355e+03,7.268788e+03
1.395247e+03,7.252024e+03
1.398140e+03,7.266981e+03
1.401033e+03,7.243578e+03
1.403926e+03,7.215342e+03
1.406818e+03,7.187317e+03
1.409711e+03,7.208862e+03
1.412604e+03,7.174218e+03
1.415496e+03,7.181845e+03
1.418389e+03,7.140697e+03
1.421282e+03,7.126958e+03
1.424174e+03,7.129088e+03
1.427067e+03,7.111474e+03
1.429960e+03,7.087780e+03
1.432853e+03,7.087891e+03
1.435745e+03,7.072431e+03
1.438638e+03,7.060847e+03
1.441531e+03,7.042628e+03
1.444423e+03,7.042560e+03
1.447316e+03,7.028439e+03
1.450209e+03,6.985931e+03
1.453101e+03,6.969706e+03
1.455994e+03,6.995237e+03
1.458887e+03,6.974201e+03
1.461780e+03,6.950929e+03
1.464672e+03,6.933497e+03
1.467565e+03,6.910048e+03
1.470458e+03,6.894380e+03
1.473350e+03,6.887420e+03
1.476243e+03,6.887214e+03
1.479136e+03,6.865208e+03
1.482028e+03,6.833363e+03
1.484921e+03,6.815635e+03
1.487814e+03,6.821983e+03
1.490707e+03,6.833802e+03
1.493599e+03,6.781526e+03
1.496492e+03,6.782447e+03
1.499385e+03,6.777522e+03
1.502277e+03,6.771116e+03
1.505170e+03,6.749674e+03
1.508063e+03,6.755603e+03
1.510955e+03,6.704823e+03
1.513848e+03,6.691708e+03
1.516741e+03,6.694041e+03
1.519634e+03,6.700255e+03
1.522526e+03,6.692055e+03
1.525419e+03,6.700165e+03
1.528312e+03,6.626545e+03
1.531204e+03,6.618859e+03
1.534097e+03,6.642179e+03
1.536990e+03,6.626627e+03
1.539882e+03,6.576955e+03
1.542775e+03,6.581419e+03
1.545668e+03,6.572284e+03
1.548561e+03,6.598880e+03
1.551453e+03,6.569285e+03
1.554346e+03,6.559334e+03
1.557239e+03,6.544117e+03
1.560131e+03,6.511461e+03
1.563024e+03,6.497300e+03
1.565917e+03,6.499546e+03
1.568809e+03,6.484761e+03
1.571702e+03,6.502391e+03
1.574595e+03,6.435401e+03
1.577488e+03,6.435863e+03
1.580380e+03,6.464962e+03
1.583273e+03,6.438593e+03
1.586166e+03,6.409072e+03
1.589058e+03,6.395154e+03
1.591951e+03,6.330620e+03
1.594844e+03,6.338736e+03
1.597736e+03,6.335639e+03
1.600629e+03,6.329614e+03
1.603522e+03,6.300026e+03
1.606415e+03,6.275690e+03
1.609307e+03,6.288453e+03
1.612200e+03,6.307501e+03
1.615093e+03,6.264005e+03
1.617985e+03,6.232846e+03
1.620878e+03,6.217266e+03
1.623771e+03,6.188471e+03
1.626663e+03,6.157083e+03
1.629556e+03,6.147721e+03
1.632449e+03,6.126746e+03
1.635342e+03,6.104818e+03
1.638234e+03,6.093923e+03
1.641127e+03,6.085402e+03
1.644020e+03,6.087874e+03
1.646912e+03,6.045523e+03
1.649805e+03,5.989421e+03
1.652698e+03,6.035039e+03
1.655590e+03,5.997874e+03
1.658483e+03,5.967718e+03
1.661376e+03,5.964397e+03
1.664269e+03,5.959717e+03
1.667161e+03,5.928272e+03
1.670054e+03,5.903311e+03
1.672947e+03,5.886277e+03
1.675839e+03,5.897301e+03
1.678732e+03,5.869828e+03
1.681625e+03,5.876265e+03
1.684517e+03,5.829596e+03
1.687410e+03,5.849901e+03
1.690303e+03,5.844415e+03
1.693196e+03,5.794116e+03
1.696088e+03,5.811886e+03
1.698981e+03,5.774149e+03
1.701874e+03,5.760344e+03
1.704766e+03,5.756232e+03
1.707659e+03,5.759585e+03
1.710552e+03,5.736721e+03
1.713444e+03,5.702162e+03
1.716337e+03,5.703204e+03
1.719230e+03,5.677581e+03
1.722123e+03,5.698116e+03
1.725015e+03,5.644595e+03
1.727908e+03,5.658954e+03
1.730801e+03,5.633039e+03
1.733693e+03,5.628383e+03
1.736586e+03,5.617591e+03
1.739479e+03,5.627939e+03
1.742371e+03,5.585113e+03
1.745264e+03,5.550956e+03
1.748157e+03,5.537567e+03
1.751050e+03,5.513595e+03
1.753942e+03,5.510277e+03
1.756835e+03,5.514207e+03
1.759728e+03,5.485708e+03
1.762620e+03,5.465471e+03
1.765513e+03,5.470776e+03
1.768406e+03,5.417492e+03
1.771298e+03,5.420100e+03
1.774191e+03,5.403995e+03
1.777084e+03,5.396880e+03
1.779977e+03,5.350480e+03
1.782869e+03,5.338010e+03
1.785762e+03,5.349328e+03
1.788655e+03,5.328284e+03
1.791547e+03,5.288558e+03
1.794440e+03,5.302962e+03
1.797333e+03,5.299029e+03
1.800225e+03,5.285336e+03
1.803118e+03,5.247604e+03
1.806011e+03,5.232609e+03
1.808904e+03,5.235063e+03
1.811796e+03,5.221003e+03
1.814689e+03,5.178501e+03
1.817582e+03,5.188244e+03
1.820474e+03,5.157174e+03
1.823367e+03,5.135045e+03
1.826260e+03,5.131097e+03
1.829152e+03,5.155290e+03
1.832045e+03,5.111231e+03
1.834938e+03,5.092478e+03
1.837831e+03,5.066215e+03
1.840723e+03,5.070833e+03
1.843616e+03,5.079844e+03
1.846509e+03,5.067110e+03
1.849401e+03,5.014542e+03
1.852294e+03,5.025002e+03
1.855187e+03,5.029234e+03
1.858079e+03,4.984849e+03
1.860972e+03,4.966268e+03
1.863865e+03,4.948191e+03
1.866758e+03,4.910499e+03
1.869650e+03,4.930994e+03
1.872543e+03,4.916053e+03
1.875436e+03,4.924658e+03
1.878328e+03,4.880479e+03
1.881221e+03,4.871194e+03
1.884114e+03,4.894803e+03
1.887006e+03,4.813677e+03
1.889899e+03,4.813320e+03
1.892792e+03,4.825873e+03
1.895685e+03,4.816265e+03
1.898577e+03,4.819402e+03
1.901470e+03,4.807835e+03
1.904363e+03,4.794140e+03
1.907255e+03,4.786055e+03
1.910148e+03,4.723456e+03
1.913041e+03,4.733658e+03
1.915933e+03,4.718030e+03
1.918826e+03,4.682876e+03
1.921719e+03,4.687512e+03
1.924612e+03,4.663050e+03
1.927504e+03,4.652682e+03
1.930397e+03,4.642632e+03
1.933290e+03,4.634057e+03
1.936182e+03,4.588065e+03
1.939075e+03,4.590878e+03
1.941968e+03,4.587916e+03
1.944860e+03,4.562188e+03
1.947753e+03,4.557204e+03
1.950646e+03,4.526167e+03
1.953539e+03,4.527346e+03
1.956431e+03,4.484723e+03
1.959324e+03,4.495003e+03
1.962217e+03,4.455344e+03
1.965109e+03,4.443007e+03
1.968002e+03,4.458891e+03
1.970895e+03,4.480864e+03
1.973787e+03,4.403944e+03
1.976680e+03,4.413456e+03
1.979573e+03,4.398763e+03
1.982466e+03,4.375279e+03
1.985358e+03,4.388352e+03
1.988251e+03,4.352896e+03
1.991144e+03,4.345934e+03
1.994036e+03,4.328916e+03
1.996929e+03,4.307142e+03
1.999822e+03,4.321004e+03
2.002714e+03,4.285081e+03
2.005607e+03,4.268602e+03
2.008500e+03,4.290459e+03
2.011393e+03,4.228751e+03
2.014285e+03,4.241070e+03
2.017178e+03,4.228497e+03
2.020071e+03,4.203729e+03
2.022963e+03,4.205608e+03
2.025856e+03,4.164693e+03
2.028749e+03,4.147814e+03
2.031641e+03,4.184864e+03
2.034534e+03,4.132908e+03
2.037427e+03,4.146360e+03
2.040320e+03,4.122641e+03
2.043212e+03,4.133725e+03
2.046105e+03,4.099610e+03
2.048998e+03,4.095204e+03
2.051890e+03,4.086230e+03
2.054783e+03,4.058653e+03
2.057676e+03,4.027719e+03
2.060568e+03,4.034018e+03
2.063461e+03,4.015895e+03
2.066354e+03,4.018613e+03
2.069247e+03,3.991523e+03
2.072139e+03,3.999674e+03
2.075032e+03,3.979612e+03
2.077925e+03,3.979594e+03
2.080817e+03,3.948369e+03
2.083710e+03,3.905887e+03
2.086603e+03,3.946337e+03
2.089496e+03,3.940646e+03
2.092388e+03,3.937698e+03
2.095281e+03,3.916905e+03
2.098174e+03,3.904063e+03
2.101066e+03,3.849458e+03
2.103959e+03,3.848157e+03
2.106852e+03,3.840758e+03
2.109744e+03,3.828396e+03
2.112637e+03,3.831552e+03
2.115530e+03,3.758595e+03
2.118422e+03,3.800492e+03
2.121315e+03,3.785543e+03
2.124208e+03,3.777013e+03
2.127101e+03,3.727478e+03
2.129993e+03,3.759363e+03
2.132886e+03,3.715502e+03
2.135779e+03,3.730395e+03
2.138671e+03,3.722574e+03
2.141564e+03,3.712586e+03
2.144457e+03,3.657148e+03
2.147350e+03,3.643634e+03
2.150242e+03,3.652982e+03
2.153135e+03,3.654149e+03
2.156028e+03,3.622858e+03
2.158920e+03,3.629970e+03
2.161813e+03,3.613059e+03
2.164706e+03,3.597673e+03
2.167598e+03,3.576298e+03
2.170491e+03,3.585603e+03
2.173384e+03,3.557541e+03
2.176277e+03,3.585882e+03
2.179169e+03,3.547295e+03
2.182062e+03,3.521752e+03
2.184955e+03,3.508820e+03
2.187847e+03,3.513455e+03
2.190740e+03,3.498220e+03
2.193633e+03,3.457006e+03
2.196525e+03,3.489297e+03
2.199418e+03,3.465888e+03
2.202311e+03,3.451386e+03
2.205204e+03,3.451669e+03
2.208096e+03,3.453146e+03
2.210989e+03,3.424209e+03
2.213882e+03,3.405516e+03
2.216774e+03,3.411186e+03
2.219667e+03,3.415555e+03
2.222560e+03,3.397250e+03
2.225452e+03,3.354253e+03
2.228345e+03,3.374717e+03
2.231238e+03,3.364573e+03
2.234131e+03,3.356834e+03
2.237023e+03,3.349098e+03
2.239916e+03,3.319881e+03
2.242809e+03,3.288156e+03
2.245701e+03,3.312527e+03
2.248594e+03,3.266240e+03
2.251487e+03,3.308732e+03
2.254379e+03,3.251803e+03
2.257272e+03,3.237259e+03
2.260165e+03,3.239838e+03
2.263058e+03,3.217858e+03
2.265950e+03,3.235192e+03
2.268843e+03,3.222936e+03
2.271736e+03,3.208946e+03
2.274628e+03,3.201368e+03
2.277521e+03,3.175436e+03
2.280414e+03,3.199163e+03
2.283306e+03,3.177666e+03
2.286199e+03,3.157484e+03
2.289092e+03,3.150632e+03
2.291985e+03,3.143430e+03
2.294877e+03,3.103375e+03
2.297770e+03,3.129231e+03
2.300663e+03,3.094821e+03
2.303555e+03,3.106793e+03
2.306448e+03,3.072533e+03
2.309341e+03,3.043765e+03
2.312233e+03,3.065489e+03
2.315126e+03,3.046277e+03
2.318019e+03,3.068094e+03
2.320912e+03,3.040450e+03
2.323804e+03,3.032723e+03
2.326697e+03,3.010211e+03
2.329590e+03,3.032544e+03
2.332482e+03,3.005018e+03
2.335375e+03,2.967565e+03
2.338268e+03,2.964949e+03
2.341160e+03,2.953965e+03
2.344053e+03,2.971055e+03
2.346946e+03,2.955630e+03
2.349839e+03,2.932394e+03
2.352731e+03,2.895859e+03
2.355624e+03,2.909107e+03
2.358517e+03,2.894480e+03
2.361409e+03,2.929204e+03
2.364302e+03,2.863121e+03
2.367195e+03,2.886215e+03
2.370087e+03,2.890847e+03
2.372980e+03,2.868848e+03
2.375873e+03,2.872220e+03
2.378766e+03,2.853499e+03
2.381658e+03,2.834782e+03
2.384551e+03,2.835457e+03
2.387444e+03,2.821808e+03
2.390336e+03,2.819471e+03
2.393229e+03,2.811940e+03
2.396122e+03,2.801361e+03
2.399014e+03,2.790381e+03
2.401907e+03,2.768844e+03
2.404800e+03,2.773799e+03
2.407693e+03,2.763230e+03
2.410585e+03,2.758638e+03
2.413478e+03,2.748888e+03
2.416371e+03,2.736365e+03
2.419263e+03,2.737203e+03
2.422156e+03,2.743070e+03
2.425049e+03,2.742551e+03
2.427941e+03,2.723788e+03
2.430834e+03,2.688332e+03
2.433727e+03,2.695775e+03
2.436620e+03,2.685893e+03
2.439512e+03,2.690615e+03
2.442405e+03,2.669692e+03
2.445298e+03,2.678559e+03
2.448190e+03,2.650493e+03
2.451083e+03,2.652220e+03
2.453976e+03,2.650031e+03
2.456868e+03,2.642829e+03
2.459761e+03,2.637500e+03
2.462654e+03,2.629513e+03
2.465547e+03,2.617292e+03
2.468439e+03,2.600610e+03
2.471332e+03,2.614160e+03
2.474225e+03,2.602730e+03
2.477117e+03,2.602359e+03
2.480010e+03,2.597914e+03
2.482903e+03,2.587638e+03
2.485795e+03,2.562907e+03
2.488688e+03,2.577368e+03
2.491581e+03,2.554989e+03
2.494474e+03,2.545280e+03
2.497366e+03,2.534289e+03
2.500259e+03,2.552894e+03
2.503152e+03,2.521451e+03
2.506044e+03,2.520518e+03
2.508937e+03,2.524569e+03
2.511830e+03,2.514197e+03
2.514722e+03,2.480462e+03
2.517615e+03,2.528371e+03
2.520508e+03,2.486682e+03
2.523401e+03,2.467919e+03
2.526293e+03,2.501718e+03
2.529186e+03,2.459188e+03
2.532079e+03,2.467633e+03
2.534971e+03,2.436458e+03
2.537864e+03,2.437151e+03
2.540757e+03,2.424688e+03
2.543649e+03,2.427922e+03
2.546542e+03,2.449308e+03
2.549435e+03,2.428132e+03
2.552328e+03,2.418989e+03
2.555220e+03,2.447195e+03
2.558113e+03,2.430757e+03
2.561006e+03,2.408882e+03
2.563898e+03,2.378767e+03
2.566791e+03,2.388819e+03
2.569684e+03,2.392754e+03
2.572576e+03,2.380927e+03
2.575469e+03,2.372755e+03
2.578362e+03,2.363374e+03
2.581255e+03,2.353914e+03
2.584147e+03,2.340650e+03
2.587040e+03,2.344753e+03
2.589933e+03,2.361662e+03
2.592825e+03,2.323808e+03
2.595718e+03,2.359514e+03
2.598611e+03,2.333419e+03
2.601503e+03,2.352317e+03
2.604396e+03,2.326012e+03
2.607289e+03,2.326140e+03
2.610182e+03,2.319819e+03
2.613074e+03,2.304075e+03
2.615967e+03,2.310000e+03
2.618860e+03,2.299522e+03
2.621752e+03,2.309445e+03
2.624645e+03,2.306227e+03
2.627538e+03,2.282805e+03
2.630430e+03,2.290221e+03
2.633323e+03,2.283548e+03
2.636216e+03,2.274509e+03
2.639109e+03,2.296687e+03
2.642001e+03,2.245939e+03
2.644894e+03,2.273779e+03
2.647787e+03,2.252155e+03
2.650679e+03,2.256381e+03
2.653572e+03,2.220827e+03
2.656465e+03,2.251542e+03
2.659357e+03,2.217510e+03
2.662250e+03,2.226436e+03
2.665143e+03,2.228858e+03
2.668036e+03,2.220895e+03
2.670928e+03,2.232082e+03
2.673821e+03,2.216507e+03
2.676714e+03,2.193770e+03
2.679606e+03,2.225323e+03
2.682499e+03,2.188319e+03
2.685392e+03,2.159701e+03
2.688284e+03,2.185555e+03
2.691177e+03,2.150199e+03
2.694070e+03,2.217520e+03
2.696963e+03,2.165952e+03
2.699855e+03,2.160970e+03
2.702748e+03,2.147386e+03
2.705641e+03,2.136240e+03
2.708533e+03,2.145947e+03
2.711426e+03,2.121775e+03
2.714319e+03,2.131315e+03
2.717211e+03,2.135489e+03
2.720104e+03,2.145998e+03
2.722997e+03,2.127159e+03
2.725890e+03,2.103717e+03
2.728782e+03,2.137964e+03
2.731675e+03,2.104058e+03
2.734568e+03,2.122780e+03
2.737460e+03,2.090755e+03
2.740353e+03,2.138298e+03
2.743246e+03,2.087188e+03
2.746138e+03,2.095891e+03
2.749031e+03,2.110353e+03
2.751924e+03,2.080706e+03
2.754817e+03,2.069241e+03
2.757709e+03,2.061926e+03
2.760602e+03,2.072924e+03
2.763495e+03,2.052672e+03
2.766387e+03,2.076612e+03
2.769280e+03,2.060399e+03
2.772173e+03,2.063519e+03
2.775065e+03,2.035609e+03
2.777958e+03,2.013677e+03
2.780851e+03,2.068964e+03
2.783744e+03,2.002547e+03
2.786636e+03,2.034911e+03
2.789529e+03,2.057785e+03
2.792422e+03,2.034346e+03
2.795314e+03,2.014240e+03
2.798207e+03,2.026509e+03
2.801100e+03,2.006433e+03
2.803992e+03,2.017949e+03
2.806885e+03,2.037703e+03
2.809778e+03,2.000987e+03
2.812671e+03,1.971540e+03
2.815563e+03,1.996115e+03
2.818456e+03,1.960972e+03
2.821349e+03,1.972940e+03
2.824241e+03,1.992020e+03
2.827134e+03,1.982098e+03
2.830027e+03,1.965510e+03
2.832919e+03,2.008857e+03
2.835812e+03,1.974161e+03
2.838705e+03,1.939546e+03
2.841598e+03,1.981608e+03
2.844490e+03,1.951947e+03
2.847383e+03,1.965854e+03
2.850276e+03,1.968336e+03
2.853168e+03,1.956739e+03
2.856061e+03,1.961157e+03
2.858954e+03,1.949569e+03
2.861846e+03,1.945791e+03
2.864739e+03,1.927667e+03
2.867632e+03,1.935531e+03
2.870525e+03,1.949723e+03
2.873417e+03,1.953505e+03
2.876310e+03,1.939807e+03
2.879203e+03,1.922213e+03
2.882095e+03,1.940414e+03
2.884988e+03,1.930061e+03
2.887881e+03,1.917450e+03
2.890773e+03,1.941728e+03
2.893666e+03,1.915132e+03
2.896559e+03,1.899982e+03
2.899452e+03,1.909178e+03
2.902344e+03,1.865681e+03
2.905237e+03,1.888030e+03
2.908130e+03,1.897028e+03
2.911022e+03,1.874112e+03
2.913915e+03,1.870622e+03
2.916808e+03,1.884080e+03
2.919700e+03,1.873614e+03
2.922593e+03,1.853402e+03
2.925486e+03,1.841988e+03
2.928379e+03,1.848206e+03
2.931271e+03,1.906072e+03
2.934164e+03,1.856262e+03
2.937057e+03,1.870955e+03
2.939949e+03,1.847271e+03
2.942842e+03,1.846887e+03
2.945735e+03,1.851878e+03
2.948627e+03,1.844181e+03
2.951520e+03,1.861643e+03
2.954413e+03,1.798315e+03
2.957306e+03,1.850892e+03
2.960198e+03,1.835474e+03
2.963091e+03,1.809118e+03
2.965984e+03,1.805589e+03
2.968876e+03,1.842243e+03
2.971769e+03,1.823115e+03
2.974662e+03,1.769796e+03
2.977554e+03,1.789394e+03
2.980447e+03,1.771801e+03
2.983340e+03,1.796031e+03
2.986233e+03,1.774327e+03
2.989125e+03,1.797016e+03
2.992018e+03,1.749308e+03
2.994911e+03,1.804856e+03
2.997803e+03,1.807823e+03
3.000696e+03,1.794282e+03
3.003589e+03,1.817739e+03
3.006481e+03,1.739600e+03
3.009374e+03,1.786529e+03
3.012267e+03,1.779003e+03
3.015160e+03,1.763147e+03
3.018052e+03,1.765218e+03
3.020945e+03,1.803178e+03
3.023838e+03,1.767830e+03
3.026730e+03,1.735792e+03
3.029623e+03,1.759457e+03
3.032516e+03,1.718111e+03
3.035408e+03,1.741974e+03
3.038301e+03,1.744799e+03
3.041194e+03,1.744059e+03
3.044087e+03,1.737554e+03
3.046979e+03,1.759702e+03
3.049872e+03,1.741272e+03
3.052765e+03,1.751429e+03
3.055657e+03,1.726816e+03
3.058550e+03,1.769384e+03
3.061443e+03,1.730232e+03
3.064335e+03,1.728501e+03
3.067228e+03,1.696159e+03
3.070121e+03,1.738578e+03
3.073014e+03,1.725523e+03
3.075906e+03,1.717688e+03
3.078799e+03,1.747999e+03
3.081692e+03,1.732360e+03
3.084584e+03,1.737602e+03
3.087477e+03,1.730965e+03
3.090370e+03,1.741432e+03
3.093262e+03,1.682451e+03
3.096155e+03,1.698712e+03
3.099048e+03,1.716739e+03
3.101941e+03,1.748923e+03
3.104833e+03,1.712188e+03
3.107726e+03,1.655475e+03
3.110619e+03,1.675749e+03
3.113511e+03,1.737211e+03
3.116404e+03,1.736684e+03
3.119297e+03,1.715571e+03
3.122189e+03,1.701550e+03
3.125082e+03,1.697759e+03
3.127975e+03,1.699176e+03
3.130868e+03,1.718605e+03
3.133760e+03,1.728928e+03
3.136653e+03,1.740009e+03
3.139546e+03,1.722232e+03
3.142438e+03,1.732543e+03
3.145331e+03,1.682924e+03
3.148224e+03,1.706657e+03
3.151116e+03,1.768378e+03
3.154009e+03,1.652522e+03
3.156902e+03,1.729441e+03
3.159795e+03,1.780895e+03
3.162687e+03,1.700808e+03
3.165580e+03,1.673603e+03
3.168473e+03,1.673720e+03
3.171365e+03,1.704949e+03
3.174258e+03,1.680931e+03
3.177151e+03,1.715507e+03
3.180043e+03,1.747940e+03
3.182936e+03,1.737608e+03
3.185829e+03,1.673721e+03
3.188722e+03,1.739103e+03
3.191614e+03,1.734064e+03
3.194507e+03,1.726247e+03
3.197400e+03,1.731295e+03
3.200292e+03,1.762025e+03
3.203185e+03,0.000000e+00
3.206078e+03,0.000000e+00
3.208970e+03,0.000000e+00
3.211863e+03,0.000000e+00
3.214756e+03,0.000000e+00
3.217649e+03,0.000000e+00
3.220541e+03,0.000000e+00
3.223434e+03,0.000000e+00
3.226327e+03,0.000000e+00
3.229219e+03,0.000000e+00
3.232112e+03,0.000000e+00
3.235005e+03,0.000000e+00
3.237897e+03,0.000000e+00
3.240790e+03,0.000000e+00
3.243683e+03,0.000000e+00
3.246576e+03,0.000000e+00
3.249468e+03,0.000000e+00
3.252361e+03,0.000000e+00
3.255254e+03,0.000000e+00
3.258146e+03,0.000000e+00
3.261039e+03,0.000000e+00
3.263932e+03,0.000000e+00
3.266824e+03,0.000000e+00
3.269717e+03,0.000000e+00
3.272610e+03,0.000000e+00
3.275503e+03,0.000000e+00
3.278395e+03,0.000000e+00
3.281288e+03,0.000000e+00
3.284181e+03,0.000000e+00
3.287073e+03,0.000000e+00
3.289966e+03,0.000000e+00
3.292859e+03,0.000000e+00
3.295751e+03,0.000000e+00
3.298644e+03,0.000000e+00
3.301537e+03,0.000000e+00
3.304430e+03,0.000000e+00
3.307322e+03,0.000000e+00
3.310215e+03,0.000000e+00
3.313108e+03,0.000000e+00
3.316000e+03,0.000000e+00
3.318893e+03,0.000000e+00
3.321786e+03,0.000000e+00
3.324678e+03,0.000000e+00
3.327571e+03,0.000000e+00
3.330464e+03,0.000000e+00
3.333357e+03,0.000000e+00
3.336249e+03,0.000000e+00
3.339142e+03,0.000000e+00
3.342035e+03,0.000000e+00
3.344927e+03,0.000000e+00
3.347820e+03,0.000000e+00
3.350713e+03,0.000000e+00
3.353605e+03,0.000000e+00
3.356498e+03,0.000000e+00
3.359391e+03,0.000000e+00
3.362284e+03,0.000000e+00
3.365176e+03,0.000000e+00
3.368069e+03,0.000000e+00
3.370962e+03,0.000000e+00
3.373854e+03,0.000000e+00
3.376747e+03,0.000000e+00
3.379640e+03,0.000000e+00
3.382532e+03,0.000000e+00
3.385425e+03,0.000000e+00
3.388318e+03,0.000000e+00
3.391211e+03,0.000000e+00
3.394103e+03,0.000000e+00
3.396996e+03,0.000000e+00
3.399889e+03,0.000000e+00
3.402781e+03,0.000000e+00
3.405674e+03,0.000000e+00
3.408567e+03,0.000000e+00
3.411459e+03,0.000000e+00
3.414352e+03,0.000000e+00
3.417245e+03,0.000000e+00
3.420138e+03,0.000000e+00
3.423030e+03,0.000000e+00
3.425923e+03,0.000000e+00
3.428816e+03,0.000000e+00
3.431708e+03,0.000000e+00
3.434601e+03,0.000000e+00
3.437494e+03,0.000000e+00
3.440386e+03,0.000000e+00
3.443279e+03,0.000000e+00
3.446172e+03,0.000000e+00
3.449065e+03,0.000000e+00
3.451957e+03,0.000000e+00
3.454850e+03,0.000000e+00
3.457743e+03,0.000000e+00
3.460635e+03,0.000000e+00
3.463528e+03,0.000000e+00
3.466421e+03,0.000000e+00
3.469313e+03,0.000000e+00
3.472206e+03,0.000000e+00
3.475099e+03,0.000000e+00
3.477992e+03,0.000000e+00
3.480884e+03,0.000000e+00
3.483777e+03,0.000000e+00
3.486670e+03,0.000000e+00
3.489563e+03,0.000000e+00
3.492455e+03,0.000000e+00
3.495348e+03,0.000000e+00
3.498240e+03,0.000000e+00
3.500169e+03,0.000000e+00