File: RAMAN_data/13042023_r1/black fibre11.CSV
9.931763e+01,0.000000e+00
1.022103e+02,0.000000e+00
1.051030e+02,0.000000e+00
1.079957e+02,0.000000e+00
1.108884e+02,0.000000e+00
1.137811e+02,0.000000e+00
1.166738e+02,0.000000e+00
1.195665e+02,0.000000e+00
1.224592e+02,0.000000e+00
1.253519e+02,0.000000e+00
1.282446e+02,0.000000e+00
1.311373e+02,0.000000e+00
1.340300e+02,0.000000e+00
1.369227e+02,0.000000e+00
1.398154e+02,0.000000e+00
1.427081e+02,0.000000e+00
1.456008e+02,0.000000e+00
1.484935e+02,0.000000e+00
1.513862e+02,0.000000e+00
1.542789e+02,0.000000e+00
1.571716e+02,0.000000e+00
1.600643e+02,0.000000e+00
1.629570e+02,0.000000e+00
1.658497e+02,0.000000e+00
1.687424e+02,0.000000e+00
1.716351e+02,0.000000e+00
1.745278e+02,0.000000e+00
1.774205e+02,0.000000e+00
1.803132e+02,0.000000e+00
1.832059e+02,0.000000e+00
1.860986e+02,0.000000e+00
1.889913e+02,0.000000e+00
1.918840e+02,0.000000e+00
1.947767e+02,0.000000e+00
1.976694e+02,0.000000e+00
2.005621e+02,1.047981e+04
2.034548e+02,1.052034e+04
2.063475e+02,1.054905e+04
2.092402e+02,1.055023e+04
2.121329e+02,1.055114e+04
2.150256e+02,1.057994e+04
2.179183e+02,1.060919e+04
2.208110e+02,1.066058e+04
2.237037e+02,1.067718e+04
2.265964e+02,1.068749e+04
2.294892e+02,1.071674e+04
2.323819e+02,1.076485e+04
2.352746e+02,1.080180e+04
2.381673e+02,1.083688e+04
2.410600e+02,1.083374e+04
2.439527e+02,1.085114e+04
2.468454e+02,1.088743e+04
2.497381e+02,1.092293e+04
2.526308e+02,1.095972e+04
2.555235e+02,1.097477e+04
2.584161e+02,1.097703e+04
2.613088e+02,1.102010e+04
2.642015e+02,1.107264e+04
2.670942e+02,1.109793e+04
2.699869e+02,1.113241e+04
2.728796e+02,1.114520e+04
2.757723e+02,1.118599e+04
2.786650e+02,1.122956e+04
2.815577e+02,1.125743e+04
2.844504e+02,1.128402e+04
2.873431e+02,1.129060e+04
2.902358e+02,1.131700e+04
2.931285e+02,1.134644e+04
2.960212e+02,1.139113e+04
2.989139e+02,1.141448e+04
3.018066e+02,1.143413e+04
3.046993e+02,1.146692e+04
3.075920e+02,1.148884e+04
3.104847e+02,1.152890e+04
3.133774e+02,1.157925e+04
3.162701e+02,1.159601e+04
3.191628e+02,1.160888e+04
3.220555e+02,1.164175e+04
3.249482e+02,1.168424e+04
3.278409e+02,1.172364e+04
3.307336e+02,1.175929e+04
3.336263e+02,1.178546e+04
3.365190e+02,1.179593e+04
3.394117e+02,1.184477e+04
3.423044e+02,1.189110e+04
3.451971e+02,1.195065e+04
3.480898e+02,1.197636e+04
3.509825e+02,1.198931e+04
3.538752e+02,1.203903e+04
3.567680e+02,1.208796e+04
3.596607e+02,1.212734e+04
3.625534e+02,1.216518e+04
3.654461e+02,1.215143e+04
3.683388e+02,1.217766e+04
3.712315e+02,1.224066e+04
3.741242e+02,1.227460e+04
3.770169e+02,1.231209e+04
3.799096e+02,1.235504e+04
3.828023e+02,1.237077e+04
3.856950e+02,1.241141e+04
3.885877e+02,1.246715e+04
3.914804e+02,1.251785e+04
3.943731e+02,1.254654e+04
3.972658e+02,1.257221e+04
4.001585e+02,1.259571e+04
4.030512e+02,1.265208e+04
4.059439e+02,1.268439e+04
4.088366e+02,1.272684e+04
4.117293e+02,1.274472e+04
4.146220e+02,1.277363e+04
4.175147e+02,1.281375e+04
4.204074e+02,1.285257e+04
4.233001e+02,1.288687e+04
4.261928e+02,1.290882e+04
4.290855e+02,1.294275e+04
4.319782e+02,1.297158e+04
4.348709e+02,1.299797e+04
4.377636e+02,1.301125e+04
4.406563e+02,1.303853e+04
4.435490e+02,1.304818e+04
4.464417e+02,1.307538e+04
4.493344e+02,1.309153e+04
4.522271e+02,1.306931e+04
4.551198e+02,1.309263e+04
4.580125e+02,1.304455e+04
4.609052e+02,1.303747e+04
4.637979e+02,1.307901e+04
4.666906e+02,1.301523e+04
4.695833e+02,1.302986e+04
4.724760e+02,1.305419e+04
4.753687e+02,1.303561e+04
4.782614e+02,1.298974e+04
4.811541e+02,1.301448e+04
4.840468e+02,1.303120e+04
4.869395e+02,1.302403e+04
4.898322e+02,1.300204e+04
4.927249e+02,1.294327e+04
4.956176e+02,1.298978e+04
4.985103e+02,1.295162e+04
5.014030e+02,1.291000e+04
5.042957e+02,1.286800e+04
5.071884e+02,1.282177e+04
5.100811e+02,1.282383e+04
5.129738e+02,1.282555e+04
5.158665e+02,1.282324e+04
5.187592e+02,1.275736e+04
5.216519e+02,1.269453e+04
5.245446e+02,1.266718e+04
5.274373e+02,1.265506e+04
5.303300e+02,1.263519e+04
5.332227e+02,1.258042e+04
5.361154e+02,1.250880e+04
5.390081e+02,1.257208e+04
5.419008e+02,1.248569e+04
5.447935e+02,1.244333e+04
5.476862e+02,1.245432e+04
5.505789e+02,1.236153e+04
5.534716e+02,1.231175e+04
5.563643e+02,1.227379e+04
5.592570e+02,1.225727e+04
5.621497e+02,1.227507e+04
5.650424e+02,1.220888e+04
5.679351e+02,1.217756e+04
5.708278e+02,1.211400e+04
5.737205e+02,1.211090e+04
5.766132e+02,1.211373e+04
5.795059e+02,1.205805e+04
5.823986e+02,1.203338e+04
5.852913e+02,1.201173e+04
5.881840e+02,1.194825e+04
5.910767e+02,1.192638e+04
5.939694e+02,1.192789e+04
5.968621e+02,1.190636e+04
5.997548e+02,1.184881e+04
6.026475e+02,1.182958e+04
6.055402e+02,1.180233e+04
6.084329e+02,1.182117e+04
6.113256e+02,1.175571e+04
6.142183e+02,1.171307e+04
6.171110e+02,1.170347e+04
6.200037e+02,1.170059e+04
6.228964e+02,1.164961e+04
6.257891e+02,1.166175e+04
6.286818e+02,1.164430e+04
6.315745e+02,1.161176e+04
6.344672e+02,1.157261e+04
6.373599e+02,1.154860e+04
6.402526e+02,1.154469e+04
6.431453e+02,1.151658e+04
6.460380e+02,1.146117e+04
6.489307e+02,1.147997e+04
6.518234e+02,1.148670e+04
6.547161e+02,1.143174e+04
6.576088e+02,1.140134e+04
6.605015e+02,1.138234e+04
6.633942e+02,1.136224e+04
6.662869e+02,1.136951e+04
6.691796e+02,1.135666e+04
6.720723e+02,1.132917e+04
6.749650e+02,1.128118e+04
6.778577e+02,1.126893e+04
6.807504e+02,1.129042e+04
6.836431e+02,1.126838e+04
6.865358e+02,1.122007e+04
6.894285e+02,1.118534e+04
6.923212e+02,1.114607e+04
6.952139e+02,1.111288e+04
6.981066e+02,1.114424e+04
7.009993e+02,1.110982e+04
7.038920e+02,1.109953e+04
7.067847e+02,1.102611e+04
7.096774e+02,1.099758e+04
7.125701e+02,1.099143e+04
7.154628e+02,1.096596e+04
7.183555e+02,1.096902e+04
7.212482e+02,1.091209e+04
7.241409e+02,1.086529e+04
7.270336e+02,1.087639e+04
7.299263e+02,1.083092e+04
7.328190e+02,1.081381e+04
7.357117e+02,1.076971e+04
7.386044e+02,1.073994e+04
7.414971e+02,1.072714e+04
7.443898e+02,1.071463e+04
7.472825e+02,1.073184e+04
7.501752e+02,1.066211e+04
7.530679e+02,1.065728e+04
7.559606e+02,1.061707e+04
7.588533e+02,1.058562e+04
7.617460e+02,1.056809e+04
7.646387e+02,1.056957e+04
7.675314e+02,1.051330e+04
7.704241e+02,1.048575e+04
7.733168e+02,1.046333e+04
7.762095e+02,1.048501e+04
7.791022e+02,1.045064e+04
7.819949e+02,1.042599e+04
7.848876e+02,1.038488e+04
7.877803e+02,1.036540e+04
7.906730e+02,1.037812e+04
7.935657e+02,1.036032e+04
7.964584e+02,1.029104e+04
7.993511e+02,1.030163e+04
8.022438e+02,1.028864e+04
8.051365e+02,1.027061e+04
8.080292e+02,1.025321e+04
8.109219e+02,1.025680e+04
8.138146e+02,1.023806e+04
8.167073e+02,1.018109e+04
8.196000e+02,1.020782e+04
8.224927e+02,1.019279e+04
8.253854e+02,1.016617e+04
8.282781e+02,1.016314e+04
8.311708e+02,1.011076e+04
8.340635e+02,1.016221e+04
8.369562e+02,1.012566e+04
8.398489e+02,1.008910e+04
8.427416e+02,1.007680e+04
8.456343e+02,1.007650e+04
8.485270e+02,1.005218e+04
8.514197e+02,1.006322e+04
8.543124e+02,1.005987e+04
8.572051e+02,1.000079e+04
8.600978e+02,1.002500e+04
8.629905e+02,9.939567e+03
8.658832e+02,9.941495e+03
8.687759e+02,9.948684e+03
8.716686e+02,9.933886e+03
8.745613e+02,9.902885e+03
8.774540e+02,9.892790e+03
8.803467e+02,9.889484e+03
8.832394e+02,9.895255e+03
8.861321e+02,9.855440e+03
8.890248e+02,9.835641e+03
8.919175e+02,9.801887e+03
8.948102e+02,9.780440e+03
8.977029e+02,9.768676e+03
9.005956e+02,9.734483e+03
9.034883e+02,9.732795e+03
9.063810e+02,9.685622e+03
9.092737e+02,9.675448e+03
9.121664e+02,9.664506e+03
9.150591e+02,9.612911e+03
9.179518e+02,9.637162e+03
9.208445e+02,9.588792e+03
9.237372e+02,9.598145e+03
9.266299e+02,9.556163e+03
9.295226e+02,9.562725e+03
9.324153e+02,9.532826e+03
9.353080e+02,9.539478e+03
9.382007e+02,9.487821e+03
9.410934e+02,9.478637e+03
9.439861e+02,9.494666e+03
9.468788e+02,9.481949e+03
9.497715e+02,9.444146e+03
9.526642e+02,9.424925e+03
9.555569e+02,9.398797e+03
9.584496e+02,9.397706e+03
9.613423e+02,9.380091e+03
9.642350e+02,9.391218e+03
9.671277e+02,9.390858e+03
9.700204e+02,9.382349e+03
9.729131e+02,9.281557e+03
9.758058e+02,9.316542e+03
9.786985e+02,9.321732e+03
9.815912e+02,9.308614e+03
9.844839e+02,9.266122e+03
9.873766e+02,9.290790e+03
9.902693e+02,9.277118e+03
9.931620e+02,9.283553e+03
9.960547e+02,9.271761e+03
9.989474e+02,9.277853e+03
1.001840e+03,9.256144e+03
1.004733e+03,9.204800e+03
1.007626e+03,9.256593e+03
1.010518e+03,9.241858e+03
1.013411e+03,9.201186e+03
1.016304e+03,9.202359e+03
1.019196e+03,9.191022e+03
1.022089e+03,9.214764e+03
1.024982e+03,9.198291e+03
1.027875e+03,9.152507e+03
1.030767e+03,9.119428e+03
1.033660e+03,9.169095e+03
1.036552e+03,9.156721e+03
1.039445e+03,9.138482e+03
1.042338e+03,9.131225e+03
1.045231e+03,9.119081e+03
1.048123e+03,9.093784e+03
1.051016e+03,9.071509e+03
1.053909e+03,9.109206e+03
1.056802e+03,9.080747e+03
1.059694e+03,9.072706e+03
1.062587e+03,9.053785e+03
1.065479e+03,9.033052e+03
1.068372e+03,9.056292e+03
1.071265e+03,9.063908e+03
1.074158e+03,9.039418e+03
1.077050e+03,8.987839e+03
1.079943e+03,8.974609e+03
1.082836e+03,8.985346e+03
1.085729e+03,9.030212e+03
1.088621e+03,9.005630e+03
1.091514e+03,8.958058e+03
1.094406e+03,8.935490e+03
1.097299e+03,8.936947e+03
1.100192e+03,8.857812e+03
1.103085e+03,8.894427e+03
1.105977e+03,8.879678e+03
1.108870e+03,8.859274e+03
1.111763e+03,8.858714e+03
1.114656e+03,8.844429e+03
1.117548e+03,8.862490e+03
1.120441e+03,8.865509e+03
1.123334e+03,8.838968e+03
1.126226e+03,8.777003e+03
1.129119e+03,8.811297e+03
1.132012e+03,8.810103e+03
1.134904e+03,8.830964e+03
1.137797e+03,8.774100e+03
1.140690e+03,8.791573e+03
1.143583e+03,8.776588e+03
1.146475e+03,8.785288e+03
1.149368e+03,8.792016e+03
1.152261e+03,8.786364e+03
1.155153e+03,8.744470e+03
1.158046e+03,8.766656e+03
1.160939e+03,8.765729e+03
1.163831e+03,8.755889e+03
1.166724e+03,8.748991e+03
1.169617e+03,8.727405e+03
1.172510e+03,8.699085e+03
1.175402e+03,8.695509e+03
1.178295e+03,8.668920e+03
1.181188e+03,8.698979e+03
1.184080e+03,8.663619e+03
1.186973e+03,8.678620e+03
1.189866e+03,8.672269e+03
1.192758e+03,8.654904e+03
1.195651e+03,8.679054e+03
1.198544e+03,8.644090e+03
1.201437e+03,8.656533e+03
1.204329e+03,8.639881e+03
1.207222e+03,8.593731e+03
1.210115e+03,8.610442e+03
1.213007e+03,8.587325e+03
1.215900e+03,8.588090e+03
1.218793e+03,8.563126e+03
1.221685e+03,8.568271e+03
1.224578e+03,8.577485e+03
1.227471e+03,8.555854e+03
1.230364e+03,8.538321e+03
1.233256e+03,8.515270e+03
1.236149e+03,8.492767e+03
1.239042e+03,8.506838e+03
1.241934e+03,8.495522e+03
1.244827e+03,8.474149e+03
1.247720e+03,8.458146e+03
1.250612e+03,8.440556e+03
1.253505e+03,8.427790e+03
1.256398e+03,8.438943e+03
1.259291e+03,8.449607e+03
1.262183e+03,8.420723e+03
1.265076e+03,8.403202e+03
1.267969e+03,8.381593e+03
1.270861e+03,8.427179e+03
1.273754e+03,8.413144e+03
1.276647e+03,8.405468e+03
1.279539e+03,8.395182e+03
1.282432e+03,8.343236e+03
1.285325e+03,8.388412e+03
1.288218e+03,8.349064e+03
1.291110e+03,8.349980e+03
1.294003e+03,8.334094e+03
1.296896e+03,8.305793e+03
1.299788e+03,8.309817e+03
1.302681e+03,8.304629e+03
1.305574e+03,8.319315e+03
1.308466e+03,8.295826e+03
1.311359e+03,8.286435e+03
1.314252e+03,8.258497e+03
1.317145e+03,8.270897e+03
1.320037e+03,8.315417e+03
1.322930e+03,8.286651e+03
1.325823e+03,8.261033e+03
1.328715e+03,8.228235e+03
1.331608e+03,8.261850e+03
1.334501e+03,8.258072e+03
1.337393e+03,8.263149e+03
1.340286e+03,8.208153e+03
1.343179e+03,8.222214e+03
1.346072e+03,8.204478e+03
1.348964e+03,8.194278e+03
1.351857e+03,8.155346e+03
1.354750e+03,8.154031e+03
1.357642e+03,8.144519e+03
1.360535e+03,8.143008e+03
1.363428e+03,8.134856e+03
1.366320e+03,8.150512e+03
1.369213e+03,8.094056e+03
1.372106e+03,8.120791e+03
1.374999e+03,8.084937e+03
1.377891e+03,8.095421e+03
1.380784e+03,8.082086e+03
1.383677e+03,8.075197e+03
1.386569e+03,8.083685e+03
1.389462e+03,8.034514e+03
1.392355e+03,8.013041e+03
1.395247e+03,8.012906e+03
1.398140e+03,8.043564e+03
1.401033e+03,7.991854e+03
1.403926e+03,7.983740e+03
1.406818e+03,7.909628e+03
1.409711e+03,7.956837e+03
1.412604e+03,7.964472e+03
1.415496e+03,7.950100e+03
1.418389e+03,7.897143e+03
1.421282e+03,7.863636e+03
1.424174e+03,7.874303e+03
1.427067e+03,7.865286e+03
1.429960e+03,7.856912e+03
1.432853e+03,7.864078e+03
1.435745e+03,7.792236e+03
1.438638e+03,7.769124e+03
1.441531e+03,7.777948e+03
1.444423e+03,7.780183e+03
1.447316e+03,7.763293e+03
1.450209e+03,7.746297e+03
1.453101e+03,7.721796e+03
1.455994e+03,7.710285e+03
1.458887e+03,7.719127e+03
1.461780e+03,7.696669e+03
1.464672e+03,7.664158e+03
1.467565e+03,7.652697e+03
1.470458e+03,7.625890e+03
1.473350e+03,7.620530e+03
1.476243e+03,7.617229e+03
1.479136e+03,7.610578e+03
1.482028e+03,7.594756e+03
1.484921e+03,7.568357e+03
1.487814e+03,7.562662e+03
1.490707e+03,7.532269e+03
1.493599e+03,7.542936e+03
1.496492e+03,7.498209e+03
1.499385e+03,7.492252e+03
1.502277e+03,7.491007e+03
1.505170e+03,7.479085e+03
1.508063e+03,7.478019e+03
1.510955e+03,7.443845e+03
1.513848e+03,7.416463e+03
1.516741e+03,7.412606e+03
1.519634e+03,7.416119e+03
1.522526e+03,7.422513e+03
1.525419e+03,7.412130e+03
1.528312e+03,7.367460e+03
1.531204e+03,7.367362e+03
1.534097e+03,7.350126e+03
1.536990e+03,7.345503e+03
1.539882e+03,7.337172e+03
1.542775e+03,7.317419e+03
1.545668e+03,7.322961e+03
1.548561e+03,7.327555e+03
1.551453e+03,7.305268e+03
1.554346e+03,7.282907e+03
1.557239e+03,7.299127e+03
1.560131e+03,7.257451e+03
1.563024e+03,7.240998e+03
1.565917e+03,7.254477e+03
1.568809e+03,7.235539e+03
1.571702e+03,7.219812e+03
1.574595e+03,7.213382e+03
1.577488e+03,7.195398e+03
1.580380e+03,7.191703e+03
1.583273e+03,7.187203e+03
1.586166e+03,7.168459e+03
1.589058e+03,7.145356e+03
1.591951e+03,7.101013e+03
1.594844e+03,7.092779e+03
1.597736e+03,7.091739e+03
1.600629e+03,7.096822e+03
1.603522e+03,7.087476e+03
1.606415e+03,7.028917e+03
1.609307e+03,7.035261e+03
1.612200e+03,7.034946e+03
1.615093e+03,6.986140e+03
1.617985e+03,6.962114e+03
1.620878e+03,6.929783e+03
1.623771e+03,6.888014e+03
1.626663e+03,6.852163e+03
1.629556e+03,6.860839e+03
1.632449e+03,6.842572e+03
1.635342e+03,6.800792e+03
1.638234e+03,6.779763e+03
1.641127e+03,6.779212e+03
1.644020e+03,6.775957e+03
1.646912e+03,6.729625e+03
1.649805e+03,6.763394e+03
1.652698e+03,6.710235e+03
1.655590e+03,6.694667e+03
1.658483e+03,6.692927e+03
1.661376e+03,6.647719e+03
1.664269e+03,6.607234e+03
1.667161e+03,6.610439e+03
1.670054e+03,6.596174e+03
1.672947e+03,6.568609e+03
1.675839e+03,6.560609e+03
1.678732e+03,6.566327e+03
1.681625e+03,6.537993e+03
1.684517e+03,6.504765e+03
1.687410e+03,6.504107e+03
1.690303e+03,6.489930e+03
1.693196e+03,6.481010e+03
1.696088e+03,6.476321e+03
1.698981e+03,6.454026e+03
1.701874e+03,6.456869e+03
1.704766e+03,6.411216e+03
1.707659e+03,6.411755e+03
1.710552e+03,6.400635e+03
1.713444e+03,6.369702e+03
1.716337e+03,6.322198e+03
1.719230e+03,6.363896e+03
1.722123e+03,6.376392e+03
1.725015e+03,6.329042e+03
1.727908e+03,6.314602e+03
1.730801e+03,6.286538e+03
1.733693e+03,6.275854e+03
1.736586e+03,6.282135e+03
1.739479e+03,6.218705e+03
1.742371e+03,6.223594e+03
1.745264e+03,6.211624e+03
1.748157e+03,6.183732e+03
1.751050e+03,6.158895e+03
1.753942e+03,6.134171e+03
1.756835e+03,6.147885e+03
1.759728e+03,6.095326e+03
1.762620e+03,6.127180e+03
1.765513e+03,6.082078e+03
1.768406e+03,6.063131e+03
1.771298e+03,6.068318e+03
1.774191e+03,6.046214e+03
1.777084e+03,6.021719e+03
1.779977e+03,6.001120e+03
1.782869e+03,6.006924e+03
1.785762e+03,5.967544e+03
1.788655e+03,5.957257e+03
1.791547e+03,5.925688e+03
1.794440e+03,5.907934e+03
1.797333e+03,5.898930e+03
1.800225e+03,5.900354e+03
1.803118e+03,5.901784e+03
1.806011e+03,5.846662e+03
1.808904e+03,5.822414e+03
1.811796e+03,5.805435e+03
1.814689e+03,5.811603e+03
1.817582e+03,5.758769e+03
1.820474e+03,5.735111e+03
1.823367e+03,5.738463e+03
1.826260e+03,5.722038e+03
1.829152e+03,5.714347e+03
1.832045e+03,5.682580e+03
1.834938e+03,5.687570e+03
1.837831e+03,5.640482e+03
1.840723e+03,5.671315e+03
1.843616e+03,5.664034e+03
1.846509e+03,5.643942e+03
1.849401e+03,5.603429e+03
1.852294e+03,5.576209e+03
1.855187e+03,5.560721e+03
1.858079e+03,5.544058e+03
1.860972e+03,5.549531e+03
1.863865e+03,5.544150e+03
1.866758e+03,5.533565e+03
1.869650e+03,5.509290e+03
1.872543e+03,5.487665e+03
1.875436e+03,5.500934e+03
1.878328e+03,5.445874e+03
1.881221e+03,5.401574e+03
1.884114e+03,5.399087e+03
1.887006e+03,5.381443e+03
1.889899e+03,5.387704e+03
1.892792e+03,5.381812e+03
1.895685e+03,5.376081e+03
1.898577e+03,5.329457e+03
1.901470e+03,5.332763e+03
1.904363e+03,5.347773e+03
1.907255e+03,5.294501e+03
1.910148e+03,5.302839e+03
1.913041e+03,5.295541e+03
1.915933e+03,5.270721e+03
1.918826e+03,5.230304e+03
1.921719e+03,5.227732e+03
1.924612e+03,5.204600e+03
1.927504e+03,5.205258e+03
1.930397e+03,5.173213e+03
1.933290e+03,5.148361e+03
1.936182e+03,5.147210e+03
1.939075e+03,5.124382e+03
1.941968e+03,5.141767e+03
1.944860e+03,5.066717e+03
1.947753e+03,5.081011e+03
1.950646e+03,5.054250e+03
1.953539e+03,5.056189e+03
1.956431e+03,5.025872e+03
1.959324e+03,5.016187e+03
1.962217e+03,5.001547e+03
1.965109e+03,4.989420e+03
1.968002e+03,4.993169e+03
1.970895e+03,4.961910e+03
1.973787e+03,4.935290e+03
1.976680e+03,4.922636e+03
1.979573e+03,4.916830e+03
1.982466e+03,4.911717e+03
1.985358e+03,4.891078e+03
1.988251e+03,4.865673e+03
1.991144e+03,4.853580e+03
1.994036e+03,4.861517e+03
1.996929e+03,4.830333e+03
1.999822e+03,4.831031e+03
2.002714e+03,4.788846e+03
2.005607e+03,4.790207e+03
2.008500e+03,4.758659e+03
2.011393e+03,4.730047e+03
2.014285e+03,4.730710e+03
2.017178e+03,4.708508e+03
2.020071e+03,4.696010e+03
2.022963e+03,4.673041e+03
2.025856e+03,4.664930e+03
2.028749e+03,4.626803e+03
2.031641e+03,4.673302e+03
2.034534e+03,4.633947e+03
2.037427e+03,4.599219e+03
2.040320e+03,4.565517e+03
2.043212e+03,4.586789e+03
2.046105e+03,4.557188e+03
2.048998e+03,4.551743e+03
2.051890e+03,4.564386e+03
2.054783e+03,4.545379e+03
2.057676e+03,4.537539e+03
2.060568e+03,4.500476e+03
2.063461e+03,4.499711e+03
2.066354e+03,4.493670e+03
2.069247e+03,4.465459e+03
2.072139e+03,4.429989e+03
2.075032e+03,4.423815e+03
2.077925e+03,4.444121e+03
2.080817e+03,4.411501e+03
2.083710e+03,4.381431e+03
2.086603e+03,4.367440e+03
2.089496e+03,4.371492e+03
2.092388e+03,4.306623e+03
2.095281e+03,4.351785e+03
2.098174e+03,4.340253e+03
2.101066e+03,4.322123e+03
2.103959e+03,4.283706e+03
2.106852e+03,4.286806e+03
2.109744e+03,4.324706e+03
2.112637e+03,4.299675e+03
2.115530e+03,4.232357e+03
2.118422e+03,4.252883e+03
2.121315e+03,4.254790e+03
2.124208e+03,4.270417e+03
2.127101e+03,4.182784e+03
2.129993e+03,4.199643e+03
2.132886e+03,4.166032e+03
2.135779e+03,4.190019e+03
2.138671e+03,4.166888e+03
2.141564e+03,4.145237e+03
2.144457e+03,4.104867e+03
2.147350e+03,4.099013e+03
2.150242e+03,4.100381e+03
2.153135e+03,4.083828e+03
2.156028e+03,4.067884e+03
2.158920e+03,4.045780e+03
2.161813e+03,4.046520e+03
2.164706e+03,4.066969e+03
2.167598e+03,4.009559e+03
2.170491e+03,4.022036e+03
2.173384e+03,3.995654e+03
2.176277e+03,3.984432e+03
2.179169e+03,3.939072e+03
2.182062e+03,3.955124e+03
2.184955e+03,3.939616e+03
2.187847e+03,3.926504e+03
2.190740e+03,3.913614e+03
2.193633e+03,3.898693e+03
2.196525e+03,3.884119e+03
2.199418e+03,3.903638e+03
2.202311e+03,3.885459e+03
2.205204e+03,3.862012e+03
2.208096e+03,3.854209e+03
2.210989e+03,3.821437e+03
2.213882e+03,3.821214e+03
2.216774e+03,3.836740e+03
2.219667e+03,3.784239e+03
2.222560e+03,3.781358e+03
2.225452e+03,3.773505e+03
2.228345e+03,3.757379e+03
2.231238e+03,3.788524e+03
2.234131e+03,3.774724e+03
2.237023e+03,3.737119e+03
2.239916e+03,3.718347e+03
2.242809e+03,3.694069e+03
2.245701e+03,3.709805e+03
2.248594e+03,3.688851e+03
2.251487e+03,3.692427e+03
2.254379e+03,3.679444e+03
2.257272e+03,3.657282e+03
2.260165e+03,3.639983e+03
2.263058e+03,3.664559e+03
2.265950e+03,3.624244e+03
2.268843e+03,3.577047e+03
2.271736e+03,3.581700e+03
2.274628e+03,3.610932e+03
2.277521e+03,3.583945e+03
2.280414e+03,3.587865e+03
2.283306e+03,3.604275e+03
2.286199e+03,3.514005e+03
2.289092e+03,3.558778e+03
2.291985e+03,3.533716e+03
2.294877e+03,3.516625e+03
2.297770e+03,3.566921e+03
2.300663e+03,3.508549e+03
2.303555e+03,3.494048e+03
2.306448e+03,3.484199e+03
2.309341e+03,3.494555e+03
2.312233e+03,3.471258e+03
2.315126e+03,3.465504e+03
2.318019e+03,3.422534e+03
2.320912e+03,3.435364e+03
2.323804e+03,3.443733e+03
2.326697e+03,3.426079e+03
2.329590e+03,3.418207e+03
2.332482e+03,3.382227e+03
2.335375e+03,3.396359e+03
2.338268e+03,3.382089e+03
2.341160e+03,3.366341e+03
2.344053e+03,3.407333e+03
2.346946e+03,3.362098e+03
2.349839e+03,3.355613e+03
2.352731e+03,3.307721e+03
2.355624e+03,3.304618e+03
2.358517e+03,3.317757e+03
2.361409e+03,3.319376e+03
2.364302e+03,3.299496e+03
2.367195e+03,3.303459e+03
2.370087e+03,3.272881e+03
2.372980e+03,3.270800e+03
2.375873e+03,3.249234e+03
2.378766e+03,3.233608e+03
2.381658e+03,3.223702e+03
2.384551e+03,3.205339e+03
2.387444e+03,3.199265e+03
2.390336e+03,3.221354e+03
2.393229e+03,3.215841e+03
2.396122e+03,3.198178e+03
2.399014e+03,3.168962e+03
2.401907e+03,3.175761e+03
2.404800e+03,3.165495e+03
2.407693e+03,3.155731e+03
2.410585e+03,3.128824e+03
2.413478e+03,3.140648e+03
2.416371e+03,3.123170e+03
2.419263e+03,3.115509e+03
2.422156e+03,3.117911e+03
2.425049e+03,3.095403e+03
2.427941e+03,3.097365e+03
2.430834e+03,3.113498e+03
2.433727e+03,3.092996e+03
2.436620e+03,3.052959e+03
2.439512e+03,3.063458e+03
2.442405e+03,3.049426e+03
2.445298e+03,3.066076e+03
2.448190e+03,3.042492e+03
2.451083e+03,3.026254e+03
2.453976e+03,3.028728e+03
2.456868e+03,3.006259e+03
2.459761e+03,3.009865e+03
2.462654e+03,2.988375e+03
2.465547e+03,2.986526e+03
2.468439e+03,3.004315e+03
2.471332e+03,2.962757e+03
2.474225e+03,2.949622e+03
2.477117e+03,2.981131e+03
2.480010e+03,3.008994e+03
2.482903e+03,2.960138e+03
2.485795e+03,2.945340e+03
2.488688e+03,2.938934e+03
2.491581e+03,2.915234e+03
2.494474e+03,2.939658e+03
2.497366e+03,2.900999e+03
2.500259e+03,2.915960e+03
2.503152e+03,2.912543e+03
2.506044e+03,2.883064e+03
2.508937e+03,2.894254e+03
2.511830e+03,2.873818e+03
2.514722e+03,2.896784e+03
2.517615e+03,2.882857e+03
2.520508e+03,2.853116e+03
2.523401e+03,2.869894e+03
2.526293e+03,2.835152e+03
2.529186e+03,2.848199e+03
2.532079e+03,2.854634e+03
2.534971e+03,2.812705e+03
2.537864e+03,2.810441e+03
2.540757e+03,2.810646e+03
2.543649e+03,2.835457e+03
2.546542e+03,2.820689e+03
2.549435e+03,2.813048e+03
2.552328e+03,2.810160e+03
2.555220e+03,2.773979e+03
2.558113e+03,2.783384e+03
2.561006e+03,2.781586e+03
2.563898e+03,2.774305e+03
2.566791e+03,2.762215e+03
2.569684e+03,2.760540e+03
2.572576e+03,2.749475e+03
2.575469e+03,2.753324e+03
2.578362e+03,2.752391e+03
2.581255e+03,2.750948e+03
2.584147e+03,2.727298e+03
2.587040e+03,2.718711e+03
2.589933e+03,2.719867e+03
2.592825e+03,2.716403e+03
2.595718e+03,2.716203e+03
2.598611e+03,2.681128e+03
2.601503e+03,2.704440e+03
2.604396e+03,2.685729e+03
2.607289e+03,2.703953e+03
2.610182e+03,2.656328e+03
2.613074e+03,2.685192e+03
2.615967e+03,2.678196e+03
2.618860e+03,2.661705e+03
2.621752e+03,2.678193e+03
2.624645e+03,2.660201e+03
2.627538e+03,2.640355e+03
2.630430e+03,2.626017e+03
2.633323e+03,2.625998e+03
2.636216e+03,2.614770e+03
2.639109e+03,2.622184e+03
2.642001e+03,2.612772e+03
2.644894e+03,2.606072e+03
2.647787e+03,2.637056e+03
2.650679e+03,2.615949e+03
2.653572e+03,2.625614e+03
2.656465e+03,2.621656e+03
2.659357e+03,2.596239e+03
2.662250e+03,2.564225e+03
2.665143e+03,2.599622e+03
2.668036e+03,2.583630e+03
2.670928e+03,2.614671e+03
2.673821e+03,2.556437e+03
2.676714e+03,2.584000e+03
2.679606e+03,2.596708e+03
2.682499e+03,2.550578e+03
2.685392e+03,2.550200e+03
2.688284e+03,2.529532e+03
2.691177e+03,2.526231e+03
2.694070e+03,2.549693e+03
2.696963e+03,2.493036e+03
2.699855e+03,2.537374e+03
2.702748e+03,2.513437e+03
2.705641e+03,2.513419e+03
2.708533e+03,2.514895e+03
2.711426e+03,2.502666e+03
2.714319e+03,2.509581e+03
2.717211e+03,2.517969e+03
2.720104e+03,2.518186e+03
2.722997e+03,2.486599e+03
2.725890e+03,2.508041e+03
2.728782e+03,2.435937e+03
2.731675e+03,2.457116e+03
2.734568e+03,2.486568e+03
2.737460e+03,2.458250e+03
2.740353e+03,2.452303e+03
2.743246e+03,2.458935e+03
2.746138e+03,2.447662e+03
2.749031e+03,2.428650e+03
2.751924e+03,2.454725e+03
2.754817e+03,2.417487e+03
2.757709e+03,2.447288e+03
2.760602e+03,2.426159e+03
2.763495e+03,2.439242e+03
2.766387e+03,2.406523e+03
2.769280e+03,2.413823e+03
2.772173e+03,2.436989e+03
2.775065e+03,2.392844e+03
2.777958e+03,2.403263e+03
2.780851e+03,2.368108e+03
2.783744e+03,2.386495e+03
2.786636e+03,2.376475e+03
2.789529e+03,2.387392e+03
2.792422e+03,2.377202e+03
2.795314e+03,2.404055e+03
2.798207e+03,2.370962e+03
2.801100e+03,2.390397e+03
2.803992e+03,2.358656e+03
2.806885e+03,2.367897e+03
2.809778e+03,2.320135e+03
2.812671e+03,2.335726e+03
2.815563e+03,2.347941e+03
2.818456e+03,2.333361e+03
2.821349e+03,2.341211e+03
2.824241e+03,2.343808e+03
2.827134e+03,2.331323e+03
2.830027e+03,2.320019e+03
2.832919e+03,2.307945e+03
2.835812e+03,2.347875e+03
2.838705e+03,2.301196e+03
2.841598e+03,2.342950e+03
2.844490e+03,2.303065e+03
2.847383e+03,2.260527e+03
2.850276e+03,2.277921e+03
2.853168e+03,2.311886e+03
2.856061e+03,2.320832e+03
2.858954e+03,2.278084e+03
2.861846e+03,2.287321e+03
2.864739e+03,2.281536e+03
2.867632e+03,2.300819e+03
2.870525e+03,2.279720e+03
2.873417e+03,2.305243e+03
2.876310e+03,2.310229e+03
2.879203e+03,2.291643e+03
2.882095e+03,2.275394e+03
2.884988e+03,2.303462e+03
2.887881e+03,2.278600e+03
2.890773e+03,2.292459e+03
2.893666e+03,2.241964e+03
2.896559e+03,2.279848e+03
2.899452e+03,2.254257e+03
2.902344e+03,2.265230e+03
2.905237e+03,2.237956e+03
2.908130e+03,2.256194e+03
2.911022e+03,2.223482e+03
2.913915e+03,2.237380e+03
2.916808e+03,2.238430e+03
2.919700e+03,2.208536e+03
2.922593e+03,2.215282e+03
2.925486e+03,2.185260e+03
2.928379e+03,2.173240e+03
2.931271e+03,2.231813e+03
2.934164e+03,2.183960e+03
2.937057e+03,2.156119e+03
2.939949e+03,2.145492e+03
2.942842e+03,2.173613e+03
2.945735e+03,2.150288e+03
2.948627e+03,2.161575e+03
2.951520e+03,2.170024e+03
2.954413e+03,2.157025e+03
2.957306e+03,2.180803e+03
2.960198e+03,2.158356e+03
2.963091e+03,2.156694e+03
2.965984e+03,2.172435e+03
2.968876e+03,2.148024e+03
2.971769e+03,2.125976e+03
2.974662e+03,2.085686e+03
2.977554e+03,2.133790e+03
2.980447e+03,2.125997e+03
2.983340e+03,2.128850e+03
2.986233e+03,2.103629e+03
2.989125e+03,2.107696e+03
2.992018e+03,2.069634e+03
2.994911e+03,2.075429e+03
2.997803e+03,2.154194e+03
3.000696e+03,2.124855e+03
3.003589e+03,2.098708e+03
3.006481e+03,2.106878e+03
3.009374e+03,2.109893e+03
3.012267e+03,2.089719e+03
3.015160e+03,2.083753e+03
3.018052e+03,2.065539e+03
3.020945e+03,2.039604e+03
3.023838e+03,2.071604e+03
3.026730e+03,2.082566e+03
3.029623e+03,2.044689e+03
3.032516e+03,2.067375e+03
3.035408e+03,2.113431e+03
3.038301e+03,2.055455e+03
3.041194e+03,2.069086e+03
3.044087e+03,2.055350e+03
3.046979e+03,2.071349e+03
3.049872e+03,2.059173e+03
3.052765e+03,2.062540e+03
3.055657e+03,2.070220e+03
3.058550e+03,2.072987e+03
3.061443e+03,2.023271e+03
3.064335e+03,2.049415e+03
3.067228e+03,2.049607e+03
3.070121e+03,2.065949e+03
3.073014e+03,2.053475e+03
3.075906e+03,2.039252e+03
3.078799e+03,2.072291e+03
3.081692e+03,2.064959e+03
3.084584e+03,2.026164e+03
3.087477e+03,2.037683e+03
3.090370e+03,2.039093e+03
3.093262e+03,2.086361e+03
3.096155e+03,2.012114e+03
3.099048e+03,2.002087e+03
3.101941e+03,2.082358e+03
3.104833e+03,2.008683e+03
3.107726e+03,2.000702e+03
3.110619e+03,2.029559e+03
3.113511e+03,2.033348e+03
3.116404e+03,2.016273e+03
3.119297e+03,1.982584e+03
3.122189e+03,1.996330e+03
3.125082e+03,2.004052e+03
3.127975e+03,1.969408e+03
3.130868e+03,2.030622e+03
3.133760e+03,1.973524e+03
3.136653e+03,2.044094e+03
3.139546e+03,2.036496e+03
3.142438e+03,1.985450e+03
3.145331e+03,1.986569e+03
3.148224e+03,2.011221e+03
3.151116e+03,1.964463e+03
3.154009e+03,1.976206e+03
3.156902e+03,2.002580e+03
3.159795e+03,2.008681e+03
3.162687e+03,2.003175e+03
3.165580e+03,2.008070e+03
3.168473e+03,1.969078e+03
3.171365e+03,2.000999e+03
3.174258e+03,2.038705e+03
3.177151e+03,2.021295e+03
3.180043e+03,1.991203e+03
3.182936e+03,2.020037e+03
3.185829e+03,2.046771e+03
3.188722e+03,1.956795e+03
3.191614e+03,2.055643e+03
3.194507e+03,1.971124e+03
3.197400e+03,2.050597e+03
3.200292e+03,2.048306e+03
3.203185e+03,0.000000e+00
3.206078e+03,0.000000e+00
3.208970e+03,0.000000e+00
3.211863e+03,0.000000e+00
3.214756e+03,0.000000e+00
3.217649e+03,0.000000e+00
3.220541e+03,0.000000e+00
3.223434e+03,0.000000e+00
3.226327e+03,0.000000e+00
3.229219e+03,0.000000e+00
3.232112e+03,0.000000e+00
3.235005e+03,0.000000e+00
3.237897e+03,0.000000e+00
3.240790e+03,0.000000e+00
3.243683e+03,0.000000e+00
3.246576e+03,0.000000e+00
3.249468e+03,0.000000e+00
3.252361e+03,0.000000e+00
3.255254e+03,0.000000e+00
3.258146e+03,0.000000e+00
3.261039e+03,0.000000e+00
3.263932e+03,0.000000e+00
3.266824e+03,0.000000e+00
3.269717e+03,0.000000e+00
3.272610e+03,0.000000e+00
3.275503e+03,0.000000e+00
3.278395e+03,0.000000e+00
3.281288e+03,0.000000e+00
3.284181e+03,0.000000e+00
3.287073e+03,0.000000e+00
3.289966e+03,0.000000e+00
3.292859e+03,0.000000e+00
3.295751e+03,0.000000e+00
3.298644e+03,0.000000e+00
3.301537e+03,0.000000e+00
3.304430e+03,0.000000e+00
3.307322e+03,0.000000e+00
3.310215e+03,0.000000e+00
3.313108e+03,0.000000e+00
3.316000e+03,0.000000e+00
3.318893e+03,0.000000e+00
3.321786e+03,0.000000e+00
3.324678e+03,0.000000e+00
3.327571e+03,0.000000e+00
3.330464e+03,0.000000e+00
3.333357e+03,0.000000e+00
3.336249e+03,0.000000e+00
3.339142e+03,0.000000e+00
3.342035e+03,0.000000e+00
3.344927e+03,0.000000e+00
3.347820e+03,0.000000e+00
3.350713e+03,0.000000e+00
3.353605e+03,0.000000e+00
3.356498e+03,0.000000e+00
3.359391e+03,0.000000e+00
3.362284e+03,0.000000e+00
3.365176e+03,0.000000e+00
3.368069e+03,0.000000e+00
3.370962e+03,0.000000e+00
3.373854e+03,0.000000e+00
3.376747e+03,0.000000e+00
3.379640e+03,0.000000e+00
3.382532e+03,0.000000e+00
3.385425e+03,0.000000e+00
3.388318e+03,0.000000e+00
3.391211e+03,0.000000e+00
3.394103e+03,0.000000e+00
3.396996e+03,0.000000e+00
3.399889e+03,0.000000e+00
3.402781e+03,0.000000e+00
3.405674e+03,0.000000e+00
3.408567e+03,0.000000e+00
3.411459e+03,0.000000e+00
3.414352e+03,0.000000e+00
3.417245e+03,0.000000e+00
3.420138e+03,0.000000e+00
3.423030e+03,0.000000e+00
3.425923e+03,0.000000e+00
3.428816e+03,0.000000e+00
3.431708e+03,0.000000e+00
3.434601e+03,0.000000e+00
3.437494e+03,0.000000e+00
3.440386e+03,0.000000e+00
3.443279e+03,0.000000e+00
3.446172e+03,0.000000e+00
3.449065e+03,0.000000e+00
3.451957e+03,0.000000e+00
3.454850e+03,0.000000e+00
3.457743e+03,0.000000e+00
3.460635e+03,0.000000e+00
3.463528e+03,0.000000e+00
3.466421e+03,0.000000e+00
3.469313e+03,0.000000e+00
3.472206e+03,0.000000e+00
3.475099e+03,0.000000e+00
3.477992e+03,0.000000e+00
3.480884e+03,0.000000e+00
3.483777e+03,0.000000e+00
3.486670e+03,0.000000e+00
3.489563e+03,0.000000e+00
3.492455e+03,0.000000e+00
3.495348e+03,0.000000e+00
3.498240e+03,0.000000e+00
3.500169e+03,0.000000e+00