File: RAMAN_data/13042023_r1/blue fibre6.CSV
9.931763e+01,0.000000e+00
1.022103e+02,0.000000e+00
1.051030e+02,0.000000e+00
1.079957e+02,0.000000e+00
1.108884e+02,0.000000e+00
1.137811e+02,0.000000e+00
1.166738e+02,0.000000e+00
1.195665e+02,0.000000e+00
1.224592e+02,0.000000e+00
1.253519e+02,0.000000e+00
1.282446e+02,0.000000e+00
1.311373e+02,0.000000e+00
1.340300e+02,0.000000e+00
1.369227e+02,0.000000e+00
1.398154e+02,0.000000e+00
1.427081e+02,0.000000e+00
1.456008e+02,0.000000e+00
1.484935e+02,0.000000e+00
1.513862e+02,0.000000e+00
1.542789e+02,0.000000e+00
1.571716e+02,0.000000e+00
1.600643e+02,0.000000e+00
1.629570e+02,0.000000e+00
1.658497e+02,0.000000e+00
1.687424e+02,0.000000e+00
1.716351e+02,0.000000e+00
1.745278e+02,0.000000e+00
1.774205e+02,0.000000e+00
1.803132e+02,0.000000e+00
1.832059e+02,0.000000e+00
1.860986e+02,0.000000e+00
1.889913e+02,0.000000e+00
1.918840e+02,0.000000e+00
1.947767e+02,0.000000e+00
1.976694e+02,0.000000e+00
2.005621e+02,8.383921e+03
2.034548e+02,8.398667e+03
2.063475e+02,8.407107e+03
2.092402e+02,8.342670e+03
2.121329e+02,8.340677e+03
2.150256e+02,8.327139e+03
2.179183e+02,8.304712e+03
2.208110e+02,8.299842e+03
2.237037e+02,8.293342e+03
2.265964e+02,8.247928e+03
2.294892e+02,8.252599e+03
2.323819e+02,8.248880e+03
2.352746e+02,8.229608e+03
2.381673e+02,8.216091e+03
2.410600e+02,8.166266e+03
2.439527e+02,8.159008e+03
2.468454e+02,8.170693e+03
2.497381e+02,8.168162e+03
2.526308e+02,8.111610e+03
2.555235e+02,8.085459e+03
2.584161e+02,8.074328e+03
2.613088e+02,8.056942e+03
2.642015e+02,8.035825e+03
2.670942e+02,8.023184e+03
2.699869e+02,8.011161e+03
2.728796e+02,7.994963e+03
2.757723e+02,7.956636e+03
2.786650e+02,7.968550e+03
2.815577e+02,7.936799e+03
2.844504e+02,7.890161e+03
2.873431e+02,7.906837e+03
2.902358e+02,7.854361e+03
2.931285e+02,7.839517e+03
2.960212e+02,7.840400e+03
2.989139e+02,7.831960e+03
3.018066e+02,7.784828e+03
3.046993e+02,7.746269e+03
3.075920e+02,7.756375e+03
3.104847e+02,7.727837e+03
3.133774e+02,7.749518e+03
3.162701e+02,7.720989e+03
3.191628e+02,7.676363e+03
3.220555e+02,7.637677e+03
3.249482e+02,7.636055e+03
3.278409e+02,7.609795e+03
3.307336e+02,7.618406e+03
3.336263e+02,7.601328e+03
3.365190e+02,7.555237e+03
3.394117e+02,7.532749e+03
3.423044e+02,7.532441e+03
3.451971e+02,7.516821e+03
3.480898e+02,7.495474e+03
3.509825e+02,7.437576e+03
3.538752e+02,7.455711e+03
3.567680e+02,7.433923e+03
3.596607e+02,7.415572e+03
3.625534e+02,7.395112e+03
3.654461e+02,7.356208e+03
3.683388e+02,7.362295e+03
3.712315e+02,7.346677e+03
3.741242e+02,7.332802e+03
3.770169e+02,7.323170e+03
3.799096e+02,7.303067e+03
3.828023e+02,7.249397e+03
3.856950e+02,7.236585e+03
3.885877e+02,7.250605e+03
3.914804e+02,7.227058e+03
3.943731e+02,7.201554e+03
3.972658e+02,7.157019e+03
4.001585e+02,7.152939e+03
4.030512e+02,7.130453e+03
4.059439e+02,7.106603e+03
4.088366e+02,7.081821e+03
4.117293e+02,7.063009e+03
4.146220e+02,7.067041e+03
4.175147e+02,7.041204e+03
4.204074e+02,7.023531e+03
4.233001e+02,7.010312e+03
4.261928e+02,6.956046e+03
4.290855e+02,6.998458e+03
4.319782e+02,6.977156e+03
4.348709e+02,6.941653e+03
4.377636e+02,6.938850e+03
4.406563e+02,6.899499e+03
4.435490e+02,6.873031e+03
4.464417e+02,6.870705e+03
4.493344e+02,6.855888e+03
4.522271e+02,6.842429e+03
4.551198e+02,6.828421e+03
4.580125e+02,6.801985e+03
4.609052e+02,6.784702e+03
4.637979e+02,6.777926e+03
4.666906e+02,6.749438e+03
4.695833e+02,6.696839e+03
4.724760e+02,6.693169e+03
4.753687e+02,6.700675e+03
4.782614e+02,6.671921e+03
4.811541e+02,6.659670e+03
4.840468e+02,6.671028e+03
4.869395e+02,6.654546e+03
4.898322e+02,6.632010e+03
4.927249e+02,6.621614e+03
4.956176e+02,6.601127e+03
4.985103e+02,6.588991e+03
5.014030e+02,6.566123e+03
5.042957e+02,6.532444e+03
5.071884e+02,6.515356e+03
5.100811e+02,6.496146e+03
5.129738e+02,6.484978e+03
5.158665e+02,6.497388e+03
5.187592e+02,6.484682e+03
5.216519e+02,6.443301e+03
5.245446e+02,6.416128e+03
5.274373e+02,6.402472e+03
5.303300e+02,6.399302e+03
5.332227e+02,6.357945e+03
5.361154e+02,6.358904e+03
5.390081e+02,6.320271e+03
5.419008e+02,6.319520e+03
5.447935e+02,6.303422e+03
5.476862e+02,6.285675e+03
5.505789e+02,6.251748e+03
5.534716e+02,6.245269e+03
5.563643e+02,6.241366e+03
5.592570e+02,6.246667e+03
5.621497e+02,6.209389e+03
5.650424e+02,6.210154e+03
5.679351e+02,6.177920e+03
5.708278e+02,6.139304e+03
5.737205e+02,6.136063e+03
5.766132e+02,6.158158e+03
5.795059e+02,6.133269e+03
5.823986e+02,6.111282e+03
5.852913e+02,6.079704e+03
5.881840e+02,6.084557e+03
5.910767e+02,6.059898e+03
5.939694e+02,6.025724e+03
5.968621e+02,6.012547e+03
5.997548e+02,6.009560e+03
6.026475e+02,5.996834e+03
6.055402e+02,6.004333e+03
6.084329e+02,5.987571e+03
6.113256e+02,5.957220e+03
6.142183e+02,5.936376e+03
6.171110e+02,5.937250e+03
6.200037e+02,5.913057e+03
6.228964e+02,5.912763e+03
6.257891e+02,5.873155e+03
6.286818e+02,5.878143e+03
6.315745e+02,5.843105e+03
6.344672e+02,5.817773e+03
6.373599e+02,5.820610e+03
6.402526e+02,5.809514e+03
6.431453e+02,5.789774e+03
6.460380e+02,5.789756e+03
6.489307e+02,5.776327e+03
6.518234e+02,5.753624e+03
6.547161e+02,5.743318e+03
6.576088e+02,5.720125e+03
6.605015e+02,5.681976e+03
6.633942e+02,5.700670e+03
6.662869e+02,5.687357e+03
6.691796e+02,5.671993e+03
6.720723e+02,5.661008e+03
6.749650e+02,5.657016e+03
6.778577e+02,5.624276e+03
6.807504e+02,5.621581e+03
6.836431e+02,5.624475e+03
6.865358e+02,5.585826e+03
6.894285e+02,5.565356e+03
6.923212e+02,5.558690e+03
6.952139e+02,5.557397e+03
6.981066e+02,5.536901e+03
7.009993e+02,5.526616e+03
7.038920e+02,5.518532e+03
7.067847e+02,5.520817e+03
7.096774e+02,5.488327e+03
7.125701e+02,5.472417e+03
7.154628e+02,5.475028e+03
7.183555e+02,5.449283e+03
7.212482e+02,5.453872e+03
7.241409e+02,5.467017e+03
7.270336e+02,5.431897e+03
7.299263e+02,5.425653e+03
7.328190e+02,5.414124e+03
7.357117e+02,5.389920e+03
7.386044e+02,5.372692e+03
7.414971e+02,5.340882e+03
7.443898e+02,5.346243e+03
7.472825e+02,5.323093e+03
7.501752e+02,5.320680e+03
7.530679e+02,5.299703e+03
7.559606e+02,5.304907e+03
7.588533e+02,5.292705e+03
7.617460e+02,5.290263e+03
7.646387e+02,5.263864e+03
7.675314e+02,5.241500e+03
7.704241e+02,5.241417e+03
7.733168e+02,5.223897e+03
7.762095e+02,5.216017e+03
7.791022e+02,5.210413e+03
7.819949e+02,5.215451e+03
7.848876e+02,5.194119e+03
7.877803e+02,5.177046e+03
7.906730e+02,5.163102e+03
7.935657e+02,5.170589e+03
7.964584e+02,5.128003e+03
7.993511e+02,5.104375e+03
8.022438e+02,5.107228e+03
8.051365e+02,5.107970e+03
8.080292e+02,5.108073e+03
8.109219e+02,5.078854e+03
8.138146e+02,5.073591e+03
8.167073e+02,5.049374e+03
8.196000e+02,5.046134e+03
8.224927e+02,5.038275e+03
8.253854e+02,4.994256e+03
8.282781e+02,4.994998e+03
8.311708e+02,4.986019e+03
8.340635e+02,4.996871e+03
8.369562e+02,4.995483e+03
8.398489e+02,4.972006e+03
8.427416e+02,4.951231e+03
8.456343e+02,4.943247e+03
8.485270e+02,4.955365e+03
8.514197e+02,4.939807e+03
8.543124e+02,4.920026e+03
8.572051e+02,4.916136e+03
8.600978e+02,4.880027e+03
8.629905e+02,4.873125e+03
8.658832e+02,4.851581e+03
8.687759e+02,4.844334e+03
8.716686e+02,4.834151e+03
8.745613e+02,4.822131e+03
8.774540e+02,4.807787e+03
8.803467e+02,4.821785e+03
8.832394e+02,4.800532e+03
8.861321e+02,4.813244e+03
8.890248e+02,4.786496e+03
8.919175e+02,4.772351e+03
8.948102e+02,4.774497e+03
8.977029e+02,4.759126e+03
9.005956e+02,4.738953e+03
9.034883e+02,4.736519e+03
9.063810e+02,4.721944e+03
9.092737e+02,4.715764e+03
9.121664e+02,4.693548e+03
9.150591e+02,4.682006e+03
9.179518e+02,4.676318e+03
9.208445e+02,4.668250e+03
9.237372e+02,4.645770e+03
9.266299e+02,4.632572e+03
9.295226e+02,4.646217e+03
9.324153e+02,4.627819e+03
9.353080e+02,4.605928e+03
9.382007e+02,4.604295e+03
9.410934e+02,4.587400e+03
9.439861e+02,4.586966e+03
9.468788e+02,4.580743e+03
9.497715e+02,4.586930e+03
9.526642e+02,4.561336e+03
9.555569e+02,4.551049e+03
9.584496e+02,4.537120e+03
9.613423e+02,4.549871e+03
9.642350e+02,4.530392e+03
9.671277e+02,4.518592e+03
9.700204e+02,4.503956e+03
9.729131e+02,4.484173e+03
9.758058e+02,4.479103e+03
9.786985e+02,4.463451e+03
9.815912e+02,4.450439e+03
9.844839e+02,4.454340e+03
9.873766e+02,4.444964e+03
9.902693e+02,4.442047e+03
9.931620e+02,4.439750e+03
9.960547e+02,4.427102e+03
9.989474e+02,4.403824e+03
1.001840e+03,4.401226e+03
1.004733e+03,4.380352e+03
1.007626e+03,4.393427e+03
1.010518e+03,4.372664e+03
1.013411e+03,4.337690e+03
1.016304e+03,4.338355e+03
1.019196e+03,4.336712e+03
1.022089e+03,4.328663e+03
1.024982e+03,4.333084e+03
1.027875e+03,4.319651e+03
1.030767e+03,4.300651e+03
1.033660e+03,4.298958e+03
1.036552e+03,4.283426e+03
1.039445e+03,4.262487e+03
1.042338e+03,4.263755e+03
1.045231e+03,4.260382e+03
1.048123e+03,4.242443e+03
1.051016e+03,4.231585e+03
1.053909e+03,4.236622e+03
1.056802e+03,4.219347e+03
1.059694e+03,4.217318e+03
1.062587e+03,4.195217e+03
1.065479e+03,4.196070e+03
1.068372e+03,4.192882e+03
1.071265e+03,4.171157e+03
1.074158e+03,4.176785e+03
1.077050e+03,4.150903e+03
1.079943e+03,4.148535e+03
1.082836e+03,4.139071e+03
1.085729e+03,4.186618e+03
1.088621e+03,4.140926e+03
1.091514e+03,4.141278e+03
1.094406e+03,4.117201e+03
1.097299e+03,4.100724e+03
1.100192e+03,4.097581e+03
1.103085e+03,4.085271e+03
1.105977e+03,4.086584e+03
1.108870e+03,4.059128e+03
1.111763e+03,4.056329e+03
1.114656e+03,4.055206e+03
1.117548e+03,4.058828e+03
1.120441e+03,4.035003e+03
1.123334e+03,4.053868e+03
1.126226e+03,4.035899e+03
1.129119e+03,4.003184e+03
1.132012e+03,3.991746e+03
1.134904e+03,3.970943e+03
1.137797e+03,3.962480e+03
1.140690e+03,3.981022e+03
1.143583e+03,3.964352e+03
1.146475e+03,3.963104e+03
1.149368e+03,3.965417e+03
1.152261e+03,3.955951e+03
1.155153e+03,3.934132e+03
1.158046e+03,3.888574e+03
1.160939e+03,3.897790e+03
1.163831e+03,3.891383e+03
1.166724e+03,3.886677e+03
1.169617e+03,3.865504e+03
1.172510e+03,3.863473e+03
1.175402e+03,3.849110e+03
1.178295e+03,3.844823e+03
1.181188e+03,3.833523e+03
1.184080e+03,3.825770e+03
1.186973e+03,3.814128e+03
1.189866e+03,3.810426e+03
1.192758e+03,3.803317e+03
1.195651e+03,3.800290e+03
1.198544e+03,3.794885e+03
1.201437e+03,3.755960e+03
1.204329e+03,3.764387e+03
1.207222e+03,3.760642e+03
1.210115e+03,3.763896e+03
1.213007e+03,3.750734e+03
1.215900e+03,3.733439e+03
1.218793e+03,3.739003e+03
1.221685e+03,3.720522e+03
1.224578e+03,3.708530e+03
1.227471e+03,3.705687e+03
1.230364e+03,3.692723e+03
1.233256e+03,3.694235e+03
1.236149e+03,3.665699e+03
1.239042e+03,3.657765e+03
1.241934e+03,3.664162e+03
1.244827e+03,3.651553e+03
1.247720e+03,3.647121e+03
1.250612e+03,3.637990e+03
1.253505e+03,3.628591e+03
1.256398e+03,3.615288e+03
1.259291e+03,3.607681e+03
1.262183e+03,3.607423e+03
1.265076e+03,3.606414e+03
1.267969e+03,3.586121e+03
1.270861e+03,3.599225e+03
1.273754e+03,3.600074e+03
1.276647e+03,3.589812e+03
1.279539e+03,3.581600e+03
1.282432e+03,3.575082e+03
1.285325e+03,3.571512e+03
1.288218e+03,3.562331e+03
1.291110e+03,3.549423e+03
1.294003e+03,3.530843e+03
1.296896e+03,3.511528e+03
1.299788e+03,3.526331e+03
1.302681e+03,3.502542e+03
1.305574e+03,3.489937e+03
1.308466e+03,3.491296e+03
1.311359e+03,3.484282e+03
1.314252e+03,3.488030e+03
1.317145e+03,3.473908e+03
1.320037e+03,3.494375e+03
1.322930e+03,3.452214e+03
1.325823e+03,3.453591e+03
1.328715e+03,3.452027e+03
1.331608e+03,3.429885e+03
1.334501e+03,3.456535e+03
1.337393e+03,3.443358e+03
1.340286e+03,3.412941e+03
1.343179e+03,3.404496e+03
1.346072e+03,3.411441e+03
1.348964e+03,3.407052e+03
1.351857e+03,3.390668e+03
1.354750e+03,3.372709e+03
1.357642e+03,3.376363e+03
1.360535e+03,3.343917e+03
1.363428e+03,3.371644e+03
1.366320e+03,3.361303e+03
1.369213e+03,3.352761e+03
1.372106e+03,3.337565e+03
1.374999e+03,3.313785e+03
1.377891e+03,3.333541e+03
1.380784e+03,3.310625e+03
1.383677e+03,3.308485e+03
1.386569e+03,3.290678e+03
1.389462e+03,3.267004e+03
1.392355e+03,3.263162e+03
1.395247e+03,3.263161e+03
1.398140e+03,3.258614e+03
1.401033e+03,3.263799e+03
1.403926e+03,3.244739e+03
1.406818e+03,3.233081e+03
1.409711e+03,3.228173e+03
1.412604e+03,3.223351e+03
1.415496e+03,3.228541e+03
1.418389e+03,3.197936e+03
1.421282e+03,3.190770e+03
1.424174e+03,3.191832e+03
1.427067e+03,3.185354e+03
1.429960e+03,3.166771e+03
1.432853e+03,3.183663e+03
1.435745e+03,3.154028e+03
1.438638e+03,3.140704e+03
1.441531e+03,3.156100e+03
1.444423e+03,3.137689e+03
1.447316e+03,3.133788e+03
1.450209e+03,3.122282e+03
1.453101e+03,3.093727e+03
1.455994e+03,3.114190e+03
1.458887e+03,3.108024e+03
1.461780e+03,3.097200e+03
1.464672e+03,3.067816e+03
1.467565e+03,3.069341e+03
1.470458e+03,3.080346e+03
1.473350e+03,3.065722e+03
1.476243e+03,3.079036e+03
1.479136e+03,3.078444e+03
1.482028e+03,3.036252e+03
1.484921e+03,3.027717e+03
1.487814e+03,3.025622e+03
1.490707e+03,3.034324e+03
1.493599e+03,2.994885e+03
1.496492e+03,2.995542e+03
1.499385e+03,2.987406e+03
1.502277e+03,2.987196e+03
1.505170e+03,2.992188e+03
1.508063e+03,2.963234e+03
1.510955e+03,2.950875e+03
1.513848e+03,2.945543e+03
1.516741e+03,2.933146e+03
1.519634e+03,2.960099e+03
1.522526e+03,2.929300e+03
1.525419e+03,2.937852e+03
1.528312e+03,2.928640e+03
1.531204e+03,2.901537e+03
1.534097e+03,2.912079e+03
1.536990e+03,2.903995e+03
1.539882e+03,2.889142e+03
1.542775e+03,2.874753e+03
1.545668e+03,2.868378e+03
1.548561e+03,2.876617e+03
1.551453e+03,2.872091e+03
1.554346e+03,2.867349e+03
1.557239e+03,2.856063e+03
1.560131e+03,2.842909e+03
1.563024e+03,2.831492e+03
1.565917e+03,2.841493e+03
1.568809e+03,2.832630e+03
1.571702e+03,2.819565e+03
1.574595e+03,2.819882e+03
1.577488e+03,2.826326e+03
1.580380e+03,2.807263e+03
1.583273e+03,2.824271e+03
1.586166e+03,2.804418e+03
1.589058e+03,2.792829e+03
1.591951e+03,2.787411e+03
1.594844e+03,2.794818e+03
1.597736e+03,2.777840e+03
1.600629e+03,2.750876e+03
1.603522e+03,2.757329e+03
1.606415e+03,2.734872e+03
1.609307e+03,2.742149e+03
1.612200e+03,2.730287e+03
1.615093e+03,2.717979e+03
1.617985e+03,2.709550e+03
1.620878e+03,2.702408e+03
1.623771e+03,2.699993e+03
1.626663e+03,2.688187e+03
1.629556e+03,2.685395e+03
1.632449e+03,2.668362e+03
1.635342e+03,2.685165e+03
1.638234e+03,2.663477e+03
1.641127e+03,2.655321e+03
1.644020e+03,2.662666e+03
1.646912e+03,2.632742e+03
1.649805e+03,2.642172e+03
1.652698e+03,2.654231e+03
1.655590e+03,2.622522e+03
1.658483e+03,2.612158e+03
1.661376e+03,2.594592e+03
1.664269e+03,2.589695e+03
1.667161e+03,2.598727e+03
1.670054e+03,2.577012e+03
1.672947e+03,2.582490e+03
1.675839e+03,2.580514e+03
1.678732e+03,2.562961e+03
1.681625e+03,2.540238e+03
1.684517e+03,2.548060e+03
1.687410e+03,2.529359e+03
1.690303e+03,2.524747e+03
1.693196e+03,2.535412e+03
1.696088e+03,2.505004e+03
1.698981e+03,2.521454e+03
1.701874e+03,2.505154e+03
1.704766e+03,2.491901e+03
1.707659e+03,2.508456e+03
1.710552e+03,2.495637e+03
1.713444e+03,2.473597e+03
1.716337e+03,2.483182e+03
1.719230e+03,2.469814e+03
1.722123e+03,2.456830e+03
1.725015e+03,2.451919e+03
1.727908e+03,2.445447e+03
1.730801e+03,2.436215e+03
1.733693e+03,2.452332e+03
1.736586e+03,2.424306e+03
1.739479e+03,2.427812e+03
1.742371e+03,2.409398e+03
1.745264e+03,2.400603e+03
1.748157e+03,2.403369e+03
1.751050e+03,2.394726e+03
1.753942e+03,2.405312e+03
1.756835e+03,2.389314e+03
1.759728e+03,2.378788e+03
1.762620e+03,2.371127e+03
1.765513e+03,2.374544e+03
1.768406e+03,2.363586e+03
1.771298e+03,2.358313e+03
1.774191e+03,2.359968e+03
1.777084e+03,2.351886e+03
1.779977e+03,2.338054e+03
1.782869e+03,2.327626e+03
1.785762e+03,2.328047e+03
1.788655e+03,2.324679e+03
1.791547e+03,2.302715e+03
1.794440e+03,2.290851e+03
1.797333e+03,2.308117e+03
1.800225e+03,2.281340e+03
1.803118e+03,2.295639e+03
1.806011e+03,2.280978e+03
1.808904e+03,2.272221e+03
1.811796e+03,2.253850e+03
1.814689e+03,2.269059e+03
1.817582e+03,2.263436e+03
1.820474e+03,2.251216e+03
1.823367e+03,2.241347e+03
1.826260e+03,2.222142e+03
1.829152e+03,2.229770e+03
1.832045e+03,2.234502e+03
1.834938e+03,2.220048e+03
1.837831e+03,2.195220e+03
1.840723e+03,2.189354e+03
1.843616e+03,2.197186e+03
1.846509e+03,2.180470e+03
1.849401e+03,2.185856e+03
1.852294e+03,2.173055e+03
1.855187e+03,2.172301e+03
1.858079e+03,2.155031e+03
1.860972e+03,2.158303e+03
1.863865e+03,2.144210e+03
1.866758e+03,2.135766e+03
1.869650e+03,2.140490e+03
1.872543e+03,2.118512e+03
1.875436e+03,2.136342e+03
1.878328e+03,2.117373e+03
1.881221e+03,2.120049e+03
1.884114e+03,2.094462e+03
1.887006e+03,2.096555e+03
1.889899e+03,2.103933e+03
1.892792e+03,2.101193e+03
1.895685e+03,2.085832e+03
1.898577e+03,2.067554e+03
1.901470e+03,2.056294e+03
1.904363e+03,2.052731e+03
1.907255e+03,2.061110e+03
1.910148e+03,2.052310e+03
1.913041e+03,2.052743e+03
1.915933e+03,2.028544e+03
1.918826e+03,2.023805e+03
1.921719e+03,2.025161e+03
1.924612e+03,2.029571e+03
1.927504e+03,2.037622e+03
1.930397e+03,1.999649e+03
1.933290e+03,1.988986e+03
1.936182e+03,1.987871e+03
1.939075e+03,1.999429e+03
1.941968e+03,1.980078e+03
1.944860e+03,1.977941e+03
1.947753e+03,1.966391e+03
1.950646e+03,1.953231e+03
1.953539e+03,1.961331e+03
1.956431e+03,1.957786e+03
1.959324e+03,1.939387e+03
1.962217e+03,1.935782e+03
1.965109e+03,1.918376e+03
1.968002e+03,1.946265e+03
1.970895e+03,1.923248e+03
1.973787e+03,1.926702e+03
1.976680e+03,1.914777e+03
1.979573e+03,1.909493e+03
1.982466e+03,1.906208e+03
1.985358e+03,1.900260e+03
1.988251e+03,1.890193e+03
1.991144e+03,1.867413e+03
1.994036e+03,1.860515e+03
1.996929e+03,1.868629e+03
1.999822e+03,1.872244e+03
2.002714e+03,1.847798e+03
2.005607e+03,1.860683e+03
2.008500e+03,1.846837e+03
2.011393e+03,1.830392e+03
2.014285e+03,1.837475e+03
2.017178e+03,1.815516e+03
2.020071e+03,1.828327e+03
2.022963e+03,1.807631e+03
2.025856e+03,1.823402e+03
2.028749e+03,1.792383e+03
2.031641e+03,1.795444e+03
2.034534e+03,1.800043e+03
2.037427e+03,1.795977e+03
2.040320e+03,1.780245e+03
2.043212e+03,1.773096e+03
2.046105e+03,1.757954e+03
2.048998e+03,1.768659e+03
2.051890e+03,1.763796e+03
2.054783e+03,1.751422e+03
2.057676e+03,1.748903e+03
2.060568e+03,1.737795e+03
2.063461e+03,1.731830e+03
2.066354e+03,1.718701e+03
2.069247e+03,1.726773e+03
2.072139e+03,1.718105e+03
2.075032e+03,1.717888e+03
2.077925e+03,1.707368e+03
2.080817e+03,1.721638e+03
2.083710e+03,1.694984e+03
2.086603e+03,1.687712e+03
2.089496e+03,1.687583e+03
2.092388e+03,1.675124e+03
2.095281e+03,1.670845e+03
2.098174e+03,1.663543e+03
2.101066e+03,1.676680e+03
2.103959e+03,1.636136e+03
2.106852e+03,1.655371e+03
2.109744e+03,1.663071e+03
2.112637e+03,1.642327e+03
2.115530e+03,1.636982e+03
2.118422e+03,1.631467e+03
2.121315e+03,1.647519e+03
2.124208e+03,1.636589e+03
2.127101e+03,1.616548e+03
2.129993e+03,1.612386e+03
2.132886e+03,1.625173e+03
2.135779e+03,1.614330e+03
2.138671e+03,1.601545e+03
2.141564e+03,1.592782e+03
2.144457e+03,1.572699e+03
2.147350e+03,1.591490e+03
2.150242e+03,1.570127e+03
2.153135e+03,1.577092e+03
2.156028e+03,1.564542e+03
2.158920e+03,1.564789e+03
2.161813e+03,1.538237e+03
2.164706e+03,1.556296e+03
2.167598e+03,1.539522e+03
2.170491e+03,1.553154e+03
2.173384e+03,1.543424e+03
2.176277e+03,1.533455e+03
2.179169e+03,1.541072e+03
2.182062e+03,1.509808e+03
2.184955e+03,1.524765e+03
2.187847e+03,1.514566e+03
2.190740e+03,1.517935e+03
2.193633e+03,1.495896e+03
2.196525e+03,1.502735e+03
2.199418e+03,1.487276e+03
2.202311e+03,1.475619e+03
2.205204e+03,1.486598e+03
2.208096e+03,1.496070e+03
2.210989e+03,1.440777e+03
2.213882e+03,1.467605e+03
2.216774e+03,1.461546e+03
2.219667e+03,1.449336e+03
2.222560e+03,1.463430e+03
2.225452e+03,1.430695e+03
2.228345e+03,1.436914e+03
2.231238e+03,1.437179e+03
2.234131e+03,1.441940e+03
2.237023e+03,1.421986e+03
2.239916e+03,1.427389e+03
2.242809e+03,1.403410e+03
2.245701e+03,1.422084e+03
2.248594e+03,1.409219e+03
2.251487e+03,1.407319e+03
2.254379e+03,1.387817e+03
2.257272e+03,1.380290e+03
2.260165e+03,1.380260e+03
2.263058e+03,1.370161e+03
2.265950e+03,1.366626e+03
2.268843e+03,1.375349e+03
2.271736e+03,1.371911e+03
2.274628e+03,1.336460e+03
2.277521e+03,1.351317e+03
2.280414e+03,1.344379e+03
2.283306e+03,1.349720e+03
2.286199e+03,1.337241e+03
2.289092e+03,1.342068e+03
2.291985e+03,1.340480e+03
2.294877e+03,1.332358e+03
2.297770e+03,1.327078e+03
2.300663e+03,1.329875e+03
2.303555e+03,1.312083e+03
2.306448e+03,1.306260e+03
2.309341e+03,1.307217e+03
2.312233e+03,1.293722e+03
2.315126e+03,1.298564e+03
2.318019e+03,1.282320e+03
2.320912e+03,1.298904e+03
2.323804e+03,1.281888e+03
2.326697e+03,1.292729e+03
2.329590e+03,1.269214e+03
2.332482e+03,1.264987e+03
2.335375e+03,1.256912e+03
2.338268e+03,1.277478e+03
2.341160e+03,1.263505e+03
2.344053e+03,1.262967e+03
2.346946e+03,1.254754e+03
2.349839e+03,1.243298e+03
2.352731e+03,1.238428e+03
2.355624e+03,1.242682e+03
2.358517e+03,1.240538e+03
2.361409e+03,1.231338e+03
2.364302e+03,1.216877e+03
2.367195e+03,1.225723e+03
2.370087e+03,1.219987e+03
2.372980e+03,1.219902e+03
2.375873e+03,1.220123e+03
2.378766e+03,1.196609e+03
2.381658e+03,1.200750e+03
2.384551e+03,1.197712e+03
2.387444e+03,1.189907e+03
2.390336e+03,1.187932e+03
2.393229e+03,1.194742e+03
2.396122e+03,1.183378e+03
2.399014e+03,1.177220e+03
2.401907e+03,1.163871e+03
2.404800e+03,1.153148e+03
2.407693e+03,1.175718e+03
2.410585e+03,1.167007e+03
2.413478e+03,1.169519e+03
2.416371e+03,1.145194e+03
2.419263e+03,1.158172e+03
2.422156e+03,1.144845e+03
2.425049e+03,1.146189e+03
2.427941e+03,1.129789e+03
2.430834e+03,1.137351e+03
2.433727e+03,1.127971e+03
2.436620e+03,1.125703e+03
2.439512e+03,1.122625e+03
2.442405e+03,1.128814e+03
2.445298e+03,1.104002e+03
2.448190e+03,1.123760e+03
2.451083e+03,1.116723e+03
2.453976e+03,1.107326e+03
2.456868e+03,1.116926e+03
2.459761e+03,1.107805e+03
2.462654e+03,1.094433e+03
2.465547e+03,1.096687e+03
2.468439e+03,1.087579e+03
2.471332e+03,1.093289e+03
2.474225e+03,1.086161e+03
2.477117e+03,1.081850e+03
2.480010e+03,1.084848e+03
2.482903e+03,1.076078e+03
2.485795e+03,1.073419e+03
2.488688e+03,1.060686e+03
2.491581e+03,1.057198e+03
2.494474e+03,1.063572e+03
2.497366e+03,1.055393e+03
2.500259e+03,1.064638e+03
2.503152e+03,1.046254e+03
2.506044e+03,1.064939e+03
2.508937e+03,1.063044e+03
2.511830e+03,1.040646e+03
2.514722e+03,1.035995e+03
2.517615e+03,1.039507e+03
2.520508e+03,1.042785e+03
2.523401e+03,1.031402e+03
2.526293e+03,1.030344e+03
2.529186e+03,1.023254e+03
2.532079e+03,1.021097e+03
2.534971e+03,1.003944e+03
2.537864e+03,1.020526e+03
2.540757e+03,1.008646e+03
2.543649e+03,1.013517e+03
2.546542e+03,1.002678e+03
2.549435e+03,1.023038e+03
2.552328e+03,1.024315e+03
2.555220e+03,1.018284e+03
2.558113e+03,1.001422e+03
2.561006e+03,1.003168e+03
2.563898e+03,9.961608e+02
2.566791e+03,1.012244e+03
2.569684e+03,9.884074e+02
2.572576e+03,1.014715e+03
2.575469e+03,9.929869e+02
2.578362e+03,9.747061e+02
2.581255e+03,9.767142e+02
2.584147e+03,9.733196e+02
2.587040e+03,9.740286e+02
2.589933e+03,9.832228e+02
2.592825e+03,9.596182e+02
2.595718e+03,9.587327e+02
2.598611e+03,9.667527e+02
2.601503e+03,9.421747e+02
2.604396e+03,9.387144e+02
2.607289e+03,9.524122e+02
2.610182e+03,9.501091e+02
2.613074e+03,9.402786e+02
2.615967e+03,9.318678e+02
2.618860e+03,9.453611e+02
2.621752e+03,9.426542e+02
2.624645e+03,9.368738e+02
2.627538e+03,9.322360e+02
2.630430e+03,9.463439e+02
2.633323e+03,9.380283e+02
2.636216e+03,9.217607e+02
2.639109e+03,9.271756e+02
2.642001e+03,9.245578e+02
2.644894e+03,9.121537e+02
2.647787e+03,9.156242e+02
2.650679e+03,9.144493e+02
2.653572e+03,9.192435e+02
2.656465e+03,9.271314e+02
2.659357e+03,9.091342e+02
2.662250e+03,9.114975e+02
2.665143e+03,9.091158e+02
2.668036e+03,9.083383e+02
2.670928e+03,9.133992e+02
2.673821e+03,8.974046e+02
2.676714e+03,8.976684e+02
2.679606e+03,9.052455e+02
2.682499e+03,8.911260e+02
2.685392e+03,8.965358e+02
2.688284e+03,8.946896e+02
2.691177e+03,8.845212e+02
2.694070e+03,8.901604e+02
2.696963e+03,8.855204e+02
2.699855e+03,8.954308e+02
2.702748e+03,8.848293e+02
2.705641e+03,8.777562e+02
2.708533e+03,8.835714e+02
2.711426e+03,8.636224e+02
2.714319e+03,8.755840e+02
2.717211e+03,8.817141e+02
2.720104e+03,8.768537e+02
2.722997e+03,8.766976e+02
2.725890e+03,8.743727e+02
2.728782e+03,8.478260e+02
2.731675e+03,8.644387e+02
2.734568e+03,8.651613e+02
2.737460e+03,8.527048e+02
2.740353e+03,8.458098e+02
2.743246e+03,8.559479e+02
2.746138e+03,8.505898e+02
2.749031e+03,8.470667e+02
2.751924e+03,8.384579e+02
2.754817e+03,8.479118e+02
2.757709e+03,8.352072e+02
2.760602e+03,8.506258e+02
2.763495e+03,8.360850e+02
2.766387e+03,8.478494e+02
2.769280e+03,8.315777e+02
2.772173e+03,8.290080e+02
2.775065e+03,8.248907e+02
2.777958e+03,8.173010e+02
2.780851e+03,8.226496e+02
2.783744e+03,8.104151e+02
2.786636e+03,8.216917e+02
2.789529e+03,8.292773e+02
2.792422e+03,8.280881e+02
2.795314e+03,8.441464e+02
2.798207e+03,8.275384e+02
2.801100e+03,8.326768e+02
2.803992e+03,8.189742e+02
2.806885e+03,7.984806e+02
2.809778e+03,8.321604e+02
2.812671e+03,8.031191e+02
2.815563e+03,8.222644e+02
2.818456e+03,8.152940e+02
2.821349e+03,7.847067e+02
2.824241e+03,8.001615e+02
2.827134e+03,8.196719e+02
2.830027e+03,7.976663e+02
2.832919e+03,8.107115e+02
2.835812e+03,8.044084e+02
2.838705e+03,8.217980e+02
2.841598e+03,7.829848e+02
2.844490e+03,7.897473e+02
2.847383e+03,7.980843e+02
2.850276e+03,8.149735e+02
2.853168e+03,7.898759e+02
2.856061e+03,8.107441e+02
2.858954e+03,7.840143e+02
2.861846e+03,8.089580e+02
2.864739e+03,7.828657e+02
2.867632e+03,7.925941e+02
2.870525e+03,8.098450e+02
2.873417e+03,8.040070e+02
2.876310e+03,8.043246e+02
2.879203e+03,7.855546e+02
2.882095e+03,8.103801e+02
2.884988e+03,8.097516e+02
2.887881e+03,8.003859e+02
2.890773e+03,8.170799e+02
2.893666e+03,7.903793e+02
2.896559e+03,8.034661e+02
2.899452e+03,7.976777e+02
2.902344e+03,7.981375e+02
2.905237e+03,7.805755e+02
2.908130e+03,7.918116e+02
2.911022e+03,7.886443e+02
2.913915e+03,7.840189e+02
2.916808e+03,7.885369e+02
2.919700e+03,7.761921e+02
2.922593e+03,7.905557e+02
2.925486e+03,7.567708e+02
2.928379e+03,7.810865e+02
2.931271e+03,7.685018e+02
2.934164e+03,7.619152e+02
2.937057e+03,7.688797e+02
2.939949e+03,7.773083e+02
2.942842e+03,7.592791e+02
2.945735e+03,7.676461e+02
2.948627e+03,7.668379e+02
2.951520e+03,7.644056e+02
2.954413e+03,7.902310e+02
2.957306e+03,7.903516e+02
2.960198e+03,7.448750e+02
2.963091e+03,7.614246e+02
2.965984e+03,7.480043e+02
2.968876e+03,7.459974e+02
2.971769e+03,7.394047e+02
2.974662e+03,7.288175e+02
2.977554e+03,7.444987e+02
2.980447e+03,7.311710e+02
2.983340e+03,7.374623e+02
2.986233e+03,7.210216e+02
2.989125e+03,7.184211e+02
2.992018e+03,7.267463e+02
2.994911e+03,7.300090e+02
2.997803e+03,7.279653e+02
3.000696e+03,7.388132e+02
3.003589e+03,7.284925e+02
3.006481e+03,7.192170e+02
3.009374e+03,7.087288e+02
3.012267e+03,7.297155e+02
3.015160e+03,7.405226e+02
3.018052e+03,7.287939e+02
3.020945e+03,7.202609e+02
3.023838e+03,7.275312e+02
3.026730e+03,7.006243e+02
3.029623e+03,7.166290e+02
3.032516e+03,7.315096e+02
3.035408e+03,7.160220e+02
3.038301e+03,7.137261e+02
3.041194e+03,7.044567e+02
3.044087e+03,7.219755e+02
3.046979e+03,7.013869e+02
3.049872e+03,7.270284e+02
3.052765e+03,7.051444e+02
3.055657e+03,7.146663e+02
3.058550e+03,7.195251e+02
3.061443e+03,7.114121e+02
3.064335e+03,6.991224e+02
3.067228e+03,7.398467e+02
3.070121e+03,7.308306e+02
3.073014e+03,7.322684e+02
3.075906e+03,7.052297e+02
3.078799e+03,7.257154e+02
3.081692e+03,7.013342e+02
3.084584e+03,7.072385e+02
3.087477e+03,7.138591e+02
3.090370e+03,7.030029e+02
3.093262e+03,6.847720e+02
3.096155e+03,7.212664e+02
3.099048e+03,7.339767e+02
3.101941e+03,7.076052e+02
3.104833e+03,6.940704e+02
3.107726e+03,6.939616e+02
3.110619e+03,6.869833e+02
3.113511e+03,7.175538e+02
3.116404e+03,7.293210e+02
3.119297e+03,7.223651e+02
3.122189e+03,7.108568e+02
3.125082e+03,7.072424e+02
3.127975e+03,7.090038e+02
3.130868e+03,7.154803e+02
3.133760e+03,7.115798e+02
3.136653e+03,7.256964e+02
3.139546e+03,7.396867e+02
3.142438e+03,7.376979e+02
3.145331e+03,7.036115e+02
3.148224e+03,7.145635e+02
3.151116e+03,7.185613e+02
3.154009e+03,7.229805e+02
3.156902e+03,7.233444e+02
3.159795e+03,7.121390e+02
3.162687e+03,7.507752e+02
3.165580e+03,7.046018e+02
3.168473e+03,7.363625e+02
3.171365e+03,7.732524e+02
3.174258e+03,7.226132e+02
3.177151e+03,7.057672e+02
3.180043e+03,1.327347e+03
3.182936e+03,7.347288e+02
3.185829e+03,7.323615e+02
3.188722e+03,7.537932e+02
3.191614e+03,7.640158e+02
3.194507e+03,6.812354e+02
3.197400e+03,7.719741e+02
3.200292e+03,7.615329e+02
3.203185e+03,0.000000e+00
3.206078e+03,0.000000e+00
3.208970e+03,0.000000e+00
3.211863e+03,0.000000e+00
3.214756e+03,0.000000e+00
3.217649e+03,0.000000e+00
3.220541e+03,0.000000e+00
3.223434e+03,0.000000e+00
3.226327e+03,0.000000e+00
3.229219e+03,0.000000e+00
3.232112e+03,0.000000e+00
3.235005e+03,0.000000e+00
3.237897e+03,0.000000e+00
3.240790e+03,0.000000e+00
3.243683e+03,0.000000e+00
3.246576e+03,0.000000e+00
3.249468e+03,0.000000e+00
3.252361e+03,0.000000e+00
3.255254e+03,0.000000e+00
3.258146e+03,0.000000e+00
3.261039e+03,0.000000e+00
3.263932e+03,0.000000e+00
3.266824e+03,0.000000e+00
3.269717e+03,0.000000e+00
3.272610e+03,0.000000e+00
3.275503e+03,0.000000e+00
3.278395e+03,0.000000e+00
3.281288e+03,0.000000e+00
3.284181e+03,0.000000e+00
3.287073e+03,0.000000e+00
3.289966e+03,0.000000e+00
3.292859e+03,0.000000e+00
3.295751e+03,0.000000e+00
3.298644e+03,0.000000e+00
3.301537e+03,0.000000e+00
3.304430e+03,0.000000e+00
3.307322e+03,0.000000e+00
3.310215e+03,0.000000e+00
3.313108e+03,0.000000e+00
3.316000e+03,0.000000e+00
3.318893e+03,0.000000e+00
3.321786e+03,0.000000e+00
3.324678e+03,0.000000e+00
3.327571e+03,0.000000e+00
3.330464e+03,0.000000e+00
3.333357e+03,0.000000e+00
3.336249e+03,0.000000e+00
3.339142e+03,0.000000e+00
3.342035e+03,0.000000e+00
3.344927e+03,0.000000e+00
3.347820e+03,0.000000e+00
3.350713e+03,0.000000e+00
3.353605e+03,0.000000e+00
3.356498e+03,0.000000e+00
3.359391e+03,0.000000e+00
3.362284e+03,0.000000e+00
3.365176e+03,0.000000e+00
3.368069e+03,0.000000e+00
3.370962e+03,0.000000e+00
3.373854e+03,0.000000e+00
3.376747e+03,0.000000e+00
3.379640e+03,0.000000e+00
3.382532e+03,0.000000e+00
3.385425e+03,0.000000e+00
3.388318e+03,0.000000e+00
3.391211e+03,0.000000e+00
3.394103e+03,0.000000e+00
3.396996e+03,0.000000e+00
3.399889e+03,0.000000e+00
3.402781e+03,0.000000e+00
3.405674e+03,0.000000e+00
3.408567e+03,0.000000e+00
3.411459e+03,0.000000e+00
3.414352e+03,0.000000e+00
3.417245e+03,0.000000e+00
3.420138e+03,0.000000e+00
3.423030e+03,0.000000e+00
3.425923e+03,0.000000e+00
3.428816e+03,0.000000e+00
3.431708e+03,0.000000e+00
3.434601e+03,0.000000e+00
3.437494e+03,0.000000e+00
3.440386e+03,0.000000e+00
3.443279e+03,0.000000e+00
3.446172e+03,0.000000e+00
3.449065e+03,0.000000e+00
3.451957e+03,0.000000e+00
3.454850e+03,0.000000e+00
3.457743e+03,0.000000e+00
3.460635e+03,0.000000e+00
3.463528e+03,0.000000e+00
3.466421e+03,0.000000e+00
3.469313e+03,0.000000e+00
3.472206e+03,0.000000e+00
3.475099e+03,0.000000e+00
3.477992e+03,0.000000e+00
3.480884e+03,0.000000e+00
3.483777e+03,0.000000e+00
3.486670e+03,0.000000e+00
3.489563e+03,0.000000e+00
3.492455e+03,0.000000e+00
3.495348e+03,0.000000e+00
3.498240e+03,0.000000e+00
3.500169e+03,0.000000e+00