File: RAMAN_data/13042023_r1/blue fibre14.CSV
9.931763e+01,0.000000e+00
1.022103e+02,0.000000e+00
1.051030e+02,0.000000e+00
1.079957e+02,0.000000e+00
1.108884e+02,0.000000e+00
1.137811e+02,0.000000e+00
1.166738e+02,0.000000e+00
1.195665e+02,0.000000e+00
1.224592e+02,0.000000e+00
1.253519e+02,0.000000e+00
1.282446e+02,0.000000e+00
1.311373e+02,0.000000e+00
1.340300e+02,0.000000e+00
1.369227e+02,0.000000e+00
1.398154e+02,0.000000e+00
1.427081e+02,0.000000e+00
1.456008e+02,0.000000e+00
1.484935e+02,0.000000e+00
1.513862e+02,0.000000e+00
1.542789e+02,0.000000e+00
1.571716e+02,0.000000e+00
1.600643e+02,0.000000e+00
1.629570e+02,0.000000e+00
1.658497e+02,0.000000e+00
1.687424e+02,0.000000e+00
1.716351e+02,0.000000e+00
1.745278e+02,0.000000e+00
1.774205e+02,0.000000e+00
1.803132e+02,0.000000e+00
1.832059e+02,0.000000e+00
1.860986e+02,0.000000e+00
1.889913e+02,0.000000e+00
1.918840e+02,0.000000e+00
1.947767e+02,0.000000e+00
1.976694e+02,0.000000e+00
2.005621e+02,6.362094e+03
2.034548e+02,6.341050e+03
2.063475e+02,6.356116e+03
2.092402e+02,6.333236e+03
2.121329e+02,6.314019e+03
2.150256e+02,6.315066e+03
2.179183e+02,6.314641e+03
2.208110e+02,6.307515e+03
2.237037e+02,6.301635e+03
2.265964e+02,6.274206e+03
2.294892e+02,6.251933e+03
2.323819e+02,6.254025e+03
2.352746e+02,6.268983e+03
2.381673e+02,6.252551e+03
2.410600e+02,6.219467e+03
2.439527e+02,6.193244e+03
2.468454e+02,6.210729e+03
2.497381e+02,6.209970e+03
2.526308e+02,6.208658e+03
2.555235e+02,6.184427e+03
2.584161e+02,6.170276e+03
2.613088e+02,6.152986e+03
2.642015e+02,6.131291e+03
2.670942e+02,6.122257e+03
2.699869e+02,6.107698e+03
2.728796e+02,6.076465e+03
2.757723e+02,6.076929e+03
2.786650e+02,6.083500e+03
2.815577e+02,6.076188e+03
2.844504e+02,6.032736e+03
2.873431e+02,6.065053e+03
2.902358e+02,6.026729e+03
2.931285e+02,6.008975e+03
2.960212e+02,5.985052e+03
2.989139e+02,6.015478e+03
3.018066e+02,5.994696e+03
3.046993e+02,5.954427e+03
3.075920e+02,5.950542e+03
3.104847e+02,5.938814e+03
3.133774e+02,5.941891e+03
3.162701e+02,5.924922e+03
3.191628e+02,5.910163e+03
3.220555e+02,5.882420e+03
3.249482e+02,5.879206e+03
3.278409e+02,5.868547e+03
3.307336e+02,5.859041e+03
3.336263e+02,5.861664e+03
3.365190e+02,5.834221e+03
3.394117e+02,5.789127e+03
3.423044e+02,5.836697e+03
3.451971e+02,5.799345e+03
3.480898e+02,5.784002e+03
3.509825e+02,5.766736e+03
3.538752e+02,5.757940e+03
3.567680e+02,5.745869e+03
3.596607e+02,5.737367e+03
3.625534e+02,5.724534e+03
3.654461e+02,5.715709e+03
3.683388e+02,5.722226e+03
3.712315e+02,5.711256e+03
3.741242e+02,5.675945e+03
3.770169e+02,5.687098e+03
3.799096e+02,5.674040e+03
3.828023e+02,5.653372e+03
3.856950e+02,5.621221e+03
3.885877e+02,5.593265e+03
3.914804e+02,5.604690e+03
3.943731e+02,5.612674e+03
3.972658e+02,5.565026e+03
4.001585e+02,5.539571e+03
4.030512e+02,5.546318e+03
4.059439e+02,5.539221e+03
4.088366e+02,5.518144e+03
4.117293e+02,5.505581e+03
4.146220e+02,5.504170e+03
4.175147e+02,5.487507e+03
4.204074e+02,5.465682e+03
4.233001e+02,5.484924e+03
4.261928e+02,5.455577e+03
4.290855e+02,5.438515e+03
4.319782e+02,5.419799e+03
4.348709e+02,5.419646e+03
4.377636e+02,5.415836e+03
4.406563e+02,5.402354e+03
4.435490e+02,5.383875e+03
4.464417e+02,5.380454e+03
4.493344e+02,5.371439e+03
4.522271e+02,5.369948e+03
4.551198e+02,5.357503e+03
4.580125e+02,5.319911e+03
4.609052e+02,5.305704e+03
4.637979e+02,5.301548e+03
4.666906e+02,5.296019e+03
4.695833e+02,5.297990e+03
4.724760e+02,5.275488e+03
4.753687e+02,5.254359e+03
4.782614e+02,5.236533e+03
4.811541e+02,5.261104e+03
4.840468e+02,5.248345e+03
4.869395e+02,5.242774e+03
4.898322e+02,5.232916e+03
4.927249e+02,5.211708e+03
4.956176e+02,5.210200e+03
4.985103e+02,5.174311e+03
5.014030e+02,5.153000e+03
5.042957e+02,5.122334e+03
5.071884e+02,5.118498e+03
5.100811e+02,5.131258e+03
5.129738e+02,5.111533e+03
5.158665e+02,5.112914e+03
5.187592e+02,5.105330e+03
5.216519e+02,5.088741e+03
5.245446e+02,5.072144e+03
5.274373e+02,5.063764e+03
5.303300e+02,5.061244e+03
5.332227e+02,5.032499e+03
5.361154e+02,5.022840e+03
5.390081e+02,4.992342e+03
5.419008e+02,5.000558e+03
5.447935e+02,4.980128e+03
5.476862e+02,4.989673e+03
5.505789e+02,4.973432e+03
5.534716e+02,4.936276e+03
5.563643e+02,4.951035e+03
5.592570e+02,4.932117e+03
5.621497e+02,4.947167e+03
5.650424e+02,4.908360e+03
5.679351e+02,4.912583e+03
5.708278e+02,4.885357e+03
5.737205e+02,4.860274e+03
5.766132e+02,4.877590e+03
5.795059e+02,4.843784e+03
5.823986e+02,4.824677e+03
5.852913e+02,4.820189e+03
5.881840e+02,4.822403e+03
5.910767e+02,4.812375e+03
5.939694e+02,4.797525e+03
5.968621e+02,4.789706e+03
5.997548e+02,4.777365e+03
6.026475e+02,4.763123e+03
6.055402e+02,4.764444e+03
6.084329e+02,4.761482e+03
6.113256e+02,4.731177e+03
6.142183e+02,4.733048e+03
6.171110e+02,4.706227e+03
6.200037e+02,4.704174e+03
6.228964e+02,4.702287e+03
6.257891e+02,4.702949e+03
6.286818e+02,4.660326e+03
6.315745e+02,4.660353e+03
6.344672e+02,4.657477e+03
6.373599e+02,4.653502e+03
6.402526e+02,4.626920e+03
6.431453e+02,4.616736e+03
6.460380e+02,4.592841e+03
6.489307e+02,4.604626e+03
6.518234e+02,4.590122e+03
6.547161e+02,4.589206e+03
6.576088e+02,4.552599e+03
6.605015e+02,4.563764e+03
6.633942e+02,4.551463e+03
6.662869e+02,4.542180e+03
6.691796e+02,4.542083e+03
6.720723e+02,4.539811e+03
6.749650e+02,4.495135e+03
6.778577e+02,4.498114e+03
6.807504e+02,4.493692e+03
6.836431e+02,4.492953e+03
6.865358e+02,4.475461e+03
6.894285e+02,4.461349e+03
6.923212e+02,4.468563e+03
6.952139e+02,4.442860e+03
6.981066e+02,4.436938e+03
7.009993e+02,4.443381e+03
7.038920e+02,4.397465e+03
7.067847e+02,4.408102e+03
7.096774e+02,4.411659e+03
7.125701e+02,4.406350e+03
7.154628e+02,4.383451e+03
7.183555e+02,4.384252e+03
7.212482e+02,4.369229e+03
7.241409e+02,4.369109e+03
7.270336e+02,4.346902e+03
7.299263e+02,4.345039e+03
7.328190e+02,4.326573e+03
7.357117e+02,4.318771e+03
7.386044e+02,4.299180e+03
7.414971e+02,4.325205e+03
7.443898e+02,4.309870e+03
7.472825e+02,4.282033e+03
7.501752e+02,4.288784e+03
7.530679e+02,4.274351e+03
7.559606e+02,4.259483e+03
7.588533e+02,4.253557e+03
7.617460e+02,4.246763e+03
7.646387e+02,4.238032e+03
7.675314e+02,4.238101e+03
7.704241e+02,4.212933e+03
7.733168e+02,4.179662e+03
7.762095e+02,4.188545e+03
7.791022e+02,4.170304e+03
7.819949e+02,4.171113e+03
7.848876e+02,4.173920e+03
7.877803e+02,4.165211e+03
7.906730e+02,4.152790e+03
7.935657e+02,4.150998e+03
7.964584e+02,4.121250e+03
7.993511e+02,4.118723e+03
8.022438e+02,4.102220e+03
8.051365e+02,4.104642e+03
8.080292e+02,4.104954e+03
8.109219e+02,4.117741e+03
8.138146e+02,4.086082e+03
8.167073e+02,4.086877e+03
8.196000e+02,4.073688e+03
8.224927e+02,4.082017e+03
8.253854e+02,4.059141e+03
8.282781e+02,4.040741e+03
8.311708e+02,4.024292e+03
8.340635e+02,4.016018e+03
8.369562e+02,4.035984e+03
8.398489e+02,4.033552e+03
8.427416e+02,4.020235e+03
8.456343e+02,4.010771e+03
8.485270e+02,3.974193e+03
8.514197e+02,3.964292e+03
8.543124e+02,3.970594e+03
8.572051e+02,3.953715e+03
8.600978e+02,3.958728e+03
8.629905e+02,3.946516e+03
8.658832e+02,3.939582e+03
8.687759e+02,3.930780e+03
8.716686e+02,3.911271e+03
8.745613e+02,3.934958e+03
8.774540e+02,3.905737e+03
8.803467e+02,3.904731e+03
8.832394e+02,3.891514e+03
8.861321e+02,3.928054e+03
8.890248e+02,3.880533e+03
8.919175e+02,3.865294e+03
8.948102e+02,3.861804e+03
8.977029e+02,3.851824e+03
9.005956e+02,3.828827e+03
9.034883e+02,3.838619e+03
9.063810e+02,3.823727e+03
9.092737e+02,3.815380e+03
9.121664e+02,3.812707e+03
9.150591e+02,3.815744e+03
9.179518e+02,3.791672e+03
9.208445e+02,3.775052e+03
9.237372e+02,3.761699e+03
9.266299e+02,3.762602e+03
9.295226e+02,3.771672e+03
9.324153e+02,3.764477e+03
9.353080e+02,3.738698e+03
9.382007e+02,3.732702e+03
9.410934e+02,3.731533e+03
9.439861e+02,3.719372e+03
9.468788e+02,3.706501e+03
9.497715e+02,3.724969e+03
9.526642e+02,3.712991e+03
9.555569e+02,3.690954e+03
9.584496e+02,3.694583e+03
9.613423e+02,3.688168e+03
9.642350e+02,3.677770e+03
9.671277e+02,3.669337e+03
9.700204e+02,3.662732e+03
9.729131e+02,3.633786e+03
9.758058e+02,3.634608e+03
9.786985e+02,3.640742e+03
9.815912e+02,3.620218e+03
9.844839e+02,3.597145e+03
9.873766e+02,3.606664e+03
9.902693e+02,3.599340e+03
9.931620e+02,3.604820e+03
9.960547e+02,3.612946e+03
9.989474e+02,3.581046e+03
1.001840e+03,3.584743e+03
1.004733e+03,3.580570e+03
1.007626e+03,3.589678e+03
1.010518e+03,3.570630e+03
1.013411e+03,3.559527e+03
1.016304e+03,3.539875e+03
1.019196e+03,3.519577e+03
1.022089e+03,3.533489e+03
1.024982e+03,3.530614e+03
1.027875e+03,3.511623e+03
1.030767e+03,3.520004e+03
1.033660e+03,3.503010e+03
1.036552e+03,3.476891e+03
1.039445e+03,3.488862e+03
1.042338e+03,3.499313e+03
1.045231e+03,3.485377e+03
1.048123e+03,3.458262e+03
1.051016e+03,3.456917e+03
1.053909e+03,3.469313e+03
1.056802e+03,3.458623e+03
1.059694e+03,3.425093e+03
1.062587e+03,3.434392e+03
1.065479e+03,3.400308e+03
1.068372e+03,3.407140e+03
1.071265e+03,3.401161e+03
1.074158e+03,3.422137e+03
1.077050e+03,3.395119e+03
1.079943e+03,3.395334e+03
1.082836e+03,3.388961e+03
1.085729e+03,3.399721e+03
1.088621e+03,3.386473e+03
1.091514e+03,3.396347e+03
1.094406e+03,3.364393e+03
1.097299e+03,3.366431e+03
1.100192e+03,3.357333e+03
1.103085e+03,3.344364e+03
1.105977e+03,3.340074e+03
1.108870e+03,3.329606e+03
1.111763e+03,3.330104e+03
1.114656e+03,3.330625e+03
1.117548e+03,3.332860e+03
1.120441e+03,3.305739e+03
1.123334e+03,3.309877e+03
1.126226e+03,3.295024e+03
1.129119e+03,3.277006e+03
1.132012e+03,3.282366e+03
1.134904e+03,3.264678e+03
1.137797e+03,3.267040e+03
1.140690e+03,3.251937e+03
1.143583e+03,3.258636e+03
1.146475e+03,3.234440e+03
1.149368e+03,3.237829e+03
1.152261e+03,3.243247e+03
1.155153e+03,3.223260e+03
1.158046e+03,3.199654e+03
1.160939e+03,3.206479e+03
1.163831e+03,3.206619e+03
1.166724e+03,3.183930e+03
1.169617e+03,3.163945e+03
1.172510e+03,3.161879e+03
1.175402e+03,3.158681e+03
1.178295e+03,3.155212e+03
1.181188e+03,3.161839e+03
1.184080e+03,3.130949e+03
1.186973e+03,3.139477e+03
1.189866e+03,3.128908e+03
1.192758e+03,3.123405e+03
1.195651e+03,3.130903e+03
1.198544e+03,3.115576e+03
1.201437e+03,3.107814e+03
1.204329e+03,3.090074e+03
1.207222e+03,3.088191e+03
1.210115e+03,3.087766e+03
1.213007e+03,3.085495e+03
1.215900e+03,3.067219e+03
1.218793e+03,3.053214e+03
1.221685e+03,3.060598e+03
1.224578e+03,3.055277e+03
1.227471e+03,3.054054e+03
1.230364e+03,3.038946e+03
1.233256e+03,3.031344e+03
1.236149e+03,3.025680e+03
1.239042e+03,3.014847e+03
1.241934e+03,3.019438e+03
1.244827e+03,3.020429e+03
1.247720e+03,3.022897e+03
1.250612e+03,3.013130e+03
1.253505e+03,3.003502e+03
1.256398e+03,2.990294e+03
1.259291e+03,2.986495e+03
1.262183e+03,2.976270e+03
1.265076e+03,2.967520e+03
1.267969e+03,2.994113e+03
1.270861e+03,2.976658e+03
1.273754e+03,2.964375e+03
1.276647e+03,2.961531e+03
1.279539e+03,2.951628e+03
1.282432e+03,2.953619e+03
1.285325e+03,2.941999e+03
1.288218e+03,2.943574e+03
1.291110e+03,2.945447e+03
1.294003e+03,2.928666e+03
1.296896e+03,2.915219e+03
1.299788e+03,2.920283e+03
1.302681e+03,2.911918e+03
1.305574e+03,2.899127e+03
1.308466e+03,2.905718e+03
1.311359e+03,2.886860e+03
1.314252e+03,2.875254e+03
1.317145e+03,2.879979e+03
1.320037e+03,2.872770e+03
1.322930e+03,2.869125e+03
1.325823e+03,2.858267e+03
1.328715e+03,2.865888e+03
1.331608e+03,2.850564e+03
1.334501e+03,2.852175e+03
1.337393e+03,2.845064e+03
1.340286e+03,2.837111e+03
1.343179e+03,2.831415e+03
1.346072e+03,2.824797e+03
1.348964e+03,2.822757e+03
1.351857e+03,2.809481e+03
1.354750e+03,2.814365e+03
1.357642e+03,2.797890e+03
1.360535e+03,2.794076e+03
1.363428e+03,2.780935e+03
1.366320e+03,2.779289e+03
1.369213e+03,2.775606e+03
1.372106e+03,2.758422e+03
1.374999e+03,2.757440e+03
1.377891e+03,2.765605e+03
1.380784e+03,2.769472e+03
1.383677e+03,2.752429e+03
1.386569e+03,2.732439e+03
1.389462e+03,2.726110e+03
1.392355e+03,2.728331e+03
1.395247e+03,2.705897e+03
1.398140e+03,2.720920e+03
1.401033e+03,2.696290e+03
1.403926e+03,2.689867e+03
1.406818e+03,2.700151e+03
1.409711e+03,2.694984e+03
1.412604e+03,2.685969e+03
1.415496e+03,2.678222e+03
1.418389e+03,2.677802e+03
1.421282e+03,2.661392e+03
1.424174e+03,2.658863e+03
1.427067e+03,2.656254e+03
1.429960e+03,2.658806e+03
1.432853e+03,2.648726e+03
1.435745e+03,2.612253e+03
1.438638e+03,2.616563e+03
1.441531e+03,2.609239e+03
1.444423e+03,2.616220e+03
1.447316e+03,2.593874e+03
1.450209e+03,2.594083e+03
1.453101e+03,2.590656e+03
1.455994e+03,2.587330e+03
1.458887e+03,2.585909e+03
1.461780e+03,2.565763e+03
1.464672e+03,2.560989e+03
1.467565e+03,2.560999e+03
1.470458e+03,2.555793e+03
1.473350e+03,2.558260e+03
1.476243e+03,2.561961e+03
1.479136e+03,2.545411e+03
1.482028e+03,2.536000e+03
1.484921e+03,2.538275e+03
1.487814e+03,2.524458e+03
1.490707e+03,2.516041e+03
1.493599e+03,2.511247e+03
1.496492e+03,2.513548e+03
1.499385e+03,2.501640e+03
1.502277e+03,2.490971e+03
1.505170e+03,2.497933e+03
1.508063e+03,2.484633e+03
1.510955e+03,2.467288e+03
1.513848e+03,2.456315e+03
1.516741e+03,2.458927e+03
1.519634e+03,2.470709e+03
1.522526e+03,2.464248e+03
1.525419e+03,2.454588e+03
1.528312e+03,2.439688e+03
1.531204e+03,2.436959e+03
1.534097e+03,2.433109e+03
1.536990e+03,2.422637e+03
1.539882e+03,2.433387e+03
1.542775e+03,2.410473e+03
1.545668e+03,2.408154e+03
1.548561e+03,2.410700e+03
1.551453e+03,2.405453e+03
1.554346e+03,2.397671e+03
1.557239e+03,2.403632e+03
1.560131e+03,2.381405e+03
1.563024e+03,2.384749e+03
1.565917e+03,2.383200e+03
1.568809e+03,2.390976e+03
1.571702e+03,2.369663e+03
1.574595e+03,2.369199e+03
1.577488e+03,2.367723e+03
1.580380e+03,2.367310e+03
1.583273e+03,2.356077e+03
1.586166e+03,2.348729e+03
1.589058e+03,2.335429e+03
1.591951e+03,2.331286e+03
1.594844e+03,2.336434e+03
1.597736e+03,2.333190e+03
1.600629e+03,2.328439e+03
1.603522e+03,2.317453e+03
1.606415e+03,2.310086e+03
1.609307e+03,2.301808e+03
1.612200e+03,2.292315e+03
1.615093e+03,2.295737e+03
1.617985e+03,2.287119e+03
1.620878e+03,2.284410e+03
1.623771e+03,2.270599e+03
1.626663e+03,2.279554e+03
1.629556e+03,2.267669e+03
1.632449e+03,2.267428e+03
1.635342e+03,2.251547e+03
1.638234e+03,2.239359e+03
1.641127e+03,2.257093e+03
1.644020e+03,2.238389e+03
1.646912e+03,2.230772e+03
1.649805e+03,2.217540e+03
1.652698e+03,2.204126e+03
1.655590e+03,2.226668e+03
1.658483e+03,2.215015e+03
1.661376e+03,2.197039e+03
1.664269e+03,2.201422e+03
1.667161e+03,2.188264e+03
1.670054e+03,2.174204e+03
1.672947e+03,2.188010e+03
1.675839e+03,2.177052e+03
1.678732e+03,2.170287e+03
1.681625e+03,2.168735e+03
1.684517e+03,2.145491e+03
1.687410e+03,2.149570e+03
1.690303e+03,2.141058e+03
1.693196e+03,2.132618e+03
1.696088e+03,2.134708e+03
1.698981e+03,2.132576e+03
1.701874e+03,2.121626e+03
1.704766e+03,2.118172e+03
1.707659e+03,2.117814e+03
1.710552e+03,2.105308e+03
1.713444e+03,2.099629e+03
1.716337e+03,2.090756e+03
1.719230e+03,2.086982e+03
1.722123e+03,2.093630e+03
1.725015e+03,2.078289e+03
1.727908e+03,2.082161e+03
1.730801e+03,2.093353e+03
1.733693e+03,2.069833e+03
1.736586e+03,2.061315e+03
1.739479e+03,2.068055e+03
1.742371e+03,2.051417e+03
1.745264e+03,2.036729e+03
1.748157e+03,2.035106e+03
1.751050e+03,2.032342e+03
1.753942e+03,2.031512e+03
1.756835e+03,2.026865e+03
1.759728e+03,2.014329e+03
1.762620e+03,2.001785e+03
1.765513e+03,2.023578e+03
1.768406e+03,2.003192e+03
1.771298e+03,2.010381e+03
1.774191e+03,1.995821e+03
1.777084e+03,1.993414e+03
1.779977e+03,1.982768e+03
1.782869e+03,1.963859e+03
1.785762e+03,1.966138e+03
1.788655e+03,1.965886e+03
1.791547e+03,1.957084e+03
1.794440e+03,1.957460e+03
1.797333e+03,1.969067e+03
1.800225e+03,1.939582e+03
1.803118e+03,1.931211e+03
1.806011e+03,1.939721e+03
1.808904e+03,1.938546e+03
1.811796e+03,1.916387e+03
1.814689e+03,1.902458e+03
1.817582e+03,1.939556e+03
1.820474e+03,1.913381e+03
1.823367e+03,1.911309e+03
1.826260e+03,1.894937e+03
1.829152e+03,1.899139e+03
1.832045e+03,1.887206e+03
1.834938e+03,1.876501e+03
1.837831e+03,1.863947e+03
1.840723e+03,1.875467e+03
1.843616e+03,1.876228e+03
1.846509e+03,1.857416e+03
1.849401e+03,1.866143e+03
1.852294e+03,1.863837e+03
1.855187e+03,1.861920e+03
1.858079e+03,1.838594e+03
1.860972e+03,1.826293e+03
1.863865e+03,1.824605e+03
1.866758e+03,1.829575e+03
1.869650e+03,1.817922e+03
1.872543e+03,1.827181e+03
1.875436e+03,1.805507e+03
1.878328e+03,1.813874e+03
1.881221e+03,1.790648e+03
1.884114e+03,1.790862e+03
1.887006e+03,1.792369e+03
1.889899e+03,1.786449e+03
1.892792e+03,1.791646e+03
1.895685e+03,1.779190e+03
1.898577e+03,1.766228e+03
1.901470e+03,1.776341e+03
1.904363e+03,1.772766e+03
1.907255e+03,1.766418e+03
1.910148e+03,1.767949e+03
1.913041e+03,1.747411e+03
1.915933e+03,1.734658e+03
1.918826e+03,1.733241e+03
1.921719e+03,1.723067e+03
1.924612e+03,1.737547e+03
1.927504e+03,1.725032e+03
1.930397e+03,1.726062e+03
1.933290e+03,1.716476e+03
1.936182e+03,1.712582e+03
1.939075e+03,1.712197e+03
1.941968e+03,1.691668e+03
1.944860e+03,1.691908e+03
1.947753e+03,1.690583e+03
1.950646e+03,1.665387e+03
1.953539e+03,1.687425e+03
1.956431e+03,1.685724e+03
1.959324e+03,1.657062e+03
1.962217e+03,1.673533e+03
1.965109e+03,1.668615e+03
1.968002e+03,1.664418e+03
1.970895e+03,1.664005e+03
1.973787e+03,1.641143e+03
1.976680e+03,1.638485e+03
1.979573e+03,1.624509e+03
1.982466e+03,1.627568e+03
1.985358e+03,1.638086e+03
1.988251e+03,1.621748e+03
1.991144e+03,1.612485e+03
1.994036e+03,1.613089e+03
1.996929e+03,1.605301e+03
1.999822e+03,1.603932e+03
2.002714e+03,1.585105e+03
2.005607e+03,1.590196e+03
2.008500e+03,1.594141e+03
2.011393e+03,1.597988e+03
2.014285e+03,1.592773e+03
2.017178e+03,1.569259e+03
2.020071e+03,1.587035e+03
2.022963e+03,1.544529e+03
2.025856e+03,1.551896e+03
2.028749e+03,1.574465e+03
2.031641e+03,1.563485e+03
2.034534e+03,1.559464e+03
2.037427e+03,1.539396e+03
2.040320e+03,1.537331e+03
2.043212e+03,1.544069e+03
2.046105e+03,1.522293e+03
2.048998e+03,1.525284e+03
2.051890e+03,1.510473e+03
2.054783e+03,1.509045e+03
2.057676e+03,1.506112e+03
2.060568e+03,1.535365e+03
2.063461e+03,1.510822e+03
2.066354e+03,1.507275e+03
2.069247e+03,1.475823e+03
2.072139e+03,1.473133e+03
2.075032e+03,1.506595e+03
2.077925e+03,1.479008e+03
2.080817e+03,1.477189e+03
2.083710e+03,1.463433e+03
2.086603e+03,1.449722e+03
2.089496e+03,1.472888e+03
2.092388e+03,1.447268e+03
2.095281e+03,1.459399e+03
2.098174e+03,1.454958e+03
2.101066e+03,1.449977e+03
2.103959e+03,1.406696e+03
2.106852e+03,1.429333e+03
2.109744e+03,1.418101e+03
2.112637e+03,1.418764e+03
2.115530e+03,1.410996e+03
2.118422e+03,1.413568e+03
2.121315e+03,1.432706e+03
2.124208e+03,1.420493e+03
2.127101e+03,1.404826e+03
2.129993e+03,1.388979e+03
2.132886e+03,1.400014e+03
2.135779e+03,1.390769e+03
2.138671e+03,1.383344e+03
2.141564e+03,1.381828e+03
2.144457e+03,1.364663e+03
2.147350e+03,1.372864e+03
2.150242e+03,1.360329e+03
2.153135e+03,1.374213e+03
2.156028e+03,1.357468e+03
2.158920e+03,1.356104e+03
2.161813e+03,1.350273e+03
2.164706e+03,1.340622e+03
2.167598e+03,1.335873e+03
2.170491e+03,1.342403e+03
2.173384e+03,1.330526e+03
2.176277e+03,1.335159e+03
2.179169e+03,1.312632e+03
2.182062e+03,1.310605e+03
2.184955e+03,1.305818e+03
2.187847e+03,1.313942e+03
2.190740e+03,1.297285e+03
2.193633e+03,1.301497e+03
2.196525e+03,1.306943e+03
2.199418e+03,1.292775e+03
2.202311e+03,1.282012e+03
2.205204e+03,1.292621e+03
2.208096e+03,1.282356e+03
2.210989e+03,1.265401e+03
2.213882e+03,1.265571e+03
2.216774e+03,1.275360e+03
2.219667e+03,1.270861e+03
2.222560e+03,1.254057e+03
2.225452e+03,1.251544e+03
2.228345e+03,1.250897e+03
2.231238e+03,1.252886e+03
2.234131e+03,1.258250e+03
2.237023e+03,1.237627e+03
2.239916e+03,1.223040e+03
2.242809e+03,1.227782e+03
2.245701e+03,1.229079e+03
2.248594e+03,1.221568e+03
2.251487e+03,1.228562e+03
2.254379e+03,1.223004e+03
2.257272e+03,1.203790e+03
2.260165e+03,1.196922e+03
2.263058e+03,1.221393e+03
2.265950e+03,1.204076e+03
2.268843e+03,1.190533e+03
2.271736e+03,1.186759e+03
2.274628e+03,1.186023e+03
2.277521e+03,1.183530e+03
2.280414e+03,1.183963e+03
2.283306e+03,1.162897e+03
2.286199e+03,1.176807e+03
2.289092e+03,1.174035e+03
2.291985e+03,1.159704e+03
2.294877e+03,1.171817e+03
2.297770e+03,1.167604e+03
2.300663e+03,1.162787e+03
2.303555e+03,1.153404e+03
2.306448e+03,1.148443e+03
2.309341e+03,1.148049e+03
2.312233e+03,1.129965e+03
2.315126e+03,1.139922e+03
2.318019e+03,1.128684e+03
2.320912e+03,1.128979e+03
2.323804e+03,1.125805e+03
2.326697e+03,1.129607e+03
2.329590e+03,1.121770e+03
2.332482e+03,1.106678e+03
2.335375e+03,1.118465e+03
2.338268e+03,1.111270e+03
2.341160e+03,1.104166e+03
2.344053e+03,1.101886e+03
2.346946e+03,1.096838e+03
2.349839e+03,1.098495e+03
2.352731e+03,1.076810e+03
2.355624e+03,1.090681e+03
2.358517e+03,1.079733e+03
2.361409e+03,1.084997e+03
2.364302e+03,1.057018e+03
2.367195e+03,1.082548e+03
2.370087e+03,1.056812e+03
2.372980e+03,1.081597e+03
2.375873e+03,1.057852e+03
2.378766e+03,1.051150e+03
2.381658e+03,1.056957e+03
2.384551e+03,1.053255e+03
2.387444e+03,1.046242e+03
2.390336e+03,1.039191e+03
2.393229e+03,1.047289e+03
2.396122e+03,1.051592e+03
2.399014e+03,1.016753e+03
2.401907e+03,1.029531e+03
2.404800e+03,1.027382e+03
2.407693e+03,1.030228e+03
2.410585e+03,1.029036e+03
2.413478e+03,1.025368e+03
2.416371e+03,1.022566e+03
2.419263e+03,1.014081e+03
2.422156e+03,1.018094e+03
2.425049e+03,1.022558e+03
2.427941e+03,9.988815e+02
2.430834e+03,1.003745e+03
2.433727e+03,1.000922e+03
2.436620e+03,1.000249e+03
2.439512e+03,1.003708e+03
2.442405e+03,9.917760e+02
2.445298e+03,9.798098e+02
2.448190e+03,9.917408e+02
2.451083e+03,9.880627e+02
2.453976e+03,9.824307e+02
2.456868e+03,9.639191e+02
2.459761e+03,9.703160e+02
2.462654e+03,9.712232e+02
2.465547e+03,9.655049e+02
2.468439e+03,9.717929e+02
2.471332e+03,9.606490e+02
2.474225e+03,9.503246e+02
2.477117e+03,9.584766e+02
2.480010e+03,9.575853e+02
2.482903e+03,9.585413e+02
2.485795e+03,9.411127e+02
2.488688e+03,9.410652e+02
2.491581e+03,9.433727e+02
2.494474e+03,9.473417e+02
2.497366e+03,9.386038e+02
2.500259e+03,9.197214e+02
2.503152e+03,9.396644e+02
2.506044e+03,9.291201e+02
2.508937e+03,9.371640e+02
2.511830e+03,9.208918e+02
2.514722e+03,9.317063e+02
2.517615e+03,9.223778e+02
2.520508e+03,9.218778e+02
2.523401e+03,9.038226e+02
2.526293e+03,9.177816e+02
2.529186e+03,8.994369e+02
2.532079e+03,9.086270e+02
2.534971e+03,9.048730e+02
2.537864e+03,8.935298e+02
2.540757e+03,8.997828e+02
2.543649e+03,9.078962e+02
2.546542e+03,9.037322e+02
2.549435e+03,9.059670e+02
2.552328e+03,9.127440e+02
2.555220e+03,8.958427e+02
2.558113e+03,8.923811e+02
2.561006e+03,8.990672e+02
2.563898e+03,8.853393e+02
2.566791e+03,8.977225e+02
2.569684e+03,8.778626e+02
2.572576e+03,8.762383e+02
2.575469e+03,8.996080e+02
2.578362e+03,8.693242e+02
2.581255e+03,8.616572e+02
2.584147e+03,8.778325e+02
2.587040e+03,8.680369e+02
2.589933e+03,8.625878e+02
2.592825e+03,8.640870e+02
2.595718e+03,8.605358e+02
2.598611e+03,8.581512e+02
2.601503e+03,8.508854e+02
2.604396e+03,8.463098e+02
2.607289e+03,8.371525e+02
2.610182e+03,8.551227e+02
2.613074e+03,8.356669e+02
2.615967e+03,8.540342e+02
2.618860e+03,8.452408e+02
2.621752e+03,8.494619e+02
2.624645e+03,8.397106e+02
2.627538e+03,8.329793e+02
2.630430e+03,8.140338e+02
2.633323e+03,8.297961e+02
2.636216e+03,8.301100e+02
2.639109e+03,8.256551e+02
2.642001e+03,8.205649e+02
2.644894e+03,8.234745e+02
2.647787e+03,8.292963e+02
2.650679e+03,8.152278e+02
2.653572e+03,8.055458e+02
2.656465e+03,8.068067e+02
2.659357e+03,8.127367e+02
2.662250e+03,8.026749e+02
2.665143e+03,8.145143e+02
2.668036e+03,8.243348e+02
2.670928e+03,8.023763e+02
2.673821e+03,8.070052e+02
2.676714e+03,8.080703e+02
2.679606e+03,7.976687e+02
2.682499e+03,7.866297e+02
2.685392e+03,8.104359e+02
2.688284e+03,7.917546e+02
2.691177e+03,7.979844e+02
2.694070e+03,8.015963e+02
2.696963e+03,7.931860e+02
2.699855e+03,7.978961e+02
2.702748e+03,7.881344e+02
2.705641e+03,7.728047e+02
2.708533e+03,7.738643e+02
2.711426e+03,7.849635e+02
2.714319e+03,7.912466e+02
2.717211e+03,7.635300e+02
2.720104e+03,7.678740e+02
2.722997e+03,7.708424e+02
2.725890e+03,7.743605e+02
2.728782e+03,7.711006e+02
2.731675e+03,7.599666e+02
2.734568e+03,7.782038e+02
2.737460e+03,7.605851e+02
2.740353e+03,7.493220e+02
2.743246e+03,7.650059e+02
2.746138e+03,7.625207e+02
2.749031e+03,7.650175e+02
2.751924e+03,7.570951e+02
2.754817e+03,7.419369e+02
2.757709e+03,7.610007e+02
2.760602e+03,7.588635e+02
2.763495e+03,7.472642e+02
2.766387e+03,7.454551e+02
2.769280e+03,7.462064e+02
2.772173e+03,7.412297e+02
2.775065e+03,7.526921e+02
2.777958e+03,7.260078e+02
2.780851e+03,7.391313e+02
2.783744e+03,7.221537e+02
2.786636e+03,7.450619e+02
2.789529e+03,7.319307e+02
2.792422e+03,7.473017e+02
2.795314e+03,7.503497e+02
2.798207e+03,7.333078e+02
2.801100e+03,7.452269e+02
2.803992e+03,7.416619e+02
2.806885e+03,7.322751e+02
2.809778e+03,7.349618e+02
2.812671e+03,7.194368e+02
2.815563e+03,7.211442e+02
2.818456e+03,7.276735e+02
2.821349e+03,7.316432e+02
2.824241e+03,7.189607e+02
2.827134e+03,7.439717e+02
2.830027e+03,7.307531e+02
2.832919e+03,7.318995e+02
2.835812e+03,7.333956e+02
2.838705e+03,7.089199e+02
2.841598e+03,7.313125e+02
2.844490e+03,7.212234e+02
2.847383e+03,7.079785e+02
2.850276e+03,7.179856e+02
2.853168e+03,7.117109e+02
2.856061e+03,7.245482e+02
2.858954e+03,7.222596e+02
2.861846e+03,7.158207e+02
2.864739e+03,7.159327e+02
2.867632e+03,7.167742e+02
2.870525e+03,7.404520e+02
2.873417e+03,7.167662e+02
2.876310e+03,7.094964e+02
2.879203e+03,7.219631e+02
2.882095e+03,7.169329e+02
2.884988e+03,7.160788e+02
2.887881e+03,7.156535e+02
2.890773e+03,7.148900e+02
2.893666e+03,7.147081e+02
2.896559e+03,7.236104e+02
2.899452e+03,7.082525e+02
2.902344e+03,7.315614e+02
2.905237e+03,7.180206e+02
2.908130e+03,7.253167e+02
2.911022e+03,6.963102e+02
2.913915e+03,7.061816e+02
2.916808e+03,7.026797e+02
2.919700e+03,6.814225e+02
2.922593e+03,7.072454e+02
2.925486e+03,6.742241e+02
2.928379e+03,7.055608e+02
2.931271e+03,6.936848e+02
2.934164e+03,7.120655e+02
2.937057e+03,7.024255e+02
2.939949e+03,6.848330e+02
2.942842e+03,6.969784e+02
2.945735e+03,6.779880e+02
2.948627e+03,6.670388e+02
2.951520e+03,6.996992e+02
2.954413e+03,6.991459e+02
2.957306e+03,7.174502e+02
2.960198e+03,7.058409e+02
2.963091e+03,6.636149e+02
2.965984e+03,6.637712e+02
2.968876e+03,6.668528e+02
2.971769e+03,6.695690e+02
2.974662e+03,6.828153e+02
2.977554e+03,6.806616e+02
2.980447e+03,6.671061e+02
2.983340e+03,6.604668e+02
2.986233e+03,6.680208e+02
2.989125e+03,6.654570e+02
2.992018e+03,6.303827e+02
2.994911e+03,6.471999e+02
2.997803e+03,6.433286e+02
3.000696e+03,6.511563e+02
3.003589e+03,6.271239e+02
3.006481e+03,6.564099e+02
3.009374e+03,6.716547e+02
3.012267e+03,6.501853e+02
3.015160e+03,6.632931e+02
3.018052e+03,6.555507e+02
3.020945e+03,6.454740e+02
3.023838e+03,6.664752e+02
3.026730e+03,6.453382e+02
3.029623e+03,6.556948e+02
3.032516e+03,6.291655e+02
3.035408e+03,6.481484e+02
3.038301e+03,6.444213e+02
3.041194e+03,6.483925e+02
3.044087e+03,6.335399e+02
3.046979e+03,6.542140e+02
3.049872e+03,6.371768e+02
3.052765e+03,6.447021e+02
3.055657e+03,6.594186e+02
3.058550e+03,6.600677e+02
3.061443e+03,6.147658e+02
3.064335e+03,6.269435e+02
3.067228e+03,6.441898e+02
3.070121e+03,6.142793e+02
3.073014e+03,6.521339e+02
3.075906e+03,6.169489e+02
3.078799e+03,6.331728e+02
3.081692e+03,6.466327e+02
3.084584e+03,6.274757e+02
3.087477e+03,6.306473e+02
3.090370e+03,6.689356e+02
3.093262e+03,6.520003e+02
3.096155e+03,6.247542e+02
3.099048e+03,6.570061e+02
3.101941e+03,6.508188e+02
3.104833e+03,6.076070e+02
3.107726e+03,6.637994e+02
3.110619e+03,6.454114e+02
3.113511e+03,6.516896e+02
3.116404e+03,6.379525e+02
3.119297e+03,6.600416e+02
3.122189e+03,6.329076e+02
3.125082e+03,6.449391e+02
3.127975e+03,6.315419e+02
3.130868e+03,6.406034e+02
3.133760e+03,6.504893e+02
3.136653e+03,6.722585e+02
3.139546e+03,6.131662e+02
3.142438e+03,6.368959e+02
3.145331e+03,6.280431e+02
3.148224e+03,6.327349e+02
3.151116e+03,6.160952e+02
3.154009e+03,6.361755e+02
3.156902e+03,6.410029e+02
3.159795e+03,6.178259e+02
3.162687e+03,6.537357e+02
3.165580e+03,6.625777e+02
3.168473e+03,6.676999e+02
3.171365e+03,6.323465e+02
3.174258e+03,6.612341e+02
3.177151e+03,6.507097e+02
3.180043e+03,6.406772e+02
3.182936e+03,6.791778e+02
3.185829e+03,6.499002e+02
3.188722e+03,6.326055e+02
3.191614e+03,6.316977e+02
3.194507e+03,6.647881e+02
3.197400e+03,6.422585e+02
3.200292e+03,6.720471e+02
3.203185e+03,0.000000e+00
3.206078e+03,0.000000e+00
3.208970e+03,0.000000e+00
3.211863e+03,0.000000e+00
3.214756e+03,0.000000e+00
3.217649e+03,0.000000e+00
3.220541e+03,0.000000e+00
3.223434e+03,0.000000e+00
3.226327e+03,0.000000e+00
3.229219e+03,0.000000e+00
3.232112e+03,0.000000e+00
3.235005e+03,0.000000e+00
3.237897e+03,0.000000e+00
3.240790e+03,0.000000e+00
3.243683e+03,0.000000e+00
3.246576e+03,0.000000e+00
3.249468e+03,0.000000e+00
3.252361e+03,0.000000e+00
3.255254e+03,0.000000e+00
3.258146e+03,0.000000e+00
3.261039e+03,0.000000e+00
3.263932e+03,0.000000e+00
3.266824e+03,0.000000e+00
3.269717e+03,0.000000e+00
3.272610e+03,0.000000e+00
3.275503e+03,0.000000e+00
3.278395e+03,0.000000e+00
3.281288e+03,0.000000e+00
3.284181e+03,0.000000e+00
3.287073e+03,0.000000e+00
3.289966e+03,0.000000e+00
3.292859e+03,0.000000e+00
3.295751e+03,0.000000e+00
3.298644e+03,0.000000e+00
3.301537e+03,0.000000e+00
3.304430e+03,0.000000e+00
3.307322e+03,0.000000e+00
3.310215e+03,0.000000e+00
3.313108e+03,0.000000e+00
3.316000e+03,0.000000e+00
3.318893e+03,0.000000e+00
3.321786e+03,0.000000e+00
3.324678e+03,0.000000e+00
3.327571e+03,0.000000e+00
3.330464e+03,0.000000e+00
3.333357e+03,0.000000e+00
3.336249e+03,0.000000e+00
3.339142e+03,0.000000e+00
3.342035e+03,0.000000e+00
3.344927e+03,0.000000e+00
3.347820e+03,0.000000e+00
3.350713e+03,0.000000e+00
3.353605e+03,0.000000e+00
3.356498e+03,0.000000e+00
3.359391e+03,0.000000e+00
3.362284e+03,0.000000e+00
3.365176e+03,0.000000e+00
3.368069e+03,0.000000e+00
3.370962e+03,0.000000e+00
3.373854e+03,0.000000e+00
3.376747e+03,0.000000e+00
3.379640e+03,0.000000e+00
3.382532e+03,0.000000e+00
3.385425e+03,0.000000e+00
3.388318e+03,0.000000e+00
3.391211e+03,0.000000e+00
3.394103e+03,0.000000e+00
3.396996e+03,0.000000e+00
3.399889e+03,0.000000e+00
3.402781e+03,0.000000e+00
3.405674e+03,0.000000e+00
3.408567e+03,0.000000e+00
3.411459e+03,0.000000e+00
3.414352e+03,0.000000e+00
3.417245e+03,0.000000e+00
3.420138e+03,0.000000e+00
3.423030e+03,0.000000e+00
3.425923e+03,0.000000e+00
3.428816e+03,0.000000e+00
3.431708e+03,0.000000e+00
3.434601e+03,0.000000e+00
3.437494e+03,0.000000e+00
3.440386e+03,0.000000e+00
3.443279e+03,0.000000e+00
3.446172e+03,0.000000e+00
3.449065e+03,0.000000e+00
3.451957e+03,0.000000e+00
3.454850e+03,0.000000e+00
3.457743e+03,0.000000e+00
3.460635e+03,0.000000e+00
3.463528e+03,0.000000e+00
3.466421e+03,0.000000e+00
3.469313e+03,0.000000e+00
3.472206e+03,0.000000e+00
3.475099e+03,0.000000e+00
3.477992e+03,0.000000e+00
3.480884e+03,0.000000e+00
3.483777e+03,0.000000e+00
3.486670e+03,0.000000e+00
3.489563e+03,0.000000e+00
3.492455e+03,0.000000e+00
3.495348e+03,0.000000e+00
3.498240e+03,0.000000e+00
3.500169e+03,0.000000e+00