File: RAMAN_data/13042023_r1/blue fibre4.CSV
9.931763e+01,0.000000e+00
1.022103e+02,0.000000e+00
1.051030e+02,0.000000e+00
1.079957e+02,0.000000e+00
1.108884e+02,0.000000e+00
1.137811e+02,0.000000e+00
1.166738e+02,0.000000e+00
1.195665e+02,0.000000e+00
1.224592e+02,0.000000e+00
1.253519e+02,0.000000e+00
1.282446e+02,0.000000e+00
1.311373e+02,0.000000e+00
1.340300e+02,0.000000e+00
1.369227e+02,0.000000e+00
1.398154e+02,0.000000e+00
1.427081e+02,0.000000e+00
1.456008e+02,0.000000e+00
1.484935e+02,0.000000e+00
1.513862e+02,0.000000e+00
1.542789e+02,0.000000e+00
1.571716e+02,0.000000e+00
1.600643e+02,0.000000e+00
1.629570e+02,0.000000e+00
1.658497e+02,0.000000e+00
1.687424e+02,0.000000e+00
1.716351e+02,0.000000e+00
1.745278e+02,0.000000e+00
1.774205e+02,0.000000e+00
1.803132e+02,0.000000e+00
1.832059e+02,0.000000e+00
1.860986e+02,0.000000e+00
1.889913e+02,0.000000e+00
1.918840e+02,0.000000e+00
1.947767e+02,0.000000e+00
1.976694e+02,0.000000e+00
2.005621e+02,2.812817e+03
2.034548e+02,2.796995e+03
2.063475e+02,2.812750e+03
2.092402e+02,2.799586e+03
2.121329e+02,2.784815e+03
2.150256e+02,2.774870e+03
2.179183e+02,2.788747e+03
2.208110e+02,2.774821e+03
2.237037e+02,2.763817e+03
2.265964e+02,2.764228e+03
2.294892e+02,2.746325e+03
2.323819e+02,2.746765e+03
2.352746e+02,2.745338e+03
2.381673e+02,2.745336e+03
2.410600e+02,2.720949e+03
2.439527e+02,2.713985e+03
2.468454e+02,2.721695e+03
2.497381e+02,2.710301e+03
2.526308e+02,2.712764e+03
2.555235e+02,2.707542e+03
2.584161e+02,2.700382e+03
2.613088e+02,2.686810e+03
2.642015e+02,2.692484e+03
2.670942e+02,2.676179e+03
2.699869e+02,2.679487e+03
2.728796e+02,2.672128e+03
2.757723e+02,2.669414e+03
2.786650e+02,2.665795e+03
2.815577e+02,2.655454e+03
2.844504e+02,2.650522e+03
2.873431e+02,2.649845e+03
2.902358e+02,2.638944e+03
2.931285e+02,2.621905e+03
2.960212e+02,2.619549e+03
2.989139e+02,2.618272e+03
3.018066e+02,2.607245e+03
3.046993e+02,2.600247e+03
3.075920e+02,2.586079e+03
3.104847e+02,2.585994e+03
3.133774e+02,2.586731e+03
3.162701e+02,2.594984e+03
3.191628e+02,2.568558e+03
3.220555e+02,2.564659e+03
3.249482e+02,2.557647e+03
3.278409e+02,2.562129e+03
3.307336e+02,2.561439e+03
3.336263e+02,2.549493e+03
3.365190e+02,2.528237e+03
3.394117e+02,2.535219e+03
3.423044e+02,2.539139e+03
3.451971e+02,2.534693e+03
3.480898e+02,2.518375e+03
3.509825e+02,2.518449e+03
3.538752e+02,2.508671e+03
3.567680e+02,2.491771e+03
3.596607e+02,2.494920e+03
3.625534e+02,2.485846e+03
3.654461e+02,2.480860e+03
3.683388e+02,2.476845e+03
3.712315e+02,2.478692e+03
3.741242e+02,2.485379e+03
3.770169e+02,2.477502e+03
3.799096e+02,2.475363e+03
3.828023e+02,2.441871e+03
3.856950e+02,2.427962e+03
3.885877e+02,2.428807e+03
3.914804e+02,2.410388e+03
3.943731e+02,2.414884e+03
3.972658e+02,2.399366e+03
4.001585e+02,2.389334e+03
4.030512e+02,2.402300e+03
4.059439e+02,2.390497e+03
4.088366e+02,2.378555e+03
4.117293e+02,2.380305e+03
4.146220e+02,2.377911e+03
4.175147e+02,2.365139e+03
4.204074e+02,2.367409e+03
4.233001e+02,2.363744e+03
4.261928e+02,2.351635e+03
4.290855e+02,2.356401e+03
4.319782e+02,2.359347e+03
4.348709e+02,2.346218e+03
4.377636e+02,2.328735e+03
4.406563e+02,2.315361e+03
4.435490e+02,2.310722e+03
4.464417e+02,2.315961e+03
4.493344e+02,2.316618e+03
4.522271e+02,2.306765e+03
4.551198e+02,2.304271e+03
4.580125e+02,2.301444e+03
4.609052e+02,2.280536e+03
4.637979e+02,2.281162e+03
4.666906e+02,2.275234e+03
4.695833e+02,2.261601e+03
4.724760e+02,2.251160e+03
4.753687e+02,2.243597e+03
4.782614e+02,2.254615e+03
4.811541e+02,2.257145e+03
4.840468e+02,2.245593e+03
4.869395e+02,2.246163e+03
4.898322e+02,2.247313e+03
4.927249e+02,2.227603e+03
4.956176e+02,2.236637e+03
4.985103e+02,2.218652e+03
5.014030e+02,2.217013e+03
5.042957e+02,2.198607e+03
5.071884e+02,2.201165e+03
5.100811e+02,2.201609e+03
5.129738e+02,2.195077e+03
5.158665e+02,2.190456e+03
5.187592e+02,2.190066e+03
5.216519e+02,2.169079e+03
5.245446e+02,2.164112e+03
5.274373e+02,2.163373e+03
5.303300e+02,2.158203e+03
5.332227e+02,2.149065e+03
5.361154e+02,2.150523e+03
5.390081e+02,2.129610e+03
5.419008e+02,2.148110e+03
5.447935e+02,2.118794e+03
5.476862e+02,2.118245e+03
5.505789e+02,2.130150e+03
5.534716e+02,2.112983e+03
5.563643e+02,2.111910e+03
5.592570e+02,2.100345e+03
5.621497e+02,2.114500e+03
5.650424e+02,2.101102e+03
5.679351e+02,2.078180e+03
5.708278e+02,2.086569e+03
5.737205e+02,2.101994e+03
5.766132e+02,2.090834e+03
5.795059e+02,2.076780e+03
5.823986e+02,2.089761e+03
5.852913e+02,2.071633e+03
5.881840e+02,2.060874e+03
5.910767e+02,2.063137e+03
5.939694e+02,2.062795e+03
5.968621e+02,2.054822e+03
5.997548e+02,2.062910e+03
6.026475e+02,2.042355e+03
6.055402e+02,2.037982e+03
6.084329e+02,2.046097e+03
6.113256e+02,2.040084e+03
6.142183e+02,2.030878e+03
6.171110e+02,2.019957e+03
6.200037e+02,2.013693e+03
6.228964e+02,2.026913e+03
6.257891e+02,2.014468e+03
6.286818e+02,2.007304e+03
6.315745e+02,2.001902e+03
6.344672e+02,2.004173e+03
6.373599e+02,1.993987e+03
6.402526e+02,1.987541e+03
6.431453e+02,1.977539e+03
6.460380e+02,1.973728e+03
6.489307e+02,1.976985e+03
6.518234e+02,1.971442e+03
6.547161e+02,1.972126e+03
6.576088e+02,1.961262e+03
6.605015e+02,1.961180e+03
6.633942e+02,1.961616e+03
6.662869e+02,1.940138e+03
6.691796e+02,1.941010e+03
6.720723e+02,1.943558e+03
6.749650e+02,1.944829e+03
6.778577e+02,1.949792e+03
6.807504e+02,1.921594e+03
6.836431e+02,1.929119e+03
6.865358e+02,1.916576e+03
6.894285e+02,1.912662e+03
6.923212e+02,1.923485e+03
6.952139e+02,1.904800e+03
6.981066e+02,1.914504e+03
7.009993e+02,1.908418e+03
7.038920e+02,1.900493e+03
7.067847e+02,1.882923e+03
7.096774e+02,1.879771e+03
7.125701e+02,1.897985e+03
7.154628e+02,1.891179e+03
7.183555e+02,1.893864e+03
7.212482e+02,1.879194e+03
7.241409e+02,1.877119e+03
7.270336e+02,1.863680e+03
7.299263e+02,1.875502e+03
7.328190e+02,1.864472e+03
7.357117e+02,1.852809e+03
7.386044e+02,1.849175e+03
7.414971e+02,1.867667e+03
7.443898e+02,1.853364e+03
7.472825e+02,1.865437e+03
7.501752e+02,1.856714e+03
7.530679e+02,1.843976e+03
7.559606e+02,1.828039e+03
7.588533e+02,1.835144e+03
7.617460e+02,1.834461e+03
7.646387e+02,1.818495e+03
7.675314e+02,1.830000e+03
7.704241e+02,1.828191e+03
7.733168e+02,1.804271e+03
7.762095e+02,1.814758e+03
7.791022e+02,1.818292e+03
7.819949e+02,1.806083e+03
7.848876e+02,1.802098e+03
7.877803e+02,1.799515e+03
7.906730e+02,1.805133e+03
7.935657e+02,1.802349e+03
7.964584e+02,1.797210e+03
7.993511e+02,1.779887e+03
8.022438e+02,1.779203e+03
8.051365e+02,1.775439e+03
8.080292e+02,1.771367e+03
8.109219e+02,1.768385e+03
8.138146e+02,1.761839e+03
8.167073e+02,1.765159e+03
8.196000e+02,1.765660e+03
8.224927e+02,1.759537e+03
8.253854e+02,1.752859e+03
8.282781e+02,1.748297e+03
8.311708e+02,1.740602e+03
8.340635e+02,1.741756e+03
8.369562e+02,1.754061e+03
8.398489e+02,1.736274e+03
8.427416e+02,1.743636e+03
8.456343e+02,1.738096e+03
8.485270e+02,1.719963e+03
8.514197e+02,1.727389e+03
8.543124e+02,1.719526e+03
8.572051e+02,1.731923e+03
8.600978e+02,1.718927e+03
8.629905e+02,1.717151e+03
8.658832e+02,1.696765e+03
8.687759e+02,1.705048e+03
8.716686e+02,1.703836e+03
8.745613e+02,1.707991e+03
8.774540e+02,1.708732e+03
8.803467e+02,1.708567e+03
8.832394e+02,1.709884e+03
8.861321e+02,1.716335e+03
8.890248e+02,1.694214e+03
8.919175e+02,1.689487e+03
8.948102e+02,1.691124e+03
8.977029e+02,1.690591e+03
9.005956e+02,1.680629e+03
9.034883e+02,1.681849e+03
9.063810e+02,1.675824e+03
9.092737e+02,1.668932e+03
9.121664e+02,1.658916e+03
9.150591e+02,1.653199e+03
9.179518e+02,1.656900e+03
9.208445e+02,1.649898e+03
9.237372e+02,1.645791e+03
9.266299e+02,1.640308e+03
9.295226e+02,1.654813e+03
9.324153e+02,1.640884e+03
9.353080e+02,1.648560e+03
9.382007e+02,1.636968e+03
9.410934e+02,1.625616e+03
9.439861e+02,1.632166e+03
9.468788e+02,1.617192e+03
9.497715e+02,1.620898e+03
9.526642e+02,1.610776e+03
9.555569e+02,1.617760e+03
9.584496e+02,1.615167e+03
9.613423e+02,1.616657e+03
9.642350e+02,1.609701e+03
9.671277e+02,1.609255e+03
9.700204e+02,1.609864e+03
9.729131e+02,1.596745e+03
9.758058e+02,1.592230e+03
9.786985e+02,1.605875e+03
9.815912e+02,1.606229e+03
9.844839e+02,1.588501e+03
9.873766e+02,1.592522e+03
9.902693e+02,1.587090e+03
9.931620e+02,1.585444e+03
9.960547e+02,1.577233e+03
9.989474e+02,1.572530e+03
1.001840e+03,1.580853e+03
1.004733e+03,1.568529e+03
1.007626e+03,1.563771e+03
1.010518e+03,1.564351e+03
1.013411e+03,1.560688e+03
1.016304e+03,1.555939e+03
1.019196e+03,1.568062e+03
1.022089e+03,1.552385e+03
1.024982e+03,1.552300e+03
1.027875e+03,1.541173e+03
1.030767e+03,1.545987e+03
1.033660e+03,1.543602e+03
1.036552e+03,1.551075e+03
1.039445e+03,1.546037e+03
1.042338e+03,1.544233e+03
1.045231e+03,1.547525e+03
1.048123e+03,1.527603e+03
1.051016e+03,1.539309e+03
1.053909e+03,1.542141e+03
1.056802e+03,1.528547e+03
1.059694e+03,1.520396e+03
1.062587e+03,1.517383e+03
1.065479e+03,1.524215e+03
1.068372e+03,1.510285e+03
1.071265e+03,1.522459e+03
1.074158e+03,1.521607e+03
1.077050e+03,1.513817e+03
1.079943e+03,1.515165e+03
1.082836e+03,1.514214e+03
1.085729e+03,1.540442e+03
1.088621e+03,1.534381e+03
1.091514e+03,1.525717e+03
1.094406e+03,1.538096e+03
1.097299e+03,1.520814e+03
1.100192e+03,1.524279e+03
1.103085e+03,1.500259e+03
1.105977e+03,1.500940e+03
1.108870e+03,1.501979e+03
1.111763e+03,1.487745e+03
1.114656e+03,1.508350e+03
1.117548e+03,1.500154e+03
1.120441e+03,1.491972e+03
1.123334e+03,1.493029e+03
1.126226e+03,1.492496e+03
1.129119e+03,1.482160e+03
1.132012e+03,1.486140e+03
1.134904e+03,1.473447e+03
1.137797e+03,1.464446e+03
1.140690e+03,1.465166e+03
1.143583e+03,1.464743e+03
1.146475e+03,1.468585e+03
1.149368e+03,1.469072e+03
1.152261e+03,1.466860e+03
1.155153e+03,1.445490e+03
1.158046e+03,1.437238e+03
1.160939e+03,1.444024e+03
1.163831e+03,1.430129e+03
1.166724e+03,1.429161e+03
1.169617e+03,1.423808e+03
1.172510e+03,1.416258e+03
1.175402e+03,1.418128e+03
1.178295e+03,1.421580e+03
1.181188e+03,1.430082e+03
1.184080e+03,1.416182e+03
1.186973e+03,1.412863e+03
1.189866e+03,1.404320e+03
1.192758e+03,1.413970e+03
1.195651e+03,1.416010e+03
1.198544e+03,1.407068e+03
1.201437e+03,1.391591e+03
1.204329e+03,1.391836e+03
1.207222e+03,1.393632e+03
1.210115e+03,1.394910e+03
1.213007e+03,1.391114e+03
1.215900e+03,1.384265e+03
1.218793e+03,1.379448e+03
1.221685e+03,1.388320e+03
1.224578e+03,1.381457e+03
1.227471e+03,1.379324e+03
1.230364e+03,1.367240e+03
1.233256e+03,1.365234e+03
1.236149e+03,1.376319e+03
1.239042e+03,1.361329e+03
1.241934e+03,1.356386e+03
1.244827e+03,1.366912e+03
1.247720e+03,1.360604e+03
1.250612e+03,1.345273e+03
1.253505e+03,1.355605e+03
1.256398e+03,1.364804e+03
1.259291e+03,1.348879e+03
1.262183e+03,1.355814e+03
1.265076e+03,1.353525e+03
1.267969e+03,1.346949e+03
1.270861e+03,1.356667e+03
1.273754e+03,1.352807e+03
1.276647e+03,1.358713e+03
1.279539e+03,1.366235e+03
1.282432e+03,1.380693e+03
1.285325e+03,1.371246e+03
1.288218e+03,1.361132e+03
1.291110e+03,1.342976e+03
1.294003e+03,1.347148e+03
1.296896e+03,1.333945e+03
1.299788e+03,1.320527e+03
1.302681e+03,1.326165e+03
1.305574e+03,1.318157e+03
1.308466e+03,1.312033e+03
1.311359e+03,1.310764e+03
1.314252e+03,1.317641e+03
1.317145e+03,1.312771e+03
1.320037e+03,1.324772e+03
1.322930e+03,1.317020e+03
1.325823e+03,1.311332e+03
1.328715e+03,1.306832e+03
1.331608e+03,1.314156e+03
1.334501e+03,1.318526e+03
1.337393e+03,1.310769e+03
1.340286e+03,1.311305e+03
1.343179e+03,1.302661e+03
1.346072e+03,1.300701e+03
1.348964e+03,1.295323e+03
1.351857e+03,1.292316e+03
1.354750e+03,1.295218e+03
1.357642e+03,1.297400e+03
1.360535e+03,1.289695e+03
1.363428e+03,1.289367e+03
1.366320e+03,1.289618e+03
1.369213e+03,1.291256e+03
1.372106e+03,1.280123e+03
1.374999e+03,1.276505e+03
1.377891e+03,1.267469e+03
1.380784e+03,1.275418e+03
1.383677e+03,1.271307e+03
1.386569e+03,1.264511e+03
1.389462e+03,1.256957e+03
1.392355e+03,1.252242e+03
1.395247e+03,1.242134e+03
1.398140e+03,1.245474e+03
1.401033e+03,1.249780e+03
1.403926e+03,1.236394e+03
1.406818e+03,1.241171e+03
1.409711e+03,1.244483e+03
1.412604e+03,1.240203e+03
1.415496e+03,1.240668e+03
1.418389e+03,1.234023e+03
1.421282e+03,1.226858e+03
1.424174e+03,1.222025e+03
1.427067e+03,1.216857e+03
1.429960e+03,1.214228e+03
1.432853e+03,1.208929e+03
1.435745e+03,1.200186e+03
1.438638e+03,1.201739e+03
1.441531e+03,1.200572e+03
1.444423e+03,1.198102e+03
1.447316e+03,1.211762e+03
1.450209e+03,1.200779e+03
1.453101e+03,1.198073e+03
1.455994e+03,1.195833e+03
1.458887e+03,1.190058e+03
1.461780e+03,1.185466e+03
1.464672e+03,1.198835e+03
1.467565e+03,1.182591e+03
1.470458e+03,1.180188e+03
1.473350e+03,1.173522e+03
1.476243e+03,1.175895e+03
1.479136e+03,1.171479e+03
1.482028e+03,1.168736e+03
1.484921e+03,1.154844e+03
1.487814e+03,1.159652e+03
1.490707e+03,1.168609e+03
1.493599e+03,1.161521e+03
1.496492e+03,1.160488e+03
1.499385e+03,1.152638e+03
1.502277e+03,1.155977e+03
1.505170e+03,1.148368e+03
1.508063e+03,1.149836e+03
1.510955e+03,1.147115e+03
1.513848e+03,1.144844e+03
1.516741e+03,1.131716e+03
1.519634e+03,1.150801e+03
1.522526e+03,1.135518e+03
1.525419e+03,1.139961e+03
1.528312e+03,1.123641e+03
1.531204e+03,1.125714e+03
1.534097e+03,1.119531e+03
1.536990e+03,1.130938e+03
1.539882e+03,1.125492e+03
1.542775e+03,1.135368e+03
1.545668e+03,1.106663e+03
1.548561e+03,1.115503e+03
1.551453e+03,1.126708e+03
1.554346e+03,1.118273e+03
1.557239e+03,1.115204e+03
1.560131e+03,1.107190e+03
1.563024e+03,1.107994e+03
1.565917e+03,1.108031e+03
1.568809e+03,1.113113e+03
1.571702e+03,1.112055e+03
1.574595e+03,1.104034e+03
1.577488e+03,1.117702e+03
1.580380e+03,1.115947e+03
1.583273e+03,1.115417e+03
1.586166e+03,1.106703e+03
1.589058e+03,1.095418e+03
1.591951e+03,1.094529e+03
1.594844e+03,1.091287e+03
1.597736e+03,1.085843e+03
1.600629e+03,1.086101e+03
1.603522e+03,1.088347e+03
1.606415e+03,1.080029e+03
1.609307e+03,1.068284e+03
1.612200e+03,1.080451e+03
1.615093e+03,1.076214e+03
1.617985e+03,1.067462e+03
1.620878e+03,1.071164e+03
1.623771e+03,1.053224e+03
1.626663e+03,1.066666e+03
1.629556e+03,1.062940e+03
1.632449e+03,1.059729e+03
1.635342e+03,1.060849e+03
1.638234e+03,1.047689e+03
1.641127e+03,1.045707e+03
1.644020e+03,1.046279e+03
1.646912e+03,1.049358e+03
1.649805e+03,1.038291e+03
1.652698e+03,1.045303e+03
1.655590e+03,1.042248e+03
1.658483e+03,1.033109e+03
1.661376e+03,1.038755e+03
1.664269e+03,1.031524e+03
1.667161e+03,1.028266e+03
1.670054e+03,1.021305e+03
1.672947e+03,1.022133e+03
1.675839e+03,1.013483e+03
1.678732e+03,1.018987e+03
1.681625e+03,1.008927e+03
1.684517e+03,1.009370e+03
1.687410e+03,1.007210e+03
1.690303e+03,1.003186e+03
1.693196e+03,1.007892e+03
1.696088e+03,1.009590e+03
1.698981e+03,1.004720e+03
1.701874e+03,1.006047e+03
1.704766e+03,1.018210e+03
1.707659e+03,9.916542e+02
1.710552e+03,9.791148e+02
1.713444e+03,9.913245e+02
1.716337e+03,9.819842e+02
1.719230e+03,9.830560e+02
1.722123e+03,9.868610e+02
1.725015e+03,9.881861e+02
1.727908e+03,9.777779e+02
1.730801e+03,9.917131e+02
1.733693e+03,9.747059e+02
1.736586e+03,9.811455e+02
1.739479e+03,9.778541e+02
1.742371e+03,9.675247e+02
1.745264e+03,9.743072e+02
1.748157e+03,9.704697e+02
1.751050e+03,9.589543e+02
1.753942e+03,9.774583e+02
1.756835e+03,9.579695e+02
1.759728e+03,9.572636e+02
1.762620e+03,9.622703e+02
1.765513e+03,9.657445e+02
1.768406e+03,9.536813e+02
1.771298e+03,9.365095e+02
1.774191e+03,9.506603e+02
1.777084e+03,9.477784e+02
1.779977e+03,9.436488e+02
1.782869e+03,9.450623e+02
1.785762e+03,9.378724e+02
1.788655e+03,9.351037e+02
1.791547e+03,9.327000e+02
1.794440e+03,9.298223e+02
1.797333e+03,9.361053e+02
1.800225e+03,9.263713e+02
1.803118e+03,9.349391e+02
1.806011e+03,9.183566e+02
1.808904e+03,9.174765e+02
1.811796e+03,9.219947e+02
1.814689e+03,9.134374e+02
1.817582e+03,9.262410e+02
1.820474e+03,9.090929e+02
1.823367e+03,9.031570e+02
1.826260e+03,8.971752e+02
1.829152e+03,9.138996e+02
1.832045e+03,8.996839e+02
1.834938e+03,9.026419e+02
1.837831e+03,9.069344e+02
1.840723e+03,8.915058e+02
1.843616e+03,8.981252e+02
1.846509e+03,8.951005e+02
1.849401e+03,8.975432e+02
1.852294e+03,8.936451e+02
1.855187e+03,8.884980e+02
1.858079e+03,8.813976e+02
1.860972e+03,8.744404e+02
1.863865e+03,8.906082e+02
1.866758e+03,8.823974e+02
1.869650e+03,8.731271e+02
1.872543e+03,8.811584e+02
1.875436e+03,8.670208e+02
1.878328e+03,8.635640e+02
1.881221e+03,8.573578e+02
1.884114e+03,8.676005e+02
1.887006e+03,8.674808e+02
1.889899e+03,8.645882e+02
1.892792e+03,8.524699e+02
1.895685e+03,8.707193e+02
1.898577e+03,8.499791e+02
1.901470e+03,8.449804e+02
1.904363e+03,8.516067e+02
1.907255e+03,8.477768e+02
1.910148e+03,8.568461e+02
1.913041e+03,8.518127e+02
1.915933e+03,8.367245e+02
1.918826e+03,8.377908e+02
1.921719e+03,8.289892e+02
1.924612e+03,8.390457e+02
1.927504e+03,8.375579e+02
1.930397e+03,8.285079e+02
1.933290e+03,8.256535e+02
1.936182e+03,8.287982e+02
1.939075e+03,8.185303e+02
1.941968e+03,8.178736e+02
1.944860e+03,8.120082e+02
1.947753e+03,8.184532e+02
1.950646e+03,8.299152e+02
1.953539e+03,8.245467e+02
1.956431e+03,8.140400e+02
1.959324e+03,8.045585e+02
1.962217e+03,8.102631e+02
1.965109e+03,8.049718e+02
1.968002e+03,8.103663e+02
1.970895e+03,7.899846e+02
1.973787e+03,8.048395e+02
1.976680e+03,7.996401e+02
1.979573e+03,7.979274e+02
1.982466e+03,7.892151e+02
1.985358e+03,7.940081e+02
1.988251e+03,7.853864e+02
1.991144e+03,7.943030e+02
1.994036e+03,7.880066e+02
1.996929e+03,7.808861e+02
1.999822e+03,7.818784e+02
2.002714e+03,7.818701e+02
2.005607e+03,7.768776e+02
2.008500e+03,7.884678e+02
2.011393e+03,7.808928e+02
2.014285e+03,7.799474e+02
2.017178e+03,7.746010e+02
2.020071e+03,7.742759e+02
2.022963e+03,7.725262e+02
2.025856e+03,7.620741e+02
2.028749e+03,7.669482e+02
2.031641e+03,7.551385e+02
2.034534e+03,7.596992e+02
2.037427e+03,7.629232e+02
2.040320e+03,7.552471e+02
2.043212e+03,7.460201e+02
2.046105e+03,7.475889e+02
2.048998e+03,7.468328e+02
2.051890e+03,7.550430e+02
2.054783e+03,7.589300e+02
2.057676e+03,7.444408e+02
2.060568e+03,7.470295e+02
2.063461e+03,7.374709e+02
2.066354e+03,7.378636e+02
2.069247e+03,7.317628e+02
2.072139e+03,7.223782e+02
2.075032e+03,7.288750e+02
2.077925e+03,7.328087e+02
2.080817e+03,7.307338e+02
2.083710e+03,7.219977e+02
2.086603e+03,7.006816e+02
2.089496e+03,7.330968e+02
2.092388e+03,7.065599e+02
2.095281e+03,7.104120e+02
2.098174e+03,7.114130e+02
2.101066e+03,7.109879e+02
2.103959e+03,7.086722e+02
2.106852e+03,7.078171e+02
2.109744e+03,7.075012e+02
2.112637e+03,7.070178e+02
2.115530e+03,6.944120e+02
2.118422e+03,7.012621e+02
2.121315e+03,7.045498e+02
2.124208e+03,7.097029e+02
2.127101e+03,6.990035e+02
2.129993e+03,6.867092e+02
2.132886e+03,6.906209e+02
2.135779e+03,6.926963e+02
2.138671e+03,6.854445e+02
2.141564e+03,6.879337e+02
2.144457e+03,6.771344e+02
2.147350e+03,6.792805e+02
2.150242e+03,6.889487e+02
2.153135e+03,6.891248e+02
2.156028e+03,6.742820e+02
2.158920e+03,6.730953e+02
2.161813e+03,6.723007e+02
2.164706e+03,6.747249e+02
2.167598e+03,6.729051e+02
2.170491e+03,6.730934e+02
2.173384e+03,6.616404e+02
2.176277e+03,6.647199e+02
2.179169e+03,6.558731e+02
2.182062e+03,6.583634e+02
2.184955e+03,6.504696e+02
2.187847e+03,6.580400e+02
2.190740e+03,6.577194e+02
2.193633e+03,6.615837e+02
2.196525e+03,6.471572e+02
2.199418e+03,6.490578e+02
2.202311e+03,6.518355e+02
2.205204e+03,6.521161e+02
2.208096e+03,6.517967e+02
2.210989e+03,6.321868e+02
2.213882e+03,6.492338e+02
2.216774e+03,6.551111e+02
2.219667e+03,6.354631e+02
2.222560e+03,6.354302e+02
2.225452e+03,6.282590e+02
2.228345e+03,6.356046e+02
2.231238e+03,6.379086e+02
2.234131e+03,6.372350e+02
2.237023e+03,6.326408e+02
2.239916e+03,6.221281e+02
2.242809e+03,6.117300e+02
2.245701e+03,6.261413e+02
2.248594e+03,6.191358e+02
2.251487e+03,6.222538e+02
2.254379e+03,6.194042e+02
2.257272e+03,6.029527e+02
2.260165e+03,6.064612e+02
2.263058e+03,6.219489e+02
2.265950e+03,6.099501e+02
2.268843e+03,6.048515e+02
2.271736e+03,6.069305e+02
2.274628e+03,5.935624e+02
2.277521e+03,6.041578e+02
2.280414e+03,5.932713e+02
2.283306e+03,5.887512e+02
2.286199e+03,5.956487e+02
2.289092e+03,5.937962e+02
2.291985e+03,5.998604e+02
2.294877e+03,5.952350e+02
2.297770e+03,5.880911e+02
2.300663e+03,5.903748e+02
2.303555e+03,5.833671e+02
2.306448e+03,5.772916e+02
2.309341e+03,5.853290e+02
2.312233e+03,5.736751e+02
2.315126e+03,5.869908e+02
2.318019e+03,5.788828e+02
2.320912e+03,5.832987e+02
2.323804e+03,5.658027e+02
2.326697e+03,5.773870e+02
2.329590e+03,5.686198e+02
2.332482e+03,5.700911e+02
2.335375e+03,5.633550e+02
2.338268e+03,5.605656e+02
2.341160e+03,5.686718e+02
2.344053e+03,5.681701e+02
2.346946e+03,5.731488e+02
2.349839e+03,5.636003e+02
2.352731e+03,5.627935e+02
2.355624e+03,5.580828e+02
2.358517e+03,5.636010e+02
2.361409e+03,5.617067e+02
2.364302e+03,5.486411e+02
2.367195e+03,5.512338e+02
2.370087e+03,5.475566e+02
2.372980e+03,5.486247e+02
2.375873e+03,5.533420e+02
2.378766e+03,5.448702e+02
2.381658e+03,5.498958e+02
2.384551e+03,5.380460e+02
2.387444e+03,5.514984e+02
2.390336e+03,5.405857e+02
2.393229e+03,5.446934e+02
2.396122e+03,5.461202e+02
2.399014e+03,5.449438e+02
2.401907e+03,5.351287e+02
2.404800e+03,5.334330e+02
2.407693e+03,5.321263e+02
2.410585e+03,5.331016e+02
2.413478e+03,5.372322e+02
2.416371e+03,5.238100e+02
2.419263e+03,5.218312e+02
2.422156e+03,5.214765e+02
2.425049e+03,5.331800e+02
2.427941e+03,5.280953e+02
2.430834e+03,5.324770e+02
2.433727e+03,5.335453e+02
2.436620e+03,5.276701e+02
2.439512e+03,5.265413e+02
2.442405e+03,5.179797e+02
2.445298e+03,5.109949e+02
2.448190e+03,5.193883e+02
2.451083e+03,5.125891e+02
2.453976e+03,5.045692e+02
2.456868e+03,5.110378e+02
2.459761e+03,5.001648e+02
2.462654e+03,5.079701e+02
2.465547e+03,5.098852e+02
2.468439e+03,5.086016e+02
2.471332e+03,5.090187e+02
2.474225e+03,4.953979e+02
2.477117e+03,5.017796e+02
2.480010e+03,5.073904e+02
2.482903e+03,4.982252e+02
2.485795e+03,4.982936e+02
2.488688e+03,5.109333e+02
2.491581e+03,4.882752e+02
2.494474e+03,5.078413e+02
2.497366e+03,5.078255e+02
2.500259e+03,4.956482e+02
2.503152e+03,4.964927e+02
2.506044e+03,4.945532e+02
2.508937e+03,4.881412e+02
2.511830e+03,4.903583e+02
2.514722e+03,4.939541e+02
2.517615e+03,4.985443e+02
2.520508e+03,4.811476e+02
2.523401e+03,4.827243e+02
2.526293e+03,4.782376e+02
2.529186e+03,4.791199e+02
2.532079e+03,4.867494e+02
2.534971e+03,4.790733e+02
2.537864e+03,4.834732e+02
2.540757e+03,4.847343e+02
2.543649e+03,4.781867e+02
2.546542e+03,4.860826e+02
2.549435e+03,4.777228e+02
2.552328e+03,4.923003e+02
2.555220e+03,4.971629e+02
2.558113e+03,4.761608e+02
2.561006e+03,4.820804e+02
2.563898e+03,4.858724e+02
2.566791e+03,4.949645e+02
2.569684e+03,4.726972e+02
2.572576e+03,4.755567e+02
2.575469e+03,4.860499e+02
2.578362e+03,4.623453e+02
2.581255e+03,4.784235e+02
2.584147e+03,4.705999e+02
2.587040e+03,4.648599e+02
2.589933e+03,4.701234e+02
2.592825e+03,4.735782e+02
2.595718e+03,4.534182e+02
2.598611e+03,4.591546e+02
2.601503e+03,4.525877e+02
2.604396e+03,4.638134e+02
2.607289e+03,4.564336e+02
2.610182e+03,4.625916e+02
2.613074e+03,4.531896e+02
2.615967e+03,4.430316e+02
2.618860e+03,4.514715e+02
2.621752e+03,4.611043e+02
2.624645e+03,4.598720e+02
2.627538e+03,4.515974e+02
2.630430e+03,4.474912e+02
2.633323e+03,4.412684e+02
2.636216e+03,4.579803e+02
2.639109e+03,4.599991e+02
2.642001e+03,4.561884e+02
2.644894e+03,4.588784e+02
2.647787e+03,4.440147e+02
2.650679e+03,4.556136e+02
2.653572e+03,4.401191e+02
2.656465e+03,4.505089e+02
2.659357e+03,4.432876e+02
2.662250e+03,4.384061e+02
2.665143e+03,4.393604e+02
2.668036e+03,4.396748e+02
2.670928e+03,4.432149e+02
2.673821e+03,4.361925e+02
2.676714e+03,4.292018e+02
2.679606e+03,4.333318e+02
2.682499e+03,4.337965e+02
2.685392e+03,4.528135e+02
2.688284e+03,4.371263e+02
2.691177e+03,4.512429e+02
2.694070e+03,4.447452e+02
2.696963e+03,4.381967e+02
2.699855e+03,4.372646e+02
2.702748e+03,4.165416e+02
2.705641e+03,4.368641e+02
2.708533e+03,4.361938e+02
2.711426e+03,4.340733e+02
2.714319e+03,4.250868e+02
2.717211e+03,4.277497e+02
2.720104e+03,4.350331e+02
2.722997e+03,4.215096e+02
2.725890e+03,4.350258e+02
2.728782e+03,4.291061e+02
2.731675e+03,4.178188e+02
2.734568e+03,4.326047e+02
2.737460e+03,4.252702e+02
2.740353e+03,4.241666e+02
2.743246e+03,4.281848e+02
2.746138e+03,4.292026e+02
2.749031e+03,4.297684e+02
2.751924e+03,4.261841e+02
2.754817e+03,4.145882e+02
2.757709e+03,4.198163e+02
2.760602e+03,4.231777e+02
2.763495e+03,4.102843e+02
2.766387e+03,4.140404e+02
2.769280e+03,4.178415e+02
2.772173e+03,4.109849e+02
2.775065e+03,4.186455e+02
2.777958e+03,4.165685e+02
2.780851e+03,4.037018e+02
2.783744e+03,4.119029e+02
2.786636e+03,3.975637e+02
2.789529e+03,4.182433e+02
2.792422e+03,4.203402e+02
2.795314e+03,4.086901e+02
2.798207e+03,4.144970e+02
2.801100e+03,4.124008e+02
2.803992e+03,4.138444e+02
2.806885e+03,4.116819e+02
2.809778e+03,4.055768e+02
2.812671e+03,3.997199e+02
2.815563e+03,4.085532e+02
2.818456e+03,4.096911e+02
2.821349e+03,4.146384e+02
2.824241e+03,3.996079e+02
2.827134e+03,4.181121e+02
2.830027e+03,4.187222e+02
2.832919e+03,4.131443e+02
2.835812e+03,4.096848e+02
2.838705e+03,4.156689e+02
2.841598e+03,3.980772e+02
2.844490e+03,4.045763e+02
2.847383e+03,4.015288e+02
2.850276e+03,4.310349e+02
2.853168e+03,4.136284e+02
2.856061e+03,3.988492e+02
2.858954e+03,4.234436e+02
2.861846e+03,4.250872e+02
2.864739e+03,4.134350e+02
2.867632e+03,4.155532e+02
2.870525e+03,4.235667e+02
2.873417e+03,4.240356e+02
2.876310e+03,4.191910e+02
2.879203e+03,4.197821e+02
2.882095e+03,4.350439e+02
2.884988e+03,4.410236e+02
2.887881e+03,4.382203e+02
2.890773e+03,4.345929e+02
2.893666e+03,4.269870e+02
2.896559e+03,4.408539e+02
2.899452e+03,4.211276e+02
2.902344e+03,4.469831e+02
2.905237e+03,4.469770e+02
2.908130e+03,4.061953e+02
2.911022e+03,4.232266e+02
2.913915e+03,4.340752e+02
2.916808e+03,4.370609e+02
2.919700e+03,4.146055e+02
2.922593e+03,4.025103e+02
2.925486e+03,4.259605e+02
2.928379e+03,4.147213e+02
2.931271e+03,4.028631e+02
2.934164e+03,3.942160e+02
2.937057e+03,4.167010e+02
2.939949e+03,4.033555e+02
2.942842e+03,3.905171e+02
2.945735e+03,4.029708e+02
2.948627e+03,4.093661e+02
2.951520e+03,3.951093e+02
2.954413e+03,3.924102e+02
2.957306e+03,4.395000e+02
2.960198e+03,3.987066e+02
2.963091e+03,4.014419e+02
2.965984e+03,3.850918e+02
2.968876e+03,3.862435e+02
2.971769e+03,3.823139e+02
2.974662e+03,3.539612e+02
2.977554e+03,3.915512e+02
2.980447e+03,3.784308e+02
2.983340e+03,3.864668e+02
2.986233e+03,3.735359e+02
2.989125e+03,3.808430e+02
2.992018e+03,3.845197e+02
2.994911e+03,3.663886e+02
2.997803e+03,3.807274e+02
3.000696e+03,3.709023e+02
3.003589e+03,3.489456e+02
3.006481e+03,3.615973e+02
3.009374e+03,3.622744e+02
3.012267e+03,3.601896e+02
3.015160e+03,3.775739e+02
3.018052e+03,3.748564e+02
3.020945e+03,3.717669e+02
3.023838e+03,3.734325e+02
3.026730e+03,3.618481e+02
3.029623e+03,3.650122e+02
3.032516e+03,3.731327e+02
3.035408e+03,3.636344e+02
3.038301e+03,3.486505e+02
3.041194e+03,3.736220e+02
3.044087e+03,3.658219e+02
3.046979e+03,3.444440e+02
3.049872e+03,3.824934e+02
3.052765e+03,3.610991e+02
3.055657e+03,3.650661e+02
3.058550e+03,3.794739e+02
3.061443e+03,3.735074e+02
3.064335e+03,3.576414e+02
3.067228e+03,3.712161e+02
3.070121e+03,3.610923e+02
3.073014e+03,3.819589e+02
3.075906e+03,3.452129e+02
3.078799e+03,3.836598e+02
3.081692e+03,3.464464e+02
3.084584e+03,3.322860e+02
3.087477e+03,3.565225e+02
3.090370e+03,3.613769e+02
3.093262e+03,3.597806e+02
3.096155e+03,3.691399e+02
3.099048e+03,3.696891e+02
3.101941e+03,3.461955e+02
3.104833e+03,3.577208e+02
3.107726e+03,3.683075e+02
3.110619e+03,3.326132e+02
3.113511e+03,3.642765e+02
3.116404e+03,3.778471e+02
3.119297e+03,3.686383e+02
3.122189e+03,3.514379e+02
3.125082e+03,3.687237e+02
3.127975e+03,3.619648e+02
3.130868e+03,3.959356e+02
3.133760e+03,3.877651e+02
3.136653e+03,3.731432e+02
3.139546e+03,3.743929e+02
3.142438e+03,3.776395e+02
3.145331e+03,3.667594e+02
3.148224e+03,3.587993e+02
3.151116e+03,3.718778e+02
3.154009e+03,3.479611e+02
3.156902e+03,3.909246e+02
3.159795e+03,3.555621e+02
3.162687e+03,3.933703e+02
3.165580e+03,3.755711e+02
3.168473e+03,3.592740e+02
3.171365e+03,3.304486e+02
3.174258e+03,4.029152e+02
3.177151e+03,3.747391e+02
3.180043e+03,3.603051e+02
3.182936e+03,3.677808e+02
3.185829e+03,3.709066e+02
3.188722e+03,3.533024e+02
3.191614e+03,4.044403e+02
3.194507e+03,3.544100e+02
3.197400e+03,3.847016e+02
3.200292e+03,3.960041e+02
3.203185e+03,0.000000e+00
3.206078e+03,0.000000e+00
3.208970e+03,0.000000e+00
3.211863e+03,0.000000e+00
3.214756e+03,0.000000e+00
3.217649e+03,0.000000e+00
3.220541e+03,0.000000e+00
3.223434e+03,0.000000e+00
3.226327e+03,0.000000e+00
3.229219e+03,0.000000e+00
3.232112e+03,0.000000e+00
3.235005e+03,0.000000e+00
3.237897e+03,0.000000e+00
3.240790e+03,0.000000e+00
3.243683e+03,0.000000e+00
3.246576e+03,0.000000e+00
3.249468e+03,0.000000e+00
3.252361e+03,0.000000e+00
3.255254e+03,0.000000e+00
3.258146e+03,0.000000e+00
3.261039e+03,0.000000e+00
3.263932e+03,0.000000e+00
3.266824e+03,0.000000e+00
3.269717e+03,0.000000e+00
3.272610e+03,0.000000e+00
3.275503e+03,0.000000e+00
3.278395e+03,0.000000e+00
3.281288e+03,0.000000e+00
3.284181e+03,0.000000e+00
3.287073e+03,0.000000e+00
3.289966e+03,0.000000e+00
3.292859e+03,0.000000e+00
3.295751e+03,0.000000e+00
3.298644e+03,0.000000e+00
3.301537e+03,0.000000e+00
3.304430e+03,0.000000e+00
3.307322e+03,0.000000e+00
3.310215e+03,0.000000e+00
3.313108e+03,0.000000e+00
3.316000e+03,0.000000e+00
3.318893e+03,0.000000e+00
3.321786e+03,0.000000e+00
3.324678e+03,0.000000e+00
3.327571e+03,0.000000e+00
3.330464e+03,0.000000e+00
3.333357e+03,0.000000e+00
3.336249e+03,0.000000e+00
3.339142e+03,0.000000e+00
3.342035e+03,0.000000e+00
3.344927e+03,0.000000e+00
3.347820e+03,0.000000e+00
3.350713e+03,0.000000e+00
3.353605e+03,0.000000e+00
3.356498e+03,0.000000e+00
3.359391e+03,0.000000e+00
3.362284e+03,0.000000e+00
3.365176e+03,0.000000e+00
3.368069e+03,0.000000e+00
3.370962e+03,0.000000e+00
3.373854e+03,0.000000e+00
3.376747e+03,0.000000e+00
3.379640e+03,0.000000e+00
3.382532e+03,0.000000e+00
3.385425e+03,0.000000e+00
3.388318e+03,0.000000e+00
3.391211e+03,0.000000e+00
3.394103e+03,0.000000e+00
3.396996e+03,0.000000e+00
3.399889e+03,0.000000e+00
3.402781e+03,0.000000e+00
3.405674e+03,0.000000e+00
3.408567e+03,0.000000e+00
3.411459e+03,0.000000e+00
3.414352e+03,0.000000e+00
3.417245e+03,0.000000e+00
3.420138e+03,0.000000e+00
3.423030e+03,0.000000e+00
3.425923e+03,0.000000e+00
3.428816e+03,0.000000e+00
3.431708e+03,0.000000e+00
3.434601e+03,0.000000e+00
3.437494e+03,0.000000e+00
3.440386e+03,0.000000e+00
3.443279e+03,0.000000e+00
3.446172e+03,0.000000e+00
3.449065e+03,0.000000e+00
3.451957e+03,0.000000e+00
3.454850e+03,0.000000e+00
3.457743e+03,0.000000e+00
3.460635e+03,0.000000e+00
3.463528e+03,0.000000e+00
3.466421e+03,0.000000e+00
3.469313e+03,0.000000e+00
3.472206e+03,0.000000e+00
3.475099e+03,0.000000e+00
3.477992e+03,0.000000e+00
3.480884e+03,0.000000e+00
3.483777e+03,0.000000e+00
3.486670e+03,0.000000e+00
3.489563e+03,0.000000e+00
3.492455e+03,0.000000e+00
3.495348e+03,0.000000e+00
3.498240e+03,0.000000e+00
3.500169e+03,0.000000e+00