File: RAMAN_data/13042023_r1/blue fibre2.CSV
9.931763e+01,0.000000e+00
1.022103e+02,0.000000e+00
1.051030e+02,0.000000e+00
1.079957e+02,0.000000e+00
1.108884e+02,0.000000e+00
1.137811e+02,0.000000e+00
1.166738e+02,0.000000e+00
1.195665e+02,0.000000e+00
1.224592e+02,0.000000e+00
1.253519e+02,0.000000e+00
1.282446e+02,0.000000e+00
1.311373e+02,0.000000e+00
1.340300e+02,0.000000e+00
1.369227e+02,0.000000e+00
1.398154e+02,0.000000e+00
1.427081e+02,0.000000e+00
1.456008e+02,0.000000e+00
1.484935e+02,0.000000e+00
1.513862e+02,0.000000e+00
1.542789e+02,0.000000e+00
1.571716e+02,0.000000e+00
1.600643e+02,0.000000e+00
1.629570e+02,0.000000e+00
1.658497e+02,0.000000e+00
1.687424e+02,0.000000e+00
1.716351e+02,0.000000e+00
1.745278e+02,0.000000e+00
1.774205e+02,0.000000e+00
1.803132e+02,0.000000e+00
1.832059e+02,0.000000e+00
1.860986e+02,0.000000e+00
1.889913e+02,0.000000e+00
1.918840e+02,0.000000e+00
1.947767e+02,0.000000e+00
1.976694e+02,0.000000e+00
2.005621e+02,1.047981e+04
2.034548e+02,1.052034e+04
2.063475e+02,1.054905e+04
2.092402e+02,1.055023e+04
2.121329e+02,1.055114e+04
2.150256e+02,1.057994e+04
2.179183e+02,1.060919e+04
2.208110e+02,1.066058e+04
2.237037e+02,1.067718e+04
2.265964e+02,1.068749e+04
2.294892e+02,1.071674e+04
2.323819e+02,1.076485e+04
2.352746e+02,1.080180e+04
2.381673e+02,1.083688e+04
2.410600e+02,1.083374e+04
2.439527e+02,1.085114e+04
2.468454e+02,1.088743e+04
2.497381e+02,1.092293e+04
2.526308e+02,1.095972e+04
2.555235e+02,1.097477e+04
2.584161e+02,1.097703e+04
2.613088e+02,1.102010e+04
2.642015e+02,1.107264e+04
2.670942e+02,1.109793e+04
2.699869e+02,1.113241e+04
2.728796e+02,1.114520e+04
2.757723e+02,1.118599e+04
2.786650e+02,1.122956e+04
2.815577e+02,1.125743e+04
2.844504e+02,1.128402e+04
2.873431e+02,1.129060e+04
2.902358e+02,1.131700e+04
2.931285e+02,1.134644e+04
2.960212e+02,1.139113e+04
2.989139e+02,1.141448e+04
3.018066e+02,1.143413e+04
3.046993e+02,1.146692e+04
3.075920e+02,1.148884e+04
3.104847e+02,1.152890e+04
3.133774e+02,1.157925e+04
3.162701e+02,1.159601e+04
3.191628e+02,1.160888e+04
3.220555e+02,1.164175e+04
3.249482e+02,1.168424e+04
3.278409e+02,1.172364e+04
3.307336e+02,1.175929e+04
3.336263e+02,1.178546e+04
3.365190e+02,1.179593e+04
3.394117e+02,1.184477e+04
3.423044e+02,1.189110e+04
3.451971e+02,1.195065e+04
3.480898e+02,1.197636e+04
3.509825e+02,1.198931e+04
3.538752e+02,1.203903e+04
3.567680e+02,1.208796e+04
3.596607e+02,1.212734e+04
3.625534e+02,1.216518e+04
3.654461e+02,1.215143e+04
3.683388e+02,1.217766e+04
3.712315e+02,1.224066e+04
3.741242e+02,1.227460e+04
3.770169e+02,1.231209e+04
3.799096e+02,1.235504e+04
3.828023e+02,1.237077e+04
3.856950e+02,1.241141e+04
3.885877e+02,1.246715e+04
3.914804e+02,1.251785e+04
3.943731e+02,1.254654e+04
3.972658e+02,1.257221e+04
4.001585e+02,1.259571e+04
4.030512e+02,1.265208e+04
4.059439e+02,1.268439e+04
4.088366e+02,1.272684e+04
4.117293e+02,1.274472e+04
4.146220e+02,1.277363e+04
4.175147e+02,1.281375e+04
4.204074e+02,1.285257e+04
4.233001e+02,1.288676e+04
4.261928e+02,1.290905e+04
4.290855e+02,1.294774e+04
4.319782e+02,1.298699e+04
4.348709e+02,1.304558e+04
4.377636e+02,1.309523e+04
4.406563e+02,1.313850e+04
4.435490e+02,1.316672e+04
4.464417e+02,1.318910e+04
4.493344e+02,1.321756e+04
4.522271e+02,1.322881e+04
4.551198e+02,1.324096e+04
4.580125e+02,1.324038e+04
4.609052e+02,1.326793e+04
4.637979e+02,1.325858e+04
4.666906e+02,1.325694e+04
4.695833e+02,1.330157e+04
4.724760e+02,1.331945e+04
4.753687e+02,1.329859e+04
4.782614e+02,1.332347e+04
4.811541e+02,1.331983e+04
4.840468e+02,1.333273e+04
4.869395e+02,1.333350e+04
4.898322e+02,1.330608e+04
4.927249e+02,1.329508e+04
4.956176e+02,1.331877e+04
4.985103e+02,1.331865e+04
5.014030e+02,1.326659e+04
5.042957e+02,1.328733e+04
5.071884e+02,1.327558e+04
5.100811e+02,1.323242e+04
5.129738e+02,1.324242e+04
5.158665e+02,1.325542e+04
5.187592e+02,1.323163e+04
5.216519e+02,1.317835e+04
5.245446e+02,1.317360e+04
5.274373e+02,1.318301e+04
5.303300e+02,1.316821e+04
5.332227e+02,1.314864e+04
5.361154e+02,1.313100e+04
5.390081e+02,1.313742e+04
5.419008e+02,1.316893e+04
5.447935e+02,1.318169e+04
5.476862e+02,1.315565e+04
5.505789e+02,1.311762e+04
5.534716e+02,1.305329e+04
5.563643e+02,1.305006e+04
5.592570e+02,1.304666e+04
5.621497e+02,1.304948e+04
5.650424e+02,1.295511e+04
5.679351e+02,1.295903e+04
5.708278e+02,1.288740e+04
5.737205e+02,1.285042e+04
5.766132e+02,1.282598e+04
5.795059e+02,1.282372e+04
5.823986e+02,1.276414e+04
5.852913e+02,1.274376e+04
5.881840e+02,1.270603e+04
5.910767e+02,1.267716e+04
5.939694e+02,1.263940e+04
5.968621e+02,1.262726e+04
5.997548e+02,1.263000e+04
6.026475e+02,1.256274e+04
6.055402e+02,1.258647e+04
6.084329e+02,1.250962e+04
6.113256e+02,1.250075e+04
6.142183e+02,1.245222e+04
6.171110e+02,1.241004e+04
6.200037e+02,1.241866e+04
6.228964e+02,1.240947e+04
6.257891e+02,1.239427e+04
6.286818e+02,1.235725e+04
6.315745e+02,1.229847e+04
6.344672e+02,1.227677e+04
6.373599e+02,1.223736e+04
6.402526e+02,1.224116e+04
6.431453e+02,1.218454e+04
6.460380e+02,1.212513e+04
6.489307e+02,1.212577e+04
6.518234e+02,1.212798e+04
6.547161e+02,1.207660e+04
6.576088e+02,1.203911e+04
6.605015e+02,1.201946e+04
6.633942e+02,1.200213e+04
6.662869e+02,1.195421e+04
6.691796e+02,1.195718e+04
6.720723e+02,1.197289e+04
6.749650e+02,1.190472e+04
6.778577e+02,1.183604e+04
6.807504e+02,1.179486e+04
6.836431e+02,1.181821e+04
6.865358e+02,1.178454e+04
6.894285e+02,1.170880e+04
6.923212e+02,1.169480e+04
6.952139e+02,1.168599e+04
6.981066e+02,1.167590e+04
7.009993e+02,1.164257e+04
7.038920e+02,1.159404e+04
7.067847e+02,1.159262e+04
7.096774e+02,1.155724e+04
7.125701e+02,1.156304e+04
7.154628e+02,1.155483e+04
7.183555e+02,1.150378e+04
7.212482e+02,1.148155e+04
7.241409e+02,1.145293e+04
7.270336e+02,1.140664e+04
7.299263e+02,1.140072e+04
7.328190e+02,1.135862e+04
7.357117e+02,1.133679e+04
7.386044e+02,1.131645e+04
7.414971e+02,1.130744e+04
7.443898e+02,1.126936e+04
7.472825e+02,1.130478e+04
7.501752e+02,1.122150e+04
7.530679e+02,1.120875e+04
7.559606e+02,1.118607e+04
7.588533e+02,1.117797e+04
7.617460e+02,1.114394e+04
7.646387e+02,1.109592e+04
7.675314e+02,1.108391e+04
7.704241e+02,1.106283e+04
7.733168e+02,1.103855e+04
7.762095e+02,1.104311e+04
7.791022e+02,1.098761e+04
7.819949e+02,1.095097e+04
7.848876e+02,1.095201e+04
7.877803e+02,1.091351e+04
7.906730e+02,1.089985e+04
7.935657e+02,1.086237e+04
7.964584e+02,1.084265e+04
7.993511e+02,1.083457e+04
8.022438e+02,1.079345e+04
8.051365e+02,1.077624e+04
8.080292e+02,1.076372e+04
8.109219e+02,1.074569e+04
8.138146e+02,1.065900e+04
8.167073e+02,1.068849e+04
8.196000e+02,1.066068e+04
8.224927e+02,1.063189e+04
8.253854e+02,1.064707e+04
8.282781e+02,1.058329e+04
8.311708e+02,1.057163e+04
8.340635e+02,1.054655e+04
8.369562e+02,1.053580e+04
8.398489e+02,1.052556e+04
8.427416e+02,1.046998e+04
8.456343e+02,1.044540e+04
8.485270e+02,1.040791e+04
8.514197e+02,1.040812e+04
8.543124e+02,1.039725e+04
8.572051e+02,1.037803e+04
8.600978e+02,1.031165e+04
8.629905e+02,1.028596e+04
8.658832e+02,1.028478e+04
8.687759e+02,1.028450e+04
8.716686e+02,1.024552e+04
8.745613e+02,1.022777e+04
8.774540e+02,1.020639e+04
8.803467e+02,1.014712e+04
8.832394e+02,1.017118e+04
8.861321e+02,1.017615e+04
8.890248e+02,1.013708e+04
8.919175e+02,1.006905e+04
8.948102e+02,1.006020e+04
8.977029e+02,1.003886e+04
9.005956e+02,1.003007e+04
9.034883e+02,9.988410e+03
9.063810e+02,9.956476e+03
9.092737e+02,9.937933e+03
9.121664e+02,9.956983e+03
9.150591e+02,9.945348e+03
9.179518e+02,9.901154e+03
9.208445e+02,9.841002e+03
9.237372e+02,9.801076e+03
9.266299e+02,9.809496e+03
9.295226e+02,9.761387e+03
9.324153e+02,9.775982e+03
9.353080e+02,9.750858e+03
9.382007e+02,9.732551e+03
9.410934e+02,9.694806e+03
9.439861e+02,9.693103e+03
9.468788e+02,9.657203e+03
9.497715e+02,9.639597e+03
9.526642e+02,9.594261e+03
9.555569e+02,9.601035e+03
9.584496e+02,9.584342e+03
9.613423e+02,9.543606e+03
9.642350e+02,9.541014e+03
9.671277e+02,9.491785e+03
9.700204e+02,9.505927e+03
9.729131e+02,9.456611e+03
9.758058e+02,9.476221e+03
9.786985e+02,9.430458e+03
9.815912e+02,9.419729e+03
9.844839e+02,9.367679e+03
9.873766e+02,9.314549e+03
9.902693e+02,9.333859e+03
9.931620e+02,9.335408e+03
9.960547e+02,9.327400e+03
9.989474e+02,9.278526e+03
1.001840e+03,9.231509e+03
1.004733e+03,9.221395e+03
1.007626e+03,9.224079e+03
1.010518e+03,9.190130e+03
1.013411e+03,9.169637e+03
1.016304e+03,9.150354e+03
1.019196e+03,9.144005e+03
1.022089e+03,9.099731e+03
1.024982e+03,9.128265e+03
1.027875e+03,9.083091e+03
1.030767e+03,9.053870e+03
1.033660e+03,9.027068e+03
1.036552e+03,8.997704e+03
1.039445e+03,8.993612e+03
1.042338e+03,8.972560e+03
1.045231e+03,8.960530e+03
1.048123e+03,8.950954e+03
1.051016e+03,8.934279e+03
1.053909e+03,8.943325e+03
1.056802e+03,8.895875e+03
1.059694e+03,8.888449e+03
1.062587e+03,8.853103e+03
1.065479e+03,8.844022e+03
1.068372e+03,8.817493e+03
1.071265e+03,8.804561e+03
1.074158e+03,8.818684e+03
1.077050e+03,8.755142e+03
1.079943e+03,8.754720e+03
1.082836e+03,8.739095e+03
1.085729e+03,8.734111e+03
1.088621e+03,8.753668e+03
1.091514e+03,8.716988e+03
1.094406e+03,8.659243e+03
1.097299e+03,8.653896e+03
1.100192e+03,8.640040e+03
1.103085e+03,8.582564e+03
1.105977e+03,8.580667e+03
1.108870e+03,8.574894e+03
1.111763e+03,8.536274e+03
1.114656e+03,8.552798e+03
1.117548e+03,8.540398e+03
1.120441e+03,8.501471e+03
1.123334e+03,8.467898e+03
1.126226e+03,8.462759e+03
1.129119e+03,8.414106e+03
1.132012e+03,8.403075e+03
1.134904e+03,8.393801e+03
1.137797e+03,8.348647e+03
1.140690e+03,8.364794e+03
1.143583e+03,8.311459e+03
1.146475e+03,8.352656e+03
1.149368e+03,8.321897e+03
1.152261e+03,8.286017e+03
1.155153e+03,8.258787e+03
1.158046e+03,8.225607e+03
1.160939e+03,8.204449e+03
1.163831e+03,8.223831e+03
1.166724e+03,8.179446e+03
1.169617e+03,8.166213e+03
1.172510e+03,8.123333e+03
1.175402e+03,8.111569e+03
1.178295e+03,8.121073e+03
1.181188e+03,8.087679e+03
1.184080e+03,8.083539e+03
1.186973e+03,8.023635e+03
1.189866e+03,8.004625e+03
1.192758e+03,8.001777e+03
1.195651e+03,8.003106e+03
1.198544e+03,8.002071e+03
1.201437e+03,7.949309e+03
1.204329e+03,7.903827e+03
1.207222e+03,7.952028e+03
1.210115e+03,7.938038e+03
1.213007e+03,7.905388e+03
1.215900e+03,7.880249e+03
1.218793e+03,7.861072e+03
1.221685e+03,7.860285e+03
1.224578e+03,7.876645e+03
1.227471e+03,7.833315e+03
1.230364e+03,7.818629e+03
1.233256e+03,7.768404e+03
1.236149e+03,7.755069e+03
1.239042e+03,7.735197e+03
1.241934e+03,7.714937e+03
1.244827e+03,7.710781e+03
1.247720e+03,7.649498e+03
1.250612e+03,7.652385e+03
1.253505e+03,7.663565e+03
1.256398e+03,7.631142e+03
1.259291e+03,7.613723e+03
1.262183e+03,7.592837e+03
1.265076e+03,7.586820e+03
1.267969e+03,7.547319e+03
1.270861e+03,7.556015e+03
1.273754e+03,7.537548e+03
1.276647e+03,7.551584e+03
1.279539e+03,7.523603e+03
1.282432e+03,7.474853e+03
1.285325e+03,7.480914e+03
1.288218e+03,7.451345e+03
1.291110e+03,7.438625e+03
1.294003e+03,7.401592e+03
1.296896e+03,7.394096e+03
1.299788e+03,7.394453e+03
1.302681e+03,7.361726e+03
1.305574e+03,7.359445e+03
1.308466e+03,7.372278e+03
1.311359e+03,7.343091e+03
1.314252e+03,7.290874e+03
1.317145e+03,7.276763e+03
1.320037e+03,7.290045e+03
1.322930e+03,7.268126e+03
1.325823e+03,7.235663e+03
1.328715e+03,7.214656e+03
1.331608e+03,7.196435e+03
1.334501e+03,7.217199e+03
1.337393e+03,7.192177e+03
1.340286e+03,7.162594e+03
1.343179e+03,7.140268e+03
1.346072e+03,7.116425e+03
1.348964e+03,7.113348e+03
1.351857e+03,7.111662e+03
1.354750e+03,7.088170e+03
1.357642e+03,7.062340e+03
1.360535e+03,7.034211e+03
1.363428e+03,7.046550e+03
1.366320e+03,7.030220e+03
1.369213e+03,7.010014e+03
1.372106e+03,6.974138e+03
1.374999e+03,6.945103e+03
1.377891e+03,6.961091e+03
1.380784e+03,6.940104e+03
1.383677e+03,6.909993e+03
1.386569e+03,6.883006e+03
1.389462e+03,6.875335e+03
1.392355e+03,6.826377e+03
1.395247e+03,6.828023e+03
1.398140e+03,6.831982e+03
1.401033e+03,6.813196e+03
1.403926e+03,6.804984e+03
1.406818e+03,6.773977e+03
1.409711e+03,6.779696e+03
1.412604e+03,6.752172e+03
1.415496e+03,6.759716e+03
1.418389e+03,6.723382e+03
1.421282e+03,6.684384e+03
1.424174e+03,6.697337e+03
1.427067e+03,6.659417e+03
1.429960e+03,6.649263e+03
1.432853e+03,6.660479e+03
1.435745e+03,6.609454e+03
1.438638e+03,6.619114e+03
1.441531e+03,6.594197e+03
1.444423e+03,6.586737e+03
1.447316e+03,6.557406e+03
1.450209e+03,6.529865e+03
1.453101e+03,6.533018e+03
1.455994e+03,6.531019e+03
1.458887e+03,6.539875e+03
1.461780e+03,6.497768e+03
1.464672e+03,6.485857e+03
1.467565e+03,6.474755e+03
1.470458e+03,6.466118e+03
1.473350e+03,6.432288e+03
1.476243e+03,6.436145e+03
1.479136e+03,6.411315e+03
1.482028e+03,6.400541e+03
1.484921e+03,6.396387e+03
1.487814e+03,6.349938e+03
1.490707e+03,6.313452e+03
1.493599e+03,6.326066e+03
1.496492e+03,6.312123e+03
1.499385e+03,6.304038e+03
1.502277e+03,6.287241e+03
1.505170e+03,6.269763e+03
1.508063e+03,6.246959e+03
1.510955e+03,6.251242e+03
1.513848e+03,6.213907e+03
1.516741e+03,6.196114e+03
1.519634e+03,6.187580e+03
1.522526e+03,6.201566e+03
1.525419e+03,6.188394e+03
1.528312e+03,6.145030e+03
1.531204e+03,6.129182e+03
1.534097e+03,6.115829e+03
1.536990e+03,6.092123e+03
1.539882e+03,6.071807e+03
1.542775e+03,6.104770e+03
1.545668e+03,6.053744e+03
1.548561e+03,6.065288e+03
1.551453e+03,6.039486e+03
1.554346e+03,6.059002e+03
1.557239e+03,6.041358e+03
1.560131e+03,6.031975e+03
1.563024e+03,6.008701e+03
1.565917e+03,6.056181e+03
1.568809e+03,6.078659e+03
1.571702e+03,6.107784e+03
1.574595e+03,6.034369e+03
1.577488e+03,5.996353e+03
1.580380e+03,5.979959e+03
1.583273e+03,5.964553e+03
1.586166e+03,5.934078e+03
1.589058e+03,5.910631e+03
1.591951e+03,5.863846e+03
1.594844e+03,5.845678e+03
1.597736e+03,5.860461e+03
1.600629e+03,5.795400e+03
1.603522e+03,5.793856e+03
1.606415e+03,5.756408e+03
1.609307e+03,5.744199e+03
1.612200e+03,5.749085e+03
1.615093e+03,5.714001e+03
1.617985e+03,5.705297e+03
1.620878e+03,5.726523e+03
1.623771e+03,5.676823e+03
1.626663e+03,5.677861e+03
1.629556e+03,5.650397e+03
1.632449e+03,5.630502e+03
1.635342e+03,5.612132e+03
1.638234e+03,5.573663e+03
1.641127e+03,5.595015e+03
1.644020e+03,5.590897e+03
1.646912e+03,5.567928e+03
1.649805e+03,5.561354e+03
1.652698e+03,5.540494e+03
1.655590e+03,5.524309e+03
1.658483e+03,5.498653e+03
1.661376e+03,5.477533e+03
1.664269e+03,5.467849e+03
1.667161e+03,5.448653e+03
1.670054e+03,5.448874e+03
1.672947e+03,5.437519e+03
1.675839e+03,5.410779e+03
1.678732e+03,5.399119e+03
1.681625e+03,5.377931e+03
1.684517e+03,5.377896e+03
1.687410e+03,5.373760e+03
1.690303e+03,5.338806e+03
1.693196e+03,5.356296e+03
1.696088e+03,5.292919e+03
1.698981e+03,5.299940e+03
1.701874e+03,5.291917e+03
1.704766e+03,5.291067e+03
1.707659e+03,5.266032e+03
1.710552e+03,5.254115e+03
1.713444e+03,5.229003e+03
1.716337e+03,5.231501e+03
1.719230e+03,5.220127e+03
1.722123e+03,5.199799e+03
1.725015e+03,5.171499e+03
1.727908e+03,5.165828e+03
1.730801e+03,5.134500e+03
1.733693e+03,5.133100e+03
1.736586e+03,5.146226e+03
1.739479e+03,5.113115e+03
1.742371e+03,5.085440e+03
1.745264e+03,5.083065e+03
1.748157e+03,5.090983e+03
1.751050e+03,5.075135e+03
1.753942e+03,5.034464e+03
1.756835e+03,5.031852e+03
1.759728e+03,5.017227e+03
1.762620e+03,5.007304e+03
1.765513e+03,5.004456e+03
1.768406e+03,4.973836e+03
1.771298e+03,4.968232e+03
1.774191e+03,4.939555e+03
1.777084e+03,4.918886e+03
1.779977e+03,4.929984e+03
1.782869e+03,4.950190e+03
1.785762e+03,4.930899e+03
1.788655e+03,4.889741e+03
1.791547e+03,4.869256e+03
1.794440e+03,4.865727e+03
1.797333e+03,4.869770e+03
1.800225e+03,4.847631e+03
1.803118e+03,4.828571e+03
1.806011e+03,4.807961e+03
1.808904e+03,4.818139e+03
1.811796e+03,4.795235e+03
1.814689e+03,4.783087e+03
1.817582e+03,4.767265e+03
1.820474e+03,4.750953e+03
1.823367e+03,4.703175e+03
1.826260e+03,4.711064e+03
1.829152e+03,4.689415e+03
1.832045e+03,4.696919e+03
1.834938e+03,4.691128e+03
1.837831e+03,4.648771e+03
1.840723e+03,4.653594e+03
1.843616e+03,4.641991e+03
1.846509e+03,4.636445e+03
1.849401e+03,4.621568e+03
1.852294e+03,4.595871e+03
1.855187e+03,4.581716e+03
1.858079e+03,4.573300e+03
1.860972e+03,4.524374e+03
1.863865e+03,4.558625e+03
1.866758e+03,4.528623e+03
1.869650e+03,4.521897e+03
1.872543e+03,4.536061e+03
1.875436e+03,4.506669e+03
1.878328e+03,4.492219e+03
1.881221e+03,4.461917e+03
1.884114e+03,4.453688e+03
1.887006e+03,4.436232e+03
1.889899e+03,4.421995e+03
1.892792e+03,4.420487e+03
1.895685e+03,4.412306e+03
1.898577e+03,4.377977e+03
1.901470e+03,4.383173e+03
1.904363e+03,4.379926e+03
1.907255e+03,4.380197e+03
1.910148e+03,4.375175e+03
1.913041e+03,4.330744e+03
1.915933e+03,4.301498e+03
1.918826e+03,4.294237e+03
1.921719e+03,4.303033e+03
1.924612e+03,4.281958e+03
1.927504e+03,4.291100e+03
1.930397e+03,4.253562e+03
1.933290e+03,4.204827e+03
1.936182e+03,4.266338e+03
1.939075e+03,4.185264e+03
1.941968e+03,4.197938e+03
1.944860e+03,4.188789e+03
1.947753e+03,4.167534e+03
1.950646e+03,4.159131e+03
1.953539e+03,4.135201e+03
1.956431e+03,4.156427e+03
1.959324e+03,4.134197e+03
1.962217e+03,4.109596e+03
1.965109e+03,4.086879e+03
1.968002e+03,4.101625e+03
1.970895e+03,4.066083e+03
1.973787e+03,4.085816e+03
1.976680e+03,4.065674e+03
1.979573e+03,4.035392e+03
1.982466e+03,4.043032e+03
1.985358e+03,4.042105e+03
1.988251e+03,4.019528e+03
1.991144e+03,3.971435e+03
1.994036e+03,3.972061e+03
1.996929e+03,3.979171e+03
1.999822e+03,3.990265e+03
2.002714e+03,3.958901e+03
2.005607e+03,3.923766e+03
2.008500e+03,3.912281e+03
2.011393e+03,3.921890e+03
2.014285e+03,3.882216e+03
2.017178e+03,3.889922e+03
2.020071e+03,3.864420e+03
2.022963e+03,3.844319e+03
2.025856e+03,3.831425e+03
2.028749e+03,3.838008e+03
2.031641e+03,3.818945e+03
2.034534e+03,3.833073e+03
2.037427e+03,3.814255e+03
2.040320e+03,3.786161e+03
2.043212e+03,3.767871e+03
2.046105e+03,3.758499e+03
2.048998e+03,3.750321e+03
2.051890e+03,3.751939e+03
2.054783e+03,3.741055e+03
2.057676e+03,3.707981e+03
2.060568e+03,3.721945e+03
2.063461e+03,3.679374e+03
2.066354e+03,3.675328e+03
2.069247e+03,3.681999e+03
2.072139e+03,3.637854e+03
2.075032e+03,3.643214e+03
2.077925e+03,3.647056e+03
2.080817e+03,3.640563e+03
2.083710e+03,3.601553e+03
2.086603e+03,3.605561e+03
2.089496e+03,3.606775e+03
2.092388e+03,3.579798e+03
2.095281e+03,3.577927e+03
2.098174e+03,3.587330e+03
2.101066e+03,3.527375e+03
2.103959e+03,3.561267e+03
2.106852e+03,3.537056e+03
2.109744e+03,3.496553e+03
2.112637e+03,3.468350e+03
2.115530e+03,3.462591e+03
2.118422e+03,3.460449e+03
2.121315e+03,3.495736e+03
2.124208e+03,3.491810e+03
2.127101e+03,3.459366e+03
2.129993e+03,3.422426e+03
2.132886e+03,3.434614e+03
2.135779e+03,3.448984e+03
2.138671e+03,3.415442e+03
2.141564e+03,3.371449e+03
2.144457e+03,3.371828e+03
2.147350e+03,3.352261e+03
2.150242e+03,3.348445e+03
2.153135e+03,3.370218e+03
2.156028e+03,3.333284e+03
2.158920e+03,3.307953e+03
2.161813e+03,3.319839e+03
2.164706e+03,3.310537e+03
2.167598e+03,3.270241e+03
2.170491e+03,3.277125e+03
2.173384e+03,3.277117e+03
2.176277e+03,3.278141e+03
2.179169e+03,3.236678e+03
2.182062e+03,3.237199e+03
2.184955e+03,3.236429e+03
2.187847e+03,3.222257e+03
2.190740e+03,3.205343e+03
2.193633e+03,3.202938e+03
2.196525e+03,3.148479e+03
2.199418e+03,3.174471e+03
2.202311e+03,3.156324e+03
2.205204e+03,3.157804e+03
2.208096e+03,3.138270e+03
2.210989e+03,3.094309e+03
2.213882e+03,3.129921e+03
2.216774e+03,3.125358e+03
2.219667e+03,3.119563e+03
2.222560e+03,3.079909e+03
2.225452e+03,3.060831e+03
2.228345e+03,3.082849e+03
2.231238e+03,3.077387e+03
2.234131e+03,3.057980e+03
2.237023e+03,3.056648e+03
2.239916e+03,3.027484e+03
2.242809e+03,3.007695e+03
2.245701e+03,3.008557e+03
2.248594e+03,2.994813e+03
2.251487e+03,3.002934e+03
2.254379e+03,2.993770e+03
2.257272e+03,2.973378e+03
2.260165e+03,2.973622e+03
2.263058e+03,2.945098e+03
2.265950e+03,2.958601e+03
2.268843e+03,2.915319e+03
2.271736e+03,2.899569e+03
2.274628e+03,2.905388e+03
2.277521e+03,2.927644e+03
2.280414e+03,2.900853e+03
2.283306e+03,2.878015e+03
2.286199e+03,2.861180e+03
2.289092e+03,2.849749e+03
2.291985e+03,2.837975e+03
2.294877e+03,2.844178e+03
2.297770e+03,2.858859e+03
2.300663e+03,2.839927e+03
2.303555e+03,2.825235e+03
2.306448e+03,2.817162e+03
2.309341e+03,2.786862e+03
2.312233e+03,2.769273e+03
2.315126e+03,2.778397e+03
2.318019e+03,2.761067e+03
2.320912e+03,2.743186e+03
2.323804e+03,2.753564e+03
2.326697e+03,2.746040e+03
2.329590e+03,2.757035e+03
2.332482e+03,2.723383e+03
2.335375e+03,2.705123e+03
2.338268e+03,2.714398e+03
2.341160e+03,2.691499e+03
2.344053e+03,2.696985e+03
2.346946e+03,2.685395e+03
2.349839e+03,2.634037e+03
2.352731e+03,2.650661e+03
2.355624e+03,2.657402e+03
2.358517e+03,2.646753e+03
2.361409e+03,2.640208e+03
2.364302e+03,2.604365e+03
2.367195e+03,2.600476e+03
2.370087e+03,2.602509e+03
2.372980e+03,2.609191e+03
2.375873e+03,2.589138e+03
2.378766e+03,2.593917e+03
2.381658e+03,2.577479e+03
2.384551e+03,2.549126e+03
2.387444e+03,2.541317e+03
2.390336e+03,2.561970e+03
2.393229e+03,2.549078e+03
2.396122e+03,2.529848e+03
2.399014e+03,2.533142e+03
2.401907e+03,2.532407e+03
2.404800e+03,2.528717e+03
2.407693e+03,2.517168e+03
2.410585e+03,2.488118e+03
2.413478e+03,2.476161e+03
2.416371e+03,2.476019e+03
2.419263e+03,2.474655e+03
2.422156e+03,2.467346e+03
2.425049e+03,2.458600e+03
2.427941e+03,2.441621e+03
2.430834e+03,2.456362e+03
2.433727e+03,2.436152e+03
2.436620e+03,2.435389e+03
2.439512e+03,2.415056e+03
2.442405e+03,2.398403e+03
2.445298e+03,2.399691e+03
2.448190e+03,2.378516e+03
2.451083e+03,2.379231e+03
2.453976e+03,2.363708e+03
2.456868e+03,2.365905e+03
2.459761e+03,2.369649e+03
2.462654e+03,2.321934e+03
2.465547e+03,2.346876e+03
2.468439e+03,2.336722e+03
2.471332e+03,2.331795e+03
2.474225e+03,2.328735e+03
2.477117e+03,2.335266e+03
2.480010e+03,2.317698e+03
2.482903e+03,2.306440e+03
2.485795e+03,2.299897e+03
2.488688e+03,2.284888e+03
2.491581e+03,2.295158e+03
2.494474e+03,2.278802e+03
2.497366e+03,2.281477e+03
2.500259e+03,2.265755e+03
2.503152e+03,2.256992e+03
2.506044e+03,2.242968e+03
2.508937e+03,2.276297e+03
2.511830e+03,2.250970e+03
2.514722e+03,2.232779e+03
2.517615e+03,2.232613e+03
2.520508e+03,2.194392e+03
2.523401e+03,2.211348e+03
2.526293e+03,2.206204e+03
2.529186e+03,2.211497e+03
2.532079e+03,2.210419e+03
2.534971e+03,2.190410e+03
2.537864e+03,2.180395e+03
2.540757e+03,2.185151e+03
2.543649e+03,2.175307e+03
2.546542e+03,2.184586e+03
2.549435e+03,2.145336e+03
2.552328e+03,2.167497e+03
2.555220e+03,2.145362e+03
2.558113e+03,2.159914e+03
2.561006e+03,2.163007e+03
2.563898e+03,2.112060e+03
2.566791e+03,2.116035e+03
2.569684e+03,2.132068e+03
2.572576e+03,2.140991e+03
2.575469e+03,2.133948e+03
2.578362e+03,2.112561e+03
2.581255e+03,2.105156e+03
2.584147e+03,2.065242e+03
2.587040e+03,2.058026e+03
2.589933e+03,2.087346e+03
2.592825e+03,2.075583e+03
2.595718e+03,2.048570e+03
2.598611e+03,2.066420e+03
2.601503e+03,2.060364e+03
2.604396e+03,2.069569e+03
2.607289e+03,2.038659e+03
2.610182e+03,2.064896e+03
2.613074e+03,2.028442e+03
2.615967e+03,2.021786e+03
2.618860e+03,2.017673e+03
2.621752e+03,2.009209e+03
2.624645e+03,2.011394e+03
2.627538e+03,2.004760e+03
2.630430e+03,2.000611e+03
2.633323e+03,2.016702e+03
2.636216e+03,2.000170e+03
2.639109e+03,2.016163e+03
2.642001e+03,1.980788e+03
2.644894e+03,1.986156e+03
2.647787e+03,1.961947e+03
2.650679e+03,1.997564e+03
2.653572e+03,1.949342e+03
2.656465e+03,1.982201e+03
2.659357e+03,1.959527e+03
2.662250e+03,1.963970e+03
2.665143e+03,1.958365e+03
2.668036e+03,1.948490e+03
2.670928e+03,1.934675e+03
2.673821e+03,1.935388e+03
2.676714e+03,1.949244e+03
2.679606e+03,1.933059e+03
2.682499e+03,1.906936e+03
2.685392e+03,1.898233e+03
2.688284e+03,1.929154e+03
2.691177e+03,1.909606e+03
2.694070e+03,1.917508e+03
2.696963e+03,1.897683e+03
2.699855e+03,1.897779e+03
2.702748e+03,1.891950e+03
2.705641e+03,1.901346e+03
2.708533e+03,1.876119e+03
2.711426e+03,1.877378e+03
2.714319e+03,1.849948e+03
2.717211e+03,1.867737e+03
2.720104e+03,1.888302e+03
2.722997e+03,1.843337e+03
2.725890e+03,1.838161e+03
2.728782e+03,1.851746e+03
2.731675e+03,1.850297e+03
2.734568e+03,1.841426e+03
2.737460e+03,1.848944e+03
2.740353e+03,1.822479e+03
2.743246e+03,1.853555e+03
2.746138e+03,1.823510e+03
2.749031e+03,1.818306e+03
2.751924e+03,1.819718e+03
2.754817e+03,1.826352e+03
2.757709e+03,1.811247e+03
2.760602e+03,1.801870e+03
2.763495e+03,1.830661e+03
2.766387e+03,1.789613e+03
2.769280e+03,1.763705e+03
2.772173e+03,1.801147e+03
2.775065e+03,1.775712e+03
2.777958e+03,1.752695e+03
2.780851e+03,1.796004e+03
2.783744e+03,1.784664e+03
2.786636e+03,1.779439e+03
2.789529e+03,1.773758e+03
2.792422e+03,1.785984e+03
2.795314e+03,1.764528e+03
2.798207e+03,1.761395e+03
2.801100e+03,1.749643e+03
2.803992e+03,1.737290e+03
2.806885e+03,1.766651e+03
2.809778e+03,1.741006e+03
2.812671e+03,1.745783e+03
2.815563e+03,1.733974e+03
2.818456e+03,1.738105e+03
2.821349e+03,1.739616e+03
2.824241e+03,1.743896e+03
2.827134e+03,1.706764e+03
2.830027e+03,1.734161e+03
2.832919e+03,1.715186e+03
2.835812e+03,1.722569e+03
2.838705e+03,1.718449e+03
2.841598e+03,1.708585e+03
2.844490e+03,1.712910e+03
2.847383e+03,1.698480e+03
2.850276e+03,1.693957e+03
2.853168e+03,1.707992e+03
2.856061e+03,1.696165e+03
2.858954e+03,1.701229e+03
2.861846e+03,1.692905e+03
2.864739e+03,1.685744e+03
2.867632e+03,1.690133e+03
2.870525e+03,1.715206e+03
2.873417e+03,1.704935e+03
2.876310e+03,1.694678e+03
2.879203e+03,1.690566e+03
2.882095e+03,1.702575e+03
2.884988e+03,1.682698e+03
2.887881e+03,1.680072e+03
2.890773e+03,1.686969e+03
2.893666e+03,1.689218e+03
2.896559e+03,1.694977e+03
2.899452e+03,1.668698e+03
2.902344e+03,1.671361e+03
2.905237e+03,1.681419e+03
2.908130e+03,1.692126e+03
2.911022e+03,1.646258e+03
2.913915e+03,1.637988e+03
2.916808e+03,1.661865e+03
2.919700e+03,1.652928e+03
2.922593e+03,1.640383e+03
2.925486e+03,1.653091e+03
2.928379e+03,1.632262e+03
2.931271e+03,1.669897e+03
2.934164e+03,1.653200e+03
2.937057e+03,1.644460e+03
2.939949e+03,1.661181e+03
2.942842e+03,1.619117e+03
2.945735e+03,1.619130e+03
2.948627e+03,1.647303e+03
2.951520e+03,1.638638e+03
2.954413e+03,1.626072e+03
2.957306e+03,1.659446e+03
2.960198e+03,1.605075e+03
2.963091e+03,1.612223e+03
2.965984e+03,1.577820e+03
2.968876e+03,1.591977e+03
2.971769e+03,1.557068e+03
2.974662e+03,1.533886e+03
2.977554e+03,1.594233e+03
2.980447e+03,1.612029e+03
2.983340e+03,1.562101e+03
2.986233e+03,1.605807e+03
2.989125e+03,1.559454e+03
2.992018e+03,1.573865e+03
2.994911e+03,1.586894e+03
2.997803e+03,1.546149e+03
3.000696e+03,1.544215e+03
3.003589e+03,1.543157e+03
3.006481e+03,1.580711e+03
3.009374e+03,1.549668e+03
3.012267e+03,1.571081e+03
3.015160e+03,1.528071e+03
3.018052e+03,1.525042e+03
3.020945e+03,1.557946e+03
3.023838e+03,1.573070e+03
3.026730e+03,1.551045e+03
3.029623e+03,1.493097e+03
3.032516e+03,1.561042e+03
3.035408e+03,1.531407e+03
3.038301e+03,1.534852e+03
3.041194e+03,1.553740e+03
3.044087e+03,1.532147e+03
3.046979e+03,1.519591e+03
3.049872e+03,1.543548e+03
3.052765e+03,1.546100e+03
3.055657e+03,1.537695e+03
3.058550e+03,1.536543e+03
3.061443e+03,1.521674e+03
3.064335e+03,1.532265e+03
3.067228e+03,1.539771e+03
3.070121e+03,1.558933e+03
3.073014e+03,1.525184e+03
3.075906e+03,1.560172e+03
3.078799e+03,1.513812e+03
3.081692e+03,1.539519e+03
3.084584e+03,1.532990e+03
3.087477e+03,1.515581e+03
3.090370e+03,1.506997e+03
3.093262e+03,1.515671e+03
3.096155e+03,1.478488e+03
3.099048e+03,1.502281e+03
3.101941e+03,1.532571e+03
3.104833e+03,1.512834e+03
3.107726e+03,1.513321e+03
3.110619e+03,1.525712e+03
3.113511e+03,1.526826e+03
3.116404e+03,1.543597e+03
3.119297e+03,1.502184e+03
3.122189e+03,1.502321e+03
3.125082e+03,1.508287e+03
3.127975e+03,1.467943e+03
3.130868e+03,1.536224e+03
3.133760e+03,1.524139e+03
3.136653e+03,1.554439e+03
3.139546e+03,1.488425e+03
3.142438e+03,1.544029e+03
3.145331e+03,1.501509e+03
3.148224e+03,1.482256e+03
3.151116e+03,1.513226e+03
3.154009e+03,1.543651e+03
3.156902e+03,1.558435e+03
3.159795e+03,1.504863e+03
3.162687e+03,1.549659e+03
3.165580e+03,1.514659e+03
3.168473e+03,1.489246e+03
3.171365e+03,1.475428e+03
3.174258e+03,1.541498e+03
3.177151e+03,1.559047e+03
3.180043e+03,1.533734e+03
3.182936e+03,1.509752e+03
3.185829e+03,1.528935e+03
3.188722e+03,1.517901e+03
3.191614e+03,1.550978e+03
3.194507e+03,1.548986e+03
3.197400e+03,1.560480e+03
3.200292e+03,1.524863e+03
3.203185e+03,0.000000e+00
3.206078e+03,0.000000e+00
3.208970e+03,0.000000e+00
3.211863e+03,0.000000e+00
3.214756e+03,0.000000e+00
3.217649e+03,0.000000e+00
3.220541e+03,0.000000e+00
3.223434e+03,0.000000e+00
3.226327e+03,0.000000e+00
3.229219e+03,0.000000e+00
3.232112e+03,0.000000e+00
3.235005e+03,0.000000e+00
3.237897e+03,0.000000e+00
3.240790e+03,0.000000e+00
3.243683e+03,0.000000e+00
3.246576e+03,0.000000e+00
3.249468e+03,0.000000e+00
3.252361e+03,0.000000e+00
3.255254e+03,0.000000e+00
3.258146e+03,0.000000e+00
3.261039e+03,0.000000e+00
3.263932e+03,0.000000e+00
3.266824e+03,0.000000e+00
3.269717e+03,0.000000e+00
3.272610e+03,0.000000e+00
3.275503e+03,0.000000e+00
3.278395e+03,0.000000e+00
3.281288e+03,0.000000e+00
3.284181e+03,0.000000e+00
3.287073e+03,0.000000e+00
3.289966e+03,0.000000e+00
3.292859e+03,0.000000e+00
3.295751e+03,0.000000e+00
3.298644e+03,0.000000e+00
3.301537e+03,0.000000e+00
3.304430e+03,0.000000e+00
3.307322e+03,0.000000e+00
3.310215e+03,0.000000e+00
3.313108e+03,0.000000e+00
3.316000e+03,0.000000e+00
3.318893e+03,0.000000e+00
3.321786e+03,0.000000e+00
3.324678e+03,0.000000e+00
3.327571e+03,0.000000e+00
3.330464e+03,0.000000e+00
3.333357e+03,0.000000e+00
3.336249e+03,0.000000e+00
3.339142e+03,0.000000e+00
3.342035e+03,0.000000e+00
3.344927e+03,0.000000e+00
3.347820e+03,0.000000e+00
3.350713e+03,0.000000e+00
3.353605e+03,0.000000e+00
3.356498e+03,0.000000e+00
3.359391e+03,0.000000e+00
3.362284e+03,0.000000e+00
3.365176e+03,0.000000e+00
3.368069e+03,0.000000e+00
3.370962e+03,0.000000e+00
3.373854e+03,0.000000e+00
3.376747e+03,0.000000e+00
3.379640e+03,0.000000e+00
3.382532e+03,0.000000e+00
3.385425e+03,0.000000e+00
3.388318e+03,0.000000e+00
3.391211e+03,0.000000e+00
3.394103e+03,0.000000e+00
3.396996e+03,0.000000e+00
3.399889e+03,0.000000e+00
3.402781e+03,0.000000e+00
3.405674e+03,0.000000e+00
3.408567e+03,0.000000e+00
3.411459e+03,0.000000e+00
3.414352e+03,0.000000e+00
3.417245e+03,0.000000e+00
3.420138e+03,0.000000e+00
3.423030e+03,0.000000e+00
3.425923e+03,0.000000e+00
3.428816e+03,0.000000e+00
3.431708e+03,0.000000e+00
3.434601e+03,0.000000e+00
3.437494e+03,0.000000e+00
3.440386e+03,0.000000e+00
3.443279e+03,0.000000e+00
3.446172e+03,0.000000e+00
3.449065e+03,0.000000e+00
3.451957e+03,0.000000e+00
3.454850e+03,0.000000e+00
3.457743e+03,0.000000e+00
3.460635e+03,0.000000e+00
3.463528e+03,0.000000e+00
3.466421e+03,0.000000e+00
3.469313e+03,0.000000e+00
3.472206e+03,0.000000e+00
3.475099e+03,0.000000e+00
3.477992e+03,0.000000e+00
3.480884e+03,0.000000e+00
3.483777e+03,0.000000e+00
3.486670e+03,0.000000e+00
3.489563e+03,0.000000e+00
3.492455e+03,0.000000e+00
3.495348e+03,0.000000e+00
3.498240e+03,0.000000e+00
3.500169e+03,0.000000e+00