File: RAMAN_data/13042023_r1/blue fibre3.CSV
9.931763e+01,0.000000e+00
1.022103e+02,0.000000e+00
1.051030e+02,0.000000e+00
1.079957e+02,0.000000e+00
1.108884e+02,0.000000e+00
1.137811e+02,0.000000e+00
1.166738e+02,0.000000e+00
1.195665e+02,0.000000e+00
1.224592e+02,0.000000e+00
1.253519e+02,0.000000e+00
1.282446e+02,0.000000e+00
1.311373e+02,0.000000e+00
1.340300e+02,0.000000e+00
1.369227e+02,0.000000e+00
1.398154e+02,0.000000e+00
1.427081e+02,0.000000e+00
1.456008e+02,0.000000e+00
1.484935e+02,0.000000e+00
1.513862e+02,0.000000e+00
1.542789e+02,0.000000e+00
1.571716e+02,0.000000e+00
1.600643e+02,0.000000e+00
1.629570e+02,0.000000e+00
1.658497e+02,0.000000e+00
1.687424e+02,0.000000e+00
1.716351e+02,0.000000e+00
1.745278e+02,0.000000e+00
1.774205e+02,0.000000e+00
1.803132e+02,0.000000e+00
1.832059e+02,0.000000e+00
1.860986e+02,0.000000e+00
1.889913e+02,0.000000e+00
1.918840e+02,0.000000e+00
1.947767e+02,0.000000e+00
1.976694e+02,0.000000e+00
2.005621e+02,1.047981e+04
2.034548e+02,1.052143e+04
2.063475e+02,1.054102e+04
2.092402e+02,1.053519e+04
2.121329e+02,1.052192e+04
2.150256e+02,1.055253e+04
2.179183e+02,1.055927e+04
2.208110e+02,1.062045e+04
2.237037e+02,1.060906e+04
2.265964e+02,1.059082e+04
2.294892e+02,1.061302e+04
2.323819e+02,1.063925e+04
2.352746e+02,1.065494e+04
2.381673e+02,1.068169e+04
2.410600e+02,1.067985e+04
2.439527e+02,1.067375e+04
2.468454e+02,1.070726e+04
2.497381e+02,1.073451e+04
2.526308e+02,1.075554e+04
2.555235e+02,1.073219e+04
2.584161e+02,1.072625e+04
2.613088e+02,1.077167e+04
2.642015e+02,1.077280e+04
2.670942e+02,1.076783e+04
2.699869e+02,1.077077e+04
2.728796e+02,1.075815e+04
2.757723e+02,1.077065e+04
2.786650e+02,1.077496e+04
2.815577e+02,1.076557e+04
2.844504e+02,1.076215e+04
2.873431e+02,1.072363e+04
2.902358e+02,1.072950e+04
2.931285e+02,1.073638e+04
2.960212e+02,1.074777e+04
2.989139e+02,1.073369e+04
3.018066e+02,1.073176e+04
3.046993e+02,1.073258e+04
3.075920e+02,1.071934e+04
3.104847e+02,1.071720e+04
3.133774e+02,1.073979e+04
3.162701e+02,1.072921e+04
3.191628e+02,1.071199e+04
3.220555e+02,1.070771e+04
3.249482e+02,1.072654e+04
3.278409e+02,1.074215e+04
3.307336e+02,1.073161e+04
3.336263e+02,1.071050e+04
3.365190e+02,1.067988e+04
3.394117e+02,1.063756e+04
3.423044e+02,1.067777e+04
3.451971e+02,1.059201e+04
3.480898e+02,1.058271e+04
3.509825e+02,1.058637e+04
3.538752e+02,1.055213e+04
3.567680e+02,1.059982e+04
3.596607e+02,1.056830e+04
3.625534e+02,1.055713e+04
3.654461e+02,1.049110e+04
3.683388e+02,1.048761e+04
3.712315e+02,1.047922e+04
3.741242e+02,1.044778e+04
3.770169e+02,1.045884e+04
3.799096e+02,1.043769e+04
3.828023e+02,1.039153e+04
3.856950e+02,1.036468e+04
3.885877e+02,1.033124e+04
3.914804e+02,1.030760e+04
3.943731e+02,1.030294e+04
3.972658e+02,1.028320e+04
4.001585e+02,1.023976e+04
4.030512e+02,1.026766e+04
4.059439e+02,1.023603e+04
4.088366e+02,1.019660e+04
4.117293e+02,1.014457e+04
4.146220e+02,1.012678e+04
4.175147e+02,1.013781e+04
4.204074e+02,1.011967e+04
4.233001e+02,1.006675e+04
4.261928e+02,1.008036e+04
4.290855e+02,1.003430e+04
4.319782e+02,1.001328e+04
4.348709e+02,9.997734e+03
4.377636e+02,9.979540e+03
4.406563e+02,9.953975e+03
4.435490e+02,9.903125e+03
4.464417e+02,9.922266e+03
4.493344e+02,9.881799e+03
4.522271e+02,9.895350e+03
4.551198e+02,9.874671e+03
4.580125e+02,9.812031e+03
4.609052e+02,9.800932e+03
4.637979e+02,9.785998e+03
4.666906e+02,9.758488e+03
4.695833e+02,9.746673e+03
4.724760e+02,9.706657e+03
4.753687e+02,9.689920e+03
4.782614e+02,9.677428e+03
4.811541e+02,9.653317e+03
4.840468e+02,9.673665e+03
4.869395e+02,9.634637e+03
4.898322e+02,9.651173e+03
4.927249e+02,9.614129e+03
4.956176e+02,9.568974e+03
4.985103e+02,9.550809e+03
5.014030e+02,9.524831e+03
5.042957e+02,9.496098e+03
5.071884e+02,9.480746e+03
5.100811e+02,9.501582e+03
5.129738e+02,9.487698e+03
5.158665e+02,9.443382e+03
5.187592e+02,9.399384e+03
5.216519e+02,9.384514e+03
5.245446e+02,9.375144e+03
5.274373e+02,9.349800e+03
5.303300e+02,9.354884e+03
5.332227e+02,9.311380e+03
5.361154e+02,9.295538e+03
5.390081e+02,9.257504e+03
5.419008e+02,9.229590e+03
5.447935e+02,9.246196e+03
5.476862e+02,9.238357e+03
5.505789e+02,9.193354e+03
5.534716e+02,9.169645e+03
5.563643e+02,9.160989e+03
5.592570e+02,9.168064e+03
5.621497e+02,9.159803e+03
5.650424e+02,9.110235e+03
5.679351e+02,9.084872e+03
5.708278e+02,9.046199e+03
5.737205e+02,9.072494e+03
5.766132e+02,9.042340e+03
5.795059e+02,9.007575e+03
5.823986e+02,9.018757e+03
5.852913e+02,8.957097e+03
5.881840e+02,8.964025e+03
5.910767e+02,8.959196e+03
5.939694e+02,8.933493e+03
5.968621e+02,8.937892e+03
5.997548e+02,8.906798e+03
6.026475e+02,8.888059e+03
6.055402e+02,8.884949e+03
6.084329e+02,8.883654e+03
6.113256e+02,8.859942e+03
6.142183e+02,8.806589e+03
6.171110e+02,8.772466e+03
6.200037e+02,8.782972e+03
6.228964e+02,8.771218e+03
6.257891e+02,8.786348e+03
6.286818e+02,8.764871e+03
6.315745e+02,8.728530e+03
6.344672e+02,8.700502e+03
6.373599e+02,8.689632e+03
6.402526e+02,8.677343e+03
6.431453e+02,8.657563e+03
6.460380e+02,8.625651e+03
6.489307e+02,8.605895e+03
6.518234e+02,8.599019e+03
6.547161e+02,8.578927e+03
6.576088e+02,8.538098e+03
6.605015e+02,8.539252e+03
6.633942e+02,8.526271e+03
6.662869e+02,8.520415e+03
6.691796e+02,8.522807e+03
6.720723e+02,8.513731e+03
6.749650e+02,8.473802e+03
6.778577e+02,8.430347e+03
6.807504e+02,8.430506e+03
6.836431e+02,8.431729e+03
6.865358e+02,8.424671e+03
6.894285e+02,8.392525e+03
6.923212e+02,8.343977e+03
6.952139e+02,8.331355e+03
6.981066e+02,8.347529e+03
7.009993e+02,8.343003e+03
7.038920e+02,8.319012e+03
7.067847e+02,8.260712e+03
7.096774e+02,8.264048e+03
7.125701e+02,8.271584e+03
7.154628e+02,8.282154e+03
7.183555e+02,8.247767e+03
7.212482e+02,8.225567e+03
7.241409e+02,8.214171e+03
7.270336e+02,8.189446e+03
7.299263e+02,8.183160e+03
7.328190e+02,8.174073e+03
7.357117e+02,8.150995e+03
7.386044e+02,8.110590e+03
7.414971e+02,8.108236e+03
7.443898e+02,8.100033e+03
7.472825e+02,8.105185e+03
7.501752e+02,8.058667e+03
7.530679e+02,8.069369e+03
7.559606e+02,8.031169e+03
7.588533e+02,8.021258e+03
7.617460e+02,8.024503e+03
7.646387e+02,7.991772e+03
7.675314e+02,7.965499e+03
7.704241e+02,7.943771e+03
7.733168e+02,7.919256e+03
7.762095e+02,7.946813e+03
7.791022e+02,7.920667e+03
7.819949e+02,7.905141e+03
7.848876e+02,7.896799e+03
7.877803e+02,7.892161e+03
7.906730e+02,7.851705e+03
7.935657e+02,7.867412e+03
7.964584e+02,7.829347e+03
7.993511e+02,7.801932e+03
8.022438e+02,7.770919e+03
8.051365e+02,7.774959e+03
8.080292e+02,7.777687e+03
8.109219e+02,7.755264e+03
8.138146e+02,7.758924e+03
8.167073e+02,7.710049e+03
8.196000e+02,7.721757e+03
8.224927e+02,7.729603e+03
8.253854e+02,7.686172e+03
8.282781e+02,7.693852e+03
8.311708e+02,7.657976e+03
8.340635e+02,7.651696e+03
8.369562e+02,7.630250e+03
8.398489e+02,7.638034e+03
8.427416e+02,7.660967e+03
8.456343e+02,7.585128e+03
8.485270e+02,7.598115e+03
8.514197e+02,7.555263e+03
8.543124e+02,7.559947e+03
8.572051e+02,7.549328e+03
8.600978e+02,7.535047e+03
8.629905e+02,7.516998e+03
8.658832e+02,7.496459e+03
8.687759e+02,7.481480e+03
8.716686e+02,7.451800e+03
8.745613e+02,7.442833e+03
8.774540e+02,7.428139e+03
8.803467e+02,7.443345e+03
8.832394e+02,7.437295e+03
8.861321e+02,7.408550e+03
8.890248e+02,7.415971e+03
8.919175e+02,7.359282e+03
8.948102e+02,7.348749e+03
8.977029e+02,7.368778e+03
9.005956e+02,7.335923e+03
9.034883e+02,7.317276e+03
9.063810e+02,7.307784e+03
9.092737e+02,7.293596e+03
9.121664e+02,7.295803e+03
9.150591e+02,7.271944e+03
9.179518e+02,7.282618e+03
9.208445e+02,7.221433e+03
9.237372e+02,7.212746e+03
9.266299e+02,7.195227e+03
9.295226e+02,7.181562e+03
9.324153e+02,7.182702e+03
9.353080e+02,7.184898e+03
9.382007e+02,7.149635e+03
9.410934e+02,7.130796e+03
9.439861e+02,7.116921e+03
9.468788e+02,7.120222e+03
9.497715e+02,7.116269e+03
9.526642e+02,7.079669e+03
9.555569e+02,7.068000e+03
9.584496e+02,7.053183e+03
9.613423e+02,7.065163e+03
9.642350e+02,7.030110e+03
9.671277e+02,7.053409e+03
9.700204e+02,7.005343e+03
9.729131e+02,6.968634e+03
9.758058e+02,6.989674e+03
9.786985e+02,6.980007e+03
9.815912e+02,6.956166e+03
9.844839e+02,6.932083e+03
9.873766e+02,6.918675e+03
9.902693e+02,6.901518e+03
9.931620e+02,6.925401e+03
9.960547e+02,6.927187e+03
9.989474e+02,6.889370e+03
1.001840e+03,6.870417e+03
1.004733e+03,6.847037e+03
1.007626e+03,6.861072e+03
1.010518e+03,6.822811e+03
1.013411e+03,6.822885e+03
1.016304e+03,6.774688e+03
1.019196e+03,6.788400e+03
1.022089e+03,6.790414e+03
1.024982e+03,6.767926e+03
1.027875e+03,6.765088e+03
1.030767e+03,6.727653e+03
1.033660e+03,6.715967e+03
1.036552e+03,6.710319e+03
1.039445e+03,6.697651e+03
1.042338e+03,6.718335e+03
1.045231e+03,6.681443e+03
1.048123e+03,6.659658e+03
1.051016e+03,6.643331e+03
1.053909e+03,6.644757e+03
1.056802e+03,6.639221e+03
1.059694e+03,6.626473e+03
1.062587e+03,6.597392e+03
1.065479e+03,6.611749e+03
1.068372e+03,6.594814e+03
1.071265e+03,6.595075e+03
1.074158e+03,6.582713e+03
1.077050e+03,6.533106e+03
1.079943e+03,6.556172e+03
1.082836e+03,6.565728e+03
1.085729e+03,6.549813e+03
1.088621e+03,6.550575e+03
1.091514e+03,6.552396e+03
1.094406e+03,6.504420e+03
1.097299e+03,6.506453e+03
1.100192e+03,6.475216e+03
1.103085e+03,6.481395e+03
1.105977e+03,6.481509e+03
1.108870e+03,6.438948e+03
1.111763e+03,6.426691e+03
1.114656e+03,6.435967e+03
1.117548e+03,6.417685e+03
1.120441e+03,6.432446e+03
1.123334e+03,6.417999e+03
1.126226e+03,6.377092e+03
1.129119e+03,6.382974e+03
1.132012e+03,6.393508e+03
1.134904e+03,6.366994e+03
1.137797e+03,6.342313e+03
1.140690e+03,6.310556e+03
1.143583e+03,6.315390e+03
1.146475e+03,6.305249e+03
1.149368e+03,6.284212e+03
1.152261e+03,6.304047e+03
1.155153e+03,6.284030e+03
1.158046e+03,6.245874e+03
1.160939e+03,6.224265e+03
1.163831e+03,6.229638e+03
1.166724e+03,6.213632e+03
1.169617e+03,6.189728e+03
1.172510e+03,6.191809e+03
1.175402e+03,6.179745e+03
1.178295e+03,6.183642e+03
1.181188e+03,6.172891e+03
1.184080e+03,6.146866e+03
1.186973e+03,6.134800e+03
1.189866e+03,6.117065e+03
1.192758e+03,6.110399e+03
1.195651e+03,6.117979e+03
1.198544e+03,6.104134e+03
1.201437e+03,6.068150e+03
1.204329e+03,6.074363e+03
1.207222e+03,6.072689e+03
1.210115e+03,6.081788e+03
1.213007e+03,6.060530e+03
1.215900e+03,6.007877e+03
1.218793e+03,5.995950e+03
1.221685e+03,5.996244e+03
1.224578e+03,6.010047e+03
1.227471e+03,5.979644e+03
1.230364e+03,5.973367e+03
1.233256e+03,5.938333e+03
1.236149e+03,5.938721e+03
1.239042e+03,5.938872e+03
1.241934e+03,5.935106e+03
1.244827e+03,5.925589e+03
1.247720e+03,5.917627e+03
1.250612e+03,5.894833e+03
1.253505e+03,5.876542e+03
1.256398e+03,5.864514e+03
1.259291e+03,5.860598e+03
1.262183e+03,5.861013e+03
1.265076e+03,5.845287e+03
1.267969e+03,5.815610e+03
1.270861e+03,5.851285e+03
1.273754e+03,5.831286e+03
1.276647e+03,5.826789e+03
1.279539e+03,5.808424e+03
1.282432e+03,5.796346e+03
1.285325e+03,5.789539e+03
1.288218e+03,5.789767e+03
1.291110e+03,5.766628e+03
1.294003e+03,5.751597e+03
1.296896e+03,5.722847e+03
1.299788e+03,5.712697e+03
1.302681e+03,5.711650e+03
1.305574e+03,5.691443e+03
1.308466e+03,5.700901e+03
1.311359e+03,5.687754e+03
1.314252e+03,5.663523e+03
1.317145e+03,5.660726e+03
1.320037e+03,5.652474e+03
1.322930e+03,5.651835e+03
1.325823e+03,5.627723e+03
1.328715e+03,5.629679e+03
1.331608e+03,5.630430e+03
1.334501e+03,5.634889e+03
1.337393e+03,5.619823e+03
1.340286e+03,5.600360e+03
1.343179e+03,5.573621e+03
1.346072e+03,5.571338e+03
1.348964e+03,5.573007e+03
1.351857e+03,5.556876e+03
1.354750e+03,5.555011e+03
1.357642e+03,5.540052e+03
1.360535e+03,5.512627e+03
1.363428e+03,5.505042e+03
1.366320e+03,5.514232e+03
1.369213e+03,5.500731e+03
1.372106e+03,5.490632e+03
1.374999e+03,5.476524e+03
1.377891e+03,5.461964e+03
1.380784e+03,5.440606e+03
1.383677e+03,5.445042e+03
1.386569e+03,5.422218e+03
1.389462e+03,5.401006e+03
1.392355e+03,5.388726e+03
1.395247e+03,5.384155e+03
1.398140e+03,5.403865e+03
1.401033e+03,5.372014e+03
1.403926e+03,5.369396e+03
1.406818e+03,5.350450e+03
1.409711e+03,5.342922e+03
1.412604e+03,5.334549e+03
1.415496e+03,5.331014e+03
1.418389e+03,5.308018e+03
1.421282e+03,5.291054e+03
1.424174e+03,5.273970e+03
1.427067e+03,5.286515e+03
1.429960e+03,5.277195e+03
1.432853e+03,5.234561e+03
1.435745e+03,5.213580e+03
1.438638e+03,5.195002e+03
1.441531e+03,5.188538e+03
1.444423e+03,5.202068e+03
1.447316e+03,5.184079e+03
1.450209e+03,5.154892e+03
1.453101e+03,5.167073e+03
1.455994e+03,5.142591e+03
1.458887e+03,5.140693e+03
1.461780e+03,5.134781e+03
1.464672e+03,5.150728e+03
1.467565e+03,5.107042e+03
1.470458e+03,5.121219e+03
1.473350e+03,5.098928e+03
1.476243e+03,5.092071e+03
1.479136e+03,5.084415e+03
1.482028e+03,5.042637e+03
1.484921e+03,5.057481e+03
1.487814e+03,5.063775e+03
1.490707e+03,5.052220e+03
1.493599e+03,5.046312e+03
1.496492e+03,5.007414e+03
1.499385e+03,4.984616e+03
1.502277e+03,4.999037e+03
1.505170e+03,4.986666e+03
1.508063e+03,4.986384e+03
1.510955e+03,4.972468e+03
1.513848e+03,4.956690e+03
1.516741e+03,4.948090e+03
1.519634e+03,4.952570e+03
1.522526e+03,4.930935e+03
1.525419e+03,4.937132e+03
1.528312e+03,4.905368e+03
1.531204e+03,4.900348e+03
1.534097e+03,4.889268e+03
1.536990e+03,4.888471e+03
1.539882e+03,4.883314e+03
1.542775e+03,4.868208e+03
1.545668e+03,4.836285e+03
1.548561e+03,4.872026e+03
1.551453e+03,4.838774e+03
1.554346e+03,4.835814e+03
1.557239e+03,4.825772e+03
1.560131e+03,4.820720e+03
1.563024e+03,4.801596e+03
1.565917e+03,4.796258e+03
1.568809e+03,4.806769e+03
1.571702e+03,4.786455e+03
1.574595e+03,4.786342e+03
1.577488e+03,4.750041e+03
1.580380e+03,4.769800e+03
1.583273e+03,4.777481e+03
1.586166e+03,4.762783e+03
1.589058e+03,4.727698e+03
1.591951e+03,4.725833e+03
1.594844e+03,4.723654e+03
1.597736e+03,4.701283e+03
1.600629e+03,4.691780e+03
1.603522e+03,4.668622e+03
1.606415e+03,4.653147e+03
1.609307e+03,4.640445e+03
1.612200e+03,4.659090e+03
1.615093e+03,4.619682e+03
1.617985e+03,4.638467e+03
1.620878e+03,4.616295e+03
1.623771e+03,4.573955e+03
1.626663e+03,4.580557e+03
1.629556e+03,4.566732e+03
1.632449e+03,4.548223e+03
1.635342e+03,4.526756e+03
1.638234e+03,4.539901e+03
1.641127e+03,4.514875e+03
1.644020e+03,4.516588e+03
1.646912e+03,4.500992e+03
1.649805e+03,4.488640e+03
1.652698e+03,4.488031e+03
1.655590e+03,4.467910e+03
1.658483e+03,4.469450e+03
1.661376e+03,4.449585e+03
1.664269e+03,4.465759e+03
1.667161e+03,4.429229e+03
1.670054e+03,4.418980e+03
1.672947e+03,4.411665e+03
1.675839e+03,4.421448e+03
1.678732e+03,4.397369e+03
1.681625e+03,4.387953e+03
1.684517e+03,4.368595e+03
1.687410e+03,4.363867e+03
1.690303e+03,4.362951e+03
1.693196e+03,4.373660e+03
1.696088e+03,4.355474e+03
1.698981e+03,4.333959e+03
1.701874e+03,4.307162e+03
1.704766e+03,4.312217e+03
1.707659e+03,4.299111e+03
1.710552e+03,4.291758e+03
1.713444e+03,4.240012e+03
1.716337e+03,4.245824e+03
1.719230e+03,4.272537e+03
1.722123e+03,4.265147e+03
1.725015e+03,4.220072e+03
1.727908e+03,4.223220e+03
1.730801e+03,4.221042e+03
1.733693e+03,4.210552e+03
1.736586e+03,4.205976e+03
1.739479e+03,4.199448e+03
1.742371e+03,4.185116e+03
1.745264e+03,4.188948e+03
1.748157e+03,4.158237e+03
1.751050e+03,4.167602e+03
1.753942e+03,4.147931e+03
1.756835e+03,4.133770e+03
1.759728e+03,4.124954e+03
1.762620e+03,4.116075e+03
1.765513e+03,4.094556e+03
1.768406e+03,4.109865e+03
1.771298e+03,4.101301e+03
1.774191e+03,4.069108e+03
1.777084e+03,4.051463e+03
1.779977e+03,4.027094e+03
1.782869e+03,4.041558e+03
1.785762e+03,4.044774e+03
1.788655e+03,4.016558e+03
1.791547e+03,4.019039e+03
1.794440e+03,3.993563e+03
1.797333e+03,4.017708e+03
1.800225e+03,4.008078e+03
1.803118e+03,4.003625e+03
1.806011e+03,3.983965e+03
1.808904e+03,3.957337e+03
1.811796e+03,3.961239e+03
1.814689e+03,3.955379e+03
1.817582e+03,3.953419e+03
1.820474e+03,3.901586e+03
1.823367e+03,3.885949e+03
1.826260e+03,3.908581e+03
1.829152e+03,3.879711e+03
1.832045e+03,3.902622e+03
1.834938e+03,3.896280e+03
1.837831e+03,3.879185e+03
1.840723e+03,3.839375e+03
1.843616e+03,3.861739e+03
1.846509e+03,3.838230e+03
1.849401e+03,3.818667e+03
1.852294e+03,3.818894e+03
1.855187e+03,3.821636e+03
1.858079e+03,3.822728e+03
1.860972e+03,3.806400e+03
1.863865e+03,3.817616e+03
1.866758e+03,3.766037e+03
1.869650e+03,3.745021e+03
1.872543e+03,3.770225e+03
1.875436e+03,3.764344e+03
1.878328e+03,3.751817e+03
1.881221e+03,3.723922e+03
1.884114e+03,3.700290e+03
1.887006e+03,3.711797e+03
1.889899e+03,3.738786e+03
1.892792e+03,3.683526e+03
1.895685e+03,3.701336e+03
1.898577e+03,3.674358e+03
1.901470e+03,3.655676e+03
1.904363e+03,3.643659e+03
1.907255e+03,3.651599e+03
1.910148e+03,3.640186e+03
1.913041e+03,3.630850e+03
1.915933e+03,3.589573e+03
1.918826e+03,3.601353e+03
1.921719e+03,3.598312e+03
1.924612e+03,3.579933e+03
1.927504e+03,3.572986e+03
1.930397e+03,3.571543e+03
1.933290e+03,3.557379e+03
1.936182e+03,3.547814e+03
1.939075e+03,3.557062e+03
1.941968e+03,3.540468e+03
1.944860e+03,3.501716e+03
1.947753e+03,3.489180e+03
1.950646e+03,3.512000e+03
1.953539e+03,3.508021e+03
1.956431e+03,3.496204e+03
1.959324e+03,3.485807e+03
1.962217e+03,3.472860e+03
1.965109e+03,3.450636e+03
1.968002e+03,3.455284e+03
1.970895e+03,3.427222e+03
1.973787e+03,3.426829e+03
1.976680e+03,3.402780e+03
1.979573e+03,3.395495e+03
1.982466e+03,3.407062e+03
1.985358e+03,3.394624e+03
1.988251e+03,3.379079e+03
1.991144e+03,3.369426e+03
1.994036e+03,3.364837e+03
1.996929e+03,3.404393e+03
1.999822e+03,3.353755e+03
2.002714e+03,3.350320e+03
2.005607e+03,3.325623e+03
2.008500e+03,3.315708e+03
2.011393e+03,3.299717e+03
2.014285e+03,3.302300e+03
2.017178e+03,3.265429e+03
2.020071e+03,3.282173e+03
2.022963e+03,3.271184e+03
2.025856e+03,3.260145e+03
2.028749e+03,3.280019e+03
2.031641e+03,3.250007e+03
2.034534e+03,3.268273e+03
2.037427e+03,3.228544e+03
2.040320e+03,3.217288e+03
2.043212e+03,3.224944e+03
2.046105e+03,3.214244e+03
2.048998e+03,3.198125e+03
2.051890e+03,3.187744e+03
2.054783e+03,3.202926e+03
2.057676e+03,3.164483e+03
2.060568e+03,3.169410e+03
2.063461e+03,3.153066e+03
2.066354e+03,3.151288e+03
2.069247e+03,3.134945e+03
2.072139e+03,3.116970e+03
2.075032e+03,3.105394e+03
2.077925e+03,3.119548e+03
2.080817e+03,3.122523e+03
2.083710e+03,3.080876e+03
2.086603e+03,3.060848e+03
2.089496e+03,3.088238e+03
2.092388e+03,3.076943e+03
2.095281e+03,3.061307e+03
2.098174e+03,3.052078e+03
2.101066e+03,3.039707e+03
2.103959e+03,3.028404e+03
2.106852e+03,3.029383e+03
2.109744e+03,3.036795e+03
2.112637e+03,2.998250e+03
2.115530e+03,2.991774e+03
2.118422e+03,2.971002e+03
2.121315e+03,3.015645e+03
2.124208e+03,2.987728e+03
2.127101e+03,2.967717e+03
2.129993e+03,2.965917e+03
2.132886e+03,2.955317e+03
2.135779e+03,2.944257e+03
2.138671e+03,2.937634e+03
2.141564e+03,2.931757e+03
2.144457e+03,2.916178e+03
2.147350e+03,2.892189e+03
2.150242e+03,2.891903e+03
2.153135e+03,2.900713e+03
2.156028e+03,2.866008e+03
2.158920e+03,2.887671e+03
2.161813e+03,2.857118e+03
2.164706e+03,2.873585e+03
2.167598e+03,2.837310e+03
2.170491e+03,2.861849e+03
2.173384e+03,2.826456e+03
2.176277e+03,2.822957e+03
2.179169e+03,2.823617e+03
2.182062e+03,2.815440e+03
2.184955e+03,2.792244e+03
2.187847e+03,2.794553e+03
2.190740e+03,2.797233e+03
2.193633e+03,2.765192e+03
2.196525e+03,2.757719e+03
2.199418e+03,2.758065e+03
2.202311e+03,2.768337e+03
2.205204e+03,2.764024e+03
2.208096e+03,2.741687e+03
2.210989e+03,2.708953e+03
2.213882e+03,2.710890e+03
2.216774e+03,2.737175e+03
2.219667e+03,2.692583e+03
2.222560e+03,2.708316e+03
2.225452e+03,2.674266e+03
2.228345e+03,2.686703e+03
2.231238e+03,2.678356e+03
2.234131e+03,2.684342e+03
2.237023e+03,2.678068e+03
2.239916e+03,2.635755e+03
2.242809e+03,2.640452e+03
2.245701e+03,2.650006e+03
2.248594e+03,2.615435e+03
2.251487e+03,2.633243e+03
2.254379e+03,2.617228e+03
2.257272e+03,2.604395e+03
2.260165e+03,2.577982e+03
2.263058e+03,2.617312e+03
2.265950e+03,2.577499e+03
2.268843e+03,2.573336e+03
2.271736e+03,2.541734e+03
2.274628e+03,2.560698e+03
2.277521e+03,2.543058e+03
2.280414e+03,2.541195e+03
2.283306e+03,2.532979e+03
2.286199e+03,2.511977e+03
2.289092e+03,2.509482e+03
2.291985e+03,2.499011e+03
2.294877e+03,2.530392e+03
2.297770e+03,2.489538e+03
2.300663e+03,2.483189e+03
2.303555e+03,2.485216e+03
2.306448e+03,2.458611e+03
2.309341e+03,2.457634e+03
2.312233e+03,2.440437e+03
2.315126e+03,2.454836e+03
2.318019e+03,2.417692e+03
2.320912e+03,2.438712e+03
2.323804e+03,2.449948e+03
2.326697e+03,2.424688e+03
2.329590e+03,2.429298e+03
2.332482e+03,2.418419e+03
2.335375e+03,2.403432e+03
2.338268e+03,2.391124e+03
2.341160e+03,2.407931e+03
2.344053e+03,2.386392e+03
2.346946e+03,2.372530e+03
2.349839e+03,2.370657e+03
2.352731e+03,2.358507e+03
2.355624e+03,2.354190e+03
2.358517e+03,2.359854e+03
2.361409e+03,2.372690e+03
2.364302e+03,2.335626e+03
2.367195e+03,2.307077e+03
2.370087e+03,2.326984e+03
2.372980e+03,2.321961e+03
2.375873e+03,2.293151e+03
2.378766e+03,2.312207e+03
2.381658e+03,2.275919e+03
2.384551e+03,2.284134e+03
2.387444e+03,2.283583e+03
2.390336e+03,2.299264e+03
2.393229e+03,2.275867e+03
2.396122e+03,2.271458e+03
2.399014e+03,2.259676e+03
2.401907e+03,2.243994e+03
2.404800e+03,2.248155e+03
2.407693e+03,2.239820e+03
2.410585e+03,2.234978e+03
2.413478e+03,2.231355e+03
2.416371e+03,2.218616e+03
2.419263e+03,2.185603e+03
2.422156e+03,2.205350e+03
2.425049e+03,2.191281e+03
2.427941e+03,2.179289e+03
2.430834e+03,2.202568e+03
2.433727e+03,2.163808e+03
2.436620e+03,2.168562e+03
2.439512e+03,2.176101e+03
2.442405e+03,2.142246e+03
2.445298e+03,2.158903e+03
2.448190e+03,2.142703e+03
2.451083e+03,2.142393e+03
2.453976e+03,2.177162e+03
2.456868e+03,2.140845e+03
2.459761e+03,2.120429e+03
2.462654e+03,2.131615e+03
2.465547e+03,2.119772e+03
2.468439e+03,2.092832e+03
2.471332e+03,2.110442e+03
2.474225e+03,2.085241e+03
2.477117e+03,2.103052e+03
2.480010e+03,2.102978e+03
2.482903e+03,2.092038e+03
2.485795e+03,2.068149e+03
2.488688e+03,2.055519e+03
2.491581e+03,2.092098e+03
2.494474e+03,2.076242e+03
2.497366e+03,2.057217e+03
2.500259e+03,2.048850e+03
2.503152e+03,2.056219e+03
2.506044e+03,2.017389e+03
2.508937e+03,2.029313e+03
2.511830e+03,2.022509e+03
2.514722e+03,2.045994e+03
2.517615e+03,2.034212e+03
2.520508e+03,2.014175e+03
2.523401e+03,2.017335e+03
2.526293e+03,2.011955e+03
2.529186e+03,2.040495e+03
2.532079e+03,2.006516e+03
2.534971e+03,1.986409e+03
2.537864e+03,1.998456e+03
2.540757e+03,1.978592e+03
2.543649e+03,1.989707e+03
2.546542e+03,1.957133e+03
2.549435e+03,1.974171e+03
2.552328e+03,1.969047e+03
2.555220e+03,1.968185e+03
2.558113e+03,1.941289e+03
2.561006e+03,1.960222e+03
2.563898e+03,1.959618e+03
2.566791e+03,1.945026e+03
2.569684e+03,1.939990e+03
2.572576e+03,1.930904e+03
2.575469e+03,1.943498e+03
2.578362e+03,1.904177e+03
2.581255e+03,1.904280e+03
2.584147e+03,1.901198e+03
2.587040e+03,1.896455e+03
2.589933e+03,1.924492e+03
2.592825e+03,1.913261e+03
2.595718e+03,1.895738e+03
2.598611e+03,1.899015e+03
2.601503e+03,1.870876e+03
2.604396e+03,1.892457e+03
2.607289e+03,1.867308e+03
2.610182e+03,1.875558e+03
2.613074e+03,1.865368e+03
2.615967e+03,1.856754e+03
2.618860e+03,1.869010e+03
2.621752e+03,1.866030e+03
2.624645e+03,1.861026e+03
2.627538e+03,1.860277e+03
2.630430e+03,1.851185e+03
2.633323e+03,1.832902e+03
2.636216e+03,1.829485e+03
2.639109e+03,1.829457e+03
2.642001e+03,1.851694e+03
2.644894e+03,1.805198e+03
2.647787e+03,1.844292e+03
2.650679e+03,1.808013e+03
2.653572e+03,1.823803e+03
2.656465e+03,1.821922e+03
2.659357e+03,1.797114e+03
2.662250e+03,1.794004e+03
2.665143e+03,1.781148e+03
2.668036e+03,1.817894e+03
2.670928e+03,1.778218e+03
2.673821e+03,1.775811e+03
2.676714e+03,1.783369e+03
2.679606e+03,1.760133e+03
2.682499e+03,1.796135e+03
2.685392e+03,1.770943e+03
2.688284e+03,1.762887e+03
2.691177e+03,1.763076e+03
2.694070e+03,1.759053e+03
2.696963e+03,1.745205e+03
2.699855e+03,1.733366e+03
2.702748e+03,1.736010e+03
2.705641e+03,1.746326e+03
2.708533e+03,1.758055e+03
2.711426e+03,1.723170e+03
2.714319e+03,1.716073e+03
2.717211e+03,1.713825e+03
2.720104e+03,1.714034e+03
2.722997e+03,1.688146e+03
2.725890e+03,1.696350e+03
2.728782e+03,1.697566e+03
2.731675e+03,1.691852e+03
2.734568e+03,1.698227e+03
2.737460e+03,1.699524e+03
2.740353e+03,1.698378e+03
2.743246e+03,1.702209e+03
2.746138e+03,1.702857e+03
2.749031e+03,1.668350e+03
2.751924e+03,1.689124e+03
2.754817e+03,1.696209e+03
2.757709e+03,1.650859e+03
2.760602e+03,1.661034e+03
2.763495e+03,1.679617e+03
2.766387e+03,1.653662e+03
2.769280e+03,1.629174e+03
2.772173e+03,1.674508e+03
2.775065e+03,1.681107e+03
2.777958e+03,1.632286e+03
2.780851e+03,1.650792e+03
2.783744e+03,1.647619e+03
2.786636e+03,1.623485e+03
2.789529e+03,1.646673e+03
2.792422e+03,1.634474e+03
2.795314e+03,1.610669e+03
2.798207e+03,1.627275e+03
2.801100e+03,1.625692e+03
2.803992e+03,1.587186e+03
2.806885e+03,1.625346e+03
2.809778e+03,1.586326e+03
2.812671e+03,1.584492e+03
2.815563e+03,1.611065e+03
2.818456e+03,1.588973e+03
2.821349e+03,1.584100e+03
2.824241e+03,1.611529e+03
2.827134e+03,1.585418e+03
2.830027e+03,1.612681e+03
2.832919e+03,1.603495e+03
2.835812e+03,1.574098e+03
2.838705e+03,1.608519e+03
2.841598e+03,1.598811e+03
2.844490e+03,1.566217e+03
2.847383e+03,1.560538e+03
2.850276e+03,1.587861e+03
2.853168e+03,1.575181e+03
2.856061e+03,1.575054e+03
2.858954e+03,1.589858e+03
2.861846e+03,1.579932e+03
2.864739e+03,1.601330e+03
2.867632e+03,1.589719e+03
2.870525e+03,1.564896e+03
2.873417e+03,1.582499e+03
2.876310e+03,1.561891e+03
2.879203e+03,1.560968e+03
2.882095e+03,1.553787e+03
2.884988e+03,1.547721e+03
2.887881e+03,1.587567e+03
2.890773e+03,1.540868e+03
2.893666e+03,1.570153e+03
2.896559e+03,1.544754e+03
2.899452e+03,1.580023e+03
2.902344e+03,1.567272e+03
2.905237e+03,1.531998e+03
2.908130e+03,1.559563e+03
2.911022e+03,1.525036e+03
2.913915e+03,1.515879e+03
2.916808e+03,1.523954e+03
2.919700e+03,1.521774e+03
2.922593e+03,1.514162e+03
2.925486e+03,1.513849e+03
2.928379e+03,1.497695e+03
2.931271e+03,1.511346e+03
2.934164e+03,1.505894e+03
2.937057e+03,1.536599e+03
2.939949e+03,1.492128e+03
2.942842e+03,1.521881e+03
2.945735e+03,1.489812e+03
2.948627e+03,1.512114e+03
2.951520e+03,1.504095e+03
2.954413e+03,1.496252e+03
2.957306e+03,1.521073e+03
2.960198e+03,1.510593e+03
2.963091e+03,1.512070e+03
2.965984e+03,1.476217e+03
2.968876e+03,1.472381e+03
2.971769e+03,1.444741e+03
2.974662e+03,1.463738e+03
2.977554e+03,1.482242e+03
2.980447e+03,1.437086e+03
2.983340e+03,1.478725e+03
2.986233e+03,1.467547e+03
2.989125e+03,1.451369e+03
2.992018e+03,1.458349e+03
2.994911e+03,1.442494e+03
2.997803e+03,1.482193e+03
3.000696e+03,1.442625e+03
3.003589e+03,1.430782e+03
3.006481e+03,1.426463e+03
3.009374e+03,1.443085e+03
3.012267e+03,1.414846e+03
3.015160e+03,1.437539e+03
3.018052e+03,1.455088e+03
3.020945e+03,1.427822e+03
3.023838e+03,1.414215e+03
3.026730e+03,1.431814e+03
3.029623e+03,1.396744e+03
3.032516e+03,1.416157e+03
3.035408e+03,1.455950e+03
3.038301e+03,1.405254e+03
3.041194e+03,1.435224e+03
3.044087e+03,1.406896e+03
3.046979e+03,1.412519e+03
3.049872e+03,1.427778e+03
3.052765e+03,1.394981e+03
3.055657e+03,1.416344e+03
3.058550e+03,1.435352e+03
3.061443e+03,1.378684e+03
3.064335e+03,1.407022e+03
3.067228e+03,1.389155e+03
3.070121e+03,1.390838e+03
3.073014e+03,1.394213e+03
3.075906e+03,1.425798e+03
3.078799e+03,1.365288e+03
3.081692e+03,1.411579e+03
3.084584e+03,1.421979e+03
3.087477e+03,1.392809e+03
3.090370e+03,1.420547e+03
3.093262e+03,1.363138e+03
3.096155e+03,1.404188e+03
3.099048e+03,1.434068e+03
3.101941e+03,1.426344e+03
3.104833e+03,1.411837e+03
3.107726e+03,1.428867e+03
3.110619e+03,1.368279e+03
3.113511e+03,1.421043e+03
3.116404e+03,1.378001e+03
3.119297e+03,1.407952e+03
3.122189e+03,1.420785e+03
3.125082e+03,1.383894e+03
3.127975e+03,1.383412e+03
3.130868e+03,1.341501e+03
3.133760e+03,1.368529e+03
3.136653e+03,1.425900e+03
3.139546e+03,1.418090e+03
3.142438e+03,1.420102e+03
3.145331e+03,1.399597e+03
3.148224e+03,1.416293e+03
3.151116e+03,1.384316e+03
3.154009e+03,1.391152e+03
3.156902e+03,1.390139e+03
3.159795e+03,1.409244e+03
3.162687e+03,1.396445e+03
3.165580e+03,1.425805e+03
3.168473e+03,1.354383e+03
3.171365e+03,1.374615e+03
3.174258e+03,1.394162e+03
3.177151e+03,1.385645e+03
3.180043e+03,1.385583e+03
3.182936e+03,1.396766e+03
3.185829e+03,1.362797e+03
3.188722e+03,1.363499e+03
3.191614e+03,1.453488e+03
3.194507e+03,1.379535e+03
3.197400e+03,1.410244e+03
3.200292e+03,1.464813e+03
3.203185e+03,0.000000e+00
3.206078e+03,0.000000e+00
3.208970e+03,0.000000e+00
3.211863e+03,0.000000e+00
3.214756e+03,0.000000e+00
3.217649e+03,0.000000e+00
3.220541e+03,0.000000e+00
3.223434e+03,0.000000e+00
3.226327e+03,0.000000e+00
3.229219e+03,0.000000e+00
3.232112e+03,0.000000e+00
3.235005e+03,0.000000e+00
3.237897e+03,0.000000e+00
3.240790e+03,0.000000e+00
3.243683e+03,0.000000e+00
3.246576e+03,0.000000e+00
3.249468e+03,0.000000e+00
3.252361e+03,0.000000e+00
3.255254e+03,0.000000e+00
3.258146e+03,0.000000e+00
3.261039e+03,0.000000e+00
3.263932e+03,0.000000e+00
3.266824e+03,0.000000e+00
3.269717e+03,0.000000e+00
3.272610e+03,0.000000e+00
3.275503e+03,0.000000e+00
3.278395e+03,0.000000e+00
3.281288e+03,0.000000e+00
3.284181e+03,0.000000e+00
3.287073e+03,0.000000e+00
3.289966e+03,0.000000e+00
3.292859e+03,0.000000e+00
3.295751e+03,0.000000e+00
3.298644e+03,0.000000e+00
3.301537e+03,0.000000e+00
3.304430e+03,0.000000e+00
3.307322e+03,0.000000e+00
3.310215e+03,0.000000e+00
3.313108e+03,0.000000e+00
3.316000e+03,0.000000e+00
3.318893e+03,0.000000e+00
3.321786e+03,0.000000e+00
3.324678e+03,0.000000e+00
3.327571e+03,0.000000e+00
3.330464e+03,0.000000e+00
3.333357e+03,0.000000e+00
3.336249e+03,0.000000e+00
3.339142e+03,0.000000e+00
3.342035e+03,0.000000e+00
3.344927e+03,0.000000e+00
3.347820e+03,0.000000e+00
3.350713e+03,0.000000e+00
3.353605e+03,0.000000e+00
3.356498e+03,0.000000e+00
3.359391e+03,0.000000e+00
3.362284e+03,0.000000e+00
3.365176e+03,0.000000e+00
3.368069e+03,0.000000e+00
3.370962e+03,0.000000e+00
3.373854e+03,0.000000e+00
3.376747e+03,0.000000e+00
3.379640e+03,0.000000e+00
3.382532e+03,0.000000e+00
3.385425e+03,0.000000e+00
3.388318e+03,0.000000e+00
3.391211e+03,0.000000e+00
3.394103e+03,0.000000e+00
3.396996e+03,0.000000e+00
3.399889e+03,0.000000e+00
3.402781e+03,0.000000e+00
3.405674e+03,0.000000e+00
3.408567e+03,0.000000e+00
3.411459e+03,0.000000e+00
3.414352e+03,0.000000e+00
3.417245e+03,0.000000e+00
3.420138e+03,0.000000e+00
3.423030e+03,0.000000e+00
3.425923e+03,0.000000e+00
3.428816e+03,0.000000e+00
3.431708e+03,0.000000e+00
3.434601e+03,0.000000e+00
3.437494e+03,0.000000e+00
3.440386e+03,0.000000e+00
3.443279e+03,0.000000e+00
3.446172e+03,0.000000e+00
3.449065e+03,0.000000e+00
3.451957e+03,0.000000e+00
3.454850e+03,0.000000e+00
3.457743e+03,0.000000e+00
3.460635e+03,0.000000e+00
3.463528e+03,0.000000e+00
3.466421e+03,0.000000e+00
3.469313e+03,0.000000e+00
3.472206e+03,0.000000e+00
3.475099e+03,0.000000e+00
3.477992e+03,0.000000e+00
3.480884e+03,0.000000e+00
3.483777e+03,0.000000e+00
3.486670e+03,0.000000e+00
3.489563e+03,0.000000e+00
3.492455e+03,0.000000e+00
3.495348e+03,0.000000e+00
3.498240e+03,0.000000e+00
3.500169e+03,0.000000e+00