File: RAMAN_data/13042023_r1/blue fibre1.CSV
9.931763e+01,0.000000e+00
1.022103e+02,0.000000e+00
1.051030e+02,0.000000e+00
1.079957e+02,0.000000e+00
1.108884e+02,0.000000e+00
1.137811e+02,0.000000e+00
1.166738e+02,0.000000e+00
1.195665e+02,0.000000e+00
1.224592e+02,0.000000e+00
1.253519e+02,0.000000e+00
1.282446e+02,0.000000e+00
1.311373e+02,0.000000e+00
1.340300e+02,0.000000e+00
1.369227e+02,0.000000e+00
1.398154e+02,0.000000e+00
1.427081e+02,0.000000e+00
1.456008e+02,0.000000e+00
1.484935e+02,0.000000e+00
1.513862e+02,0.000000e+00
1.542789e+02,0.000000e+00
1.571716e+02,0.000000e+00
1.600643e+02,0.000000e+00
1.629570e+02,0.000000e+00
1.658497e+02,0.000000e+00
1.687424e+02,0.000000e+00
1.716351e+02,0.000000e+00
1.745278e+02,0.000000e+00
1.774205e+02,0.000000e+00
1.803132e+02,0.000000e+00
1.832059e+02,0.000000e+00
1.860986e+02,0.000000e+00
1.889913e+02,0.000000e+00
1.918840e+02,0.000000e+00
1.947767e+02,0.000000e+00
1.976694e+02,0.000000e+00
2.005621e+02,1.010655e+04
2.034548e+02,1.014925e+04
2.063475e+02,1.015204e+04
2.092402e+02,1.012897e+04
2.121329e+02,1.012918e+04
2.150256e+02,1.011169e+04
2.179183e+02,1.013905e+04
2.208110e+02,1.014000e+04
2.237037e+02,1.013398e+04
2.265964e+02,1.013021e+04
2.294892e+02,1.014178e+04
2.323819e+02,1.015122e+04
2.352746e+02,1.017080e+04
2.381673e+02,1.017497e+04
2.410600e+02,1.014525e+04
2.439527e+02,1.014249e+04
2.468454e+02,1.016206e+04
2.497381e+02,1.017827e+04
2.526308e+02,1.019481e+04
2.555235e+02,1.018716e+04
2.584161e+02,1.014862e+04
2.613088e+02,1.016720e+04
2.642015e+02,1.018301e+04
2.670942e+02,1.017662e+04
2.699869e+02,1.020663e+04
2.728796e+02,1.019108e+04
2.757723e+02,1.020582e+04
2.786650e+02,1.021331e+04
2.815577e+02,1.026253e+04
2.844504e+02,1.023554e+04
2.873431e+02,1.020968e+04
2.902358e+02,1.021477e+04
2.931285e+02,1.022408e+04
2.960212e+02,1.022699e+04
2.989139e+02,1.023325e+04
3.018066e+02,1.023117e+04
3.046993e+02,1.021543e+04
3.075920e+02,1.022247e+04
3.104847e+02,1.023235e+04
3.133774e+02,1.026151e+04
3.162701e+02,1.024160e+04
3.191628e+02,1.024440e+04
3.220555e+02,1.023938e+04
3.249482e+02,1.024289e+04
3.278409e+02,1.019849e+04
3.307336e+02,1.013440e+04
3.336263e+02,1.018288e+04
3.365190e+02,1.015492e+04
3.394117e+02,1.015384e+04
3.423044e+02,1.003999e+04
3.451971e+02,1.013959e+04
3.480898e+02,1.013702e+04
3.509825e+02,1.007450e+04
3.538752e+02,1.007422e+04
3.567680e+02,1.008172e+04
3.596607e+02,1.007082e+04
3.625534e+02,1.006750e+04
3.654461e+02,1.001861e+04
3.683388e+02,9.970097e+03
3.712315e+02,9.983062e+03
3.741242e+02,9.982392e+03
3.770169e+02,9.967294e+03
3.799096e+02,9.934138e+03
3.828023e+02,9.895283e+03
3.856950e+02,9.886691e+03
3.885877e+02,9.927101e+03
3.914804e+02,9.882098e+03
3.943731e+02,9.874457e+03
3.972658e+02,9.800594e+03
4.001585e+02,9.826010e+03
4.030512e+02,9.805354e+03
4.059439e+02,9.797980e+03
4.088366e+02,9.801248e+03
4.117293e+02,9.765626e+03
4.146220e+02,9.742248e+03
4.175147e+02,9.744155e+03
4.204074e+02,9.759249e+03
4.233001e+02,9.686200e+03
4.261928e+02,9.681919e+03
4.290855e+02,9.659588e+03
4.319782e+02,9.614502e+03
4.348709e+02,9.617314e+03
4.377636e+02,9.591250e+03
4.406563e+02,9.586047e+03
4.435490e+02,9.561179e+03
4.464417e+02,9.528501e+03
4.493344e+02,9.532089e+03
4.522271e+02,9.500654e+03
4.551198e+02,9.525456e+03
4.580125e+02,9.452809e+03
4.609052e+02,9.441692e+03
4.637979e+02,9.434530e+03
4.666906e+02,9.439159e+03
4.695833e+02,9.415271e+03
4.724760e+02,9.396976e+03
4.753687e+02,9.393184e+03
4.782614e+02,9.357218e+03
4.811541e+02,9.331551e+03
4.840468e+02,9.311785e+03
4.869395e+02,9.311756e+03
4.898322e+02,9.276526e+03
4.927249e+02,9.278891e+03
4.956176e+02,9.231464e+03
4.985103e+02,9.251460e+03
5.014030e+02,9.219785e+03
5.042957e+02,9.203697e+03
5.071884e+02,9.212205e+03
5.100811e+02,9.175247e+03
5.129738e+02,9.172826e+03
5.158665e+02,9.180920e+03
5.187592e+02,9.163814e+03
5.216519e+02,9.119255e+03
5.245446e+02,9.118375e+03
5.274373e+02,9.083109e+03
5.303300e+02,9.081045e+03
5.332227e+02,9.078234e+03
5.361154e+02,9.030934e+03
5.390081e+02,9.020045e+03
5.419008e+02,9.008263e+03
5.447935e+02,9.013770e+03
5.476862e+02,8.979329e+03
5.505789e+02,8.952149e+03
5.534716e+02,8.937339e+03
5.563643e+02,8.927774e+03
5.592570e+02,8.930816e+03
5.621497e+02,8.901360e+03
5.650424e+02,8.876364e+03
5.679351e+02,8.849040e+03
5.708278e+02,8.817942e+03
5.737205e+02,8.847366e+03
5.766132e+02,8.828112e+03
5.795059e+02,8.800623e+03
5.823986e+02,8.809569e+03
5.852913e+02,8.760959e+03
5.881840e+02,8.729566e+03
5.910767e+02,8.720447e+03
5.939694e+02,8.743486e+03
5.968621e+02,8.714095e+03
5.997548e+02,8.652392e+03
6.026475e+02,8.678728e+03
6.055402e+02,8.642083e+03
6.084329e+02,8.647989e+03
6.113256e+02,8.652278e+03
6.142183e+02,8.605785e+03
6.171110e+02,8.555427e+03
6.200037e+02,8.592056e+03
6.228964e+02,8.571512e+03
6.257891e+02,8.550048e+03
6.286818e+02,8.541252e+03
6.315745e+02,8.500698e+03
6.344672e+02,8.472160e+03
6.373599e+02,8.482137e+03
6.402526e+02,8.483089e+03
6.431453e+02,8.449119e+03
6.460380e+02,8.437396e+03
6.489307e+02,8.437417e+03
6.518234e+02,8.438778e+03
6.547161e+02,8.405603e+03
6.576088e+02,8.354961e+03
6.605015e+02,8.381903e+03
6.633942e+02,8.362247e+03
6.662869e+02,8.325841e+03
6.691796e+02,8.331886e+03
6.720723e+02,8.318896e+03
6.749650e+02,8.290530e+03
6.778577e+02,8.288184e+03
6.807504e+02,8.233521e+03
6.836431e+02,8.260684e+03
6.865358e+02,8.220988e+03
6.894285e+02,8.239373e+03
6.923212e+02,8.203467e+03
6.952139e+02,8.161455e+03
6.981066e+02,8.156710e+03
7.009993e+02,8.152300e+03
7.038920e+02,8.152958e+03
7.067847e+02,8.141220e+03
7.096774e+02,8.146867e+03
7.125701e+02,8.118452e+03
7.154628e+02,8.094522e+03
7.183555e+02,8.115630e+03
7.212482e+02,8.061067e+03
7.241409e+02,8.030294e+03
7.270336e+02,8.053206e+03
7.299263e+02,8.057518e+03
7.328190e+02,8.011680e+03
7.357117e+02,8.026273e+03
7.386044e+02,8.008542e+03
7.414971e+02,8.010240e+03
7.443898e+02,7.985907e+03
7.472825e+02,7.979825e+03
7.501752e+02,7.936171e+03
7.530679e+02,7.898805e+03
7.559606e+02,7.889408e+03
7.588533e+02,7.863930e+03
7.617460e+02,7.883984e+03
7.646387e+02,7.896726e+03
7.675314e+02,7.820020e+03
7.704241e+02,7.848946e+03
7.733168e+02,7.796938e+03
7.762095e+02,7.797517e+03
7.791022e+02,7.788562e+03
7.819949e+02,7.800753e+03
7.848876e+02,7.791393e+03
7.877803e+02,7.748872e+03
7.906730e+02,7.724268e+03
7.935657e+02,7.748663e+03
7.964584e+02,7.708873e+03
7.993511e+02,7.686596e+03
8.022438e+02,7.674078e+03
8.051365e+02,7.678047e+03
8.080292e+02,7.650348e+03
8.109219e+02,7.625443e+03
8.138146e+02,7.612119e+03
8.167073e+02,7.622315e+03
8.196000e+02,7.594968e+03
8.224927e+02,7.583038e+03
8.253854e+02,7.574626e+03
8.282781e+02,7.537127e+03
8.311708e+02,7.528757e+03
8.340635e+02,7.551810e+03
8.369562e+02,7.548674e+03
8.398489e+02,7.515250e+03
8.427416e+02,7.501109e+03
8.456343e+02,7.492161e+03
8.485270e+02,7.491974e+03
8.514197e+02,7.471780e+03
8.543124e+02,7.478539e+03
8.572051e+02,7.445733e+03
8.600978e+02,7.422794e+03
8.629905e+02,7.430501e+03
8.658832e+02,7.409122e+03
8.687759e+02,7.387360e+03
8.716686e+02,7.381632e+03
8.745613e+02,7.357796e+03
8.774540e+02,7.333735e+03
8.803467e+02,7.313219e+03
8.832394e+02,7.319355e+03
8.861321e+02,7.317170e+03
8.890248e+02,7.308304e+03
8.919175e+02,7.301017e+03
8.948102e+02,7.260740e+03
8.977029e+02,7.257390e+03
9.005956e+02,7.253379e+03
9.034883e+02,7.211789e+03
9.063810e+02,7.207681e+03
9.092737e+02,7.198792e+03
9.121664e+02,7.165307e+03
9.150591e+02,7.178664e+03
9.179518e+02,7.193374e+03
9.208445e+02,7.104893e+03
9.237372e+02,7.106739e+03
9.266299e+02,7.151912e+03
9.295226e+02,7.128897e+03
9.324153e+02,7.089865e+03
9.353080e+02,7.105394e+03
9.382007e+02,7.074809e+03
9.410934e+02,7.075403e+03
9.439861e+02,7.059938e+03
9.468788e+02,7.046929e+03
9.497715e+02,7.039030e+03
9.526642e+02,7.010878e+03
9.555569e+02,6.974854e+03
9.584496e+02,6.974864e+03
9.613423e+02,6.983177e+03
9.642350e+02,6.974223e+03
9.671277e+02,6.964302e+03
9.700204e+02,6.950187e+03
9.729131e+02,6.923467e+03
9.758058e+02,6.919599e+03
9.786985e+02,6.904275e+03
9.815912e+02,6.881917e+03
9.844839e+02,6.867382e+03
9.873766e+02,6.846667e+03
9.902693e+02,6.843773e+03
9.931620e+02,6.854640e+03
9.960547e+02,6.847893e+03
9.989474e+02,6.823309e+03
1.001840e+03,6.768666e+03
1.004733e+03,6.787135e+03
1.007626e+03,6.780675e+03
1.010518e+03,6.788331e+03
1.013411e+03,6.759528e+03
1.016304e+03,6.743906e+03
1.019196e+03,6.725331e+03
1.022089e+03,6.738693e+03
1.024982e+03,6.745787e+03
1.027875e+03,6.725601e+03
1.030767e+03,6.685149e+03
1.033660e+03,6.707130e+03
1.036552e+03,6.675232e+03
1.039445e+03,6.684358e+03
1.042338e+03,6.662181e+03
1.045231e+03,6.640856e+03
1.048123e+03,6.628968e+03
1.051016e+03,6.634591e+03
1.053909e+03,6.630493e+03
1.056802e+03,6.643250e+03
1.059694e+03,6.604364e+03
1.062587e+03,6.594377e+03
1.065479e+03,6.597131e+03
1.068372e+03,6.600181e+03
1.071265e+03,6.607288e+03
1.074158e+03,6.609658e+03
1.077050e+03,6.563464e+03
1.079943e+03,6.542458e+03
1.082836e+03,6.555937e+03
1.085729e+03,6.526648e+03
1.088621e+03,6.534918e+03
1.091514e+03,6.509125e+03
1.094406e+03,6.481036e+03
1.097299e+03,6.483665e+03
1.100192e+03,6.464177e+03
1.103085e+03,6.449148e+03
1.105977e+03,6.436744e+03
1.108870e+03,6.428078e+03
1.111763e+03,6.427239e+03
1.114656e+03,6.419975e+03
1.117548e+03,6.410594e+03
1.120441e+03,6.378897e+03
1.123334e+03,6.365182e+03
1.126226e+03,6.365062e+03
1.129119e+03,6.347495e+03
1.132012e+03,6.337033e+03
1.134904e+03,6.336440e+03
1.137797e+03,6.304782e+03
1.140690e+03,6.316547e+03
1.143583e+03,6.321365e+03
1.146475e+03,6.343320e+03
1.149368e+03,6.351023e+03
1.152261e+03,6.358609e+03
1.155153e+03,6.359495e+03
1.158046e+03,6.310154e+03
1.160939e+03,6.340485e+03
1.163831e+03,6.372894e+03
1.166724e+03,6.345727e+03
1.169617e+03,6.313274e+03
1.172510e+03,6.314993e+03
1.175402e+03,6.281836e+03
1.178295e+03,6.249274e+03
1.181188e+03,6.223811e+03
1.184080e+03,6.187606e+03
1.186973e+03,6.155222e+03
1.189866e+03,6.162666e+03
1.192758e+03,6.130163e+03
1.195651e+03,6.132166e+03
1.198544e+03,6.104888e+03
1.201437e+03,6.088394e+03
1.204329e+03,6.094753e+03
1.207222e+03,6.080029e+03
1.210115e+03,6.075957e+03
1.213007e+03,6.070991e+03
1.215900e+03,6.050168e+03
1.218793e+03,6.048088e+03
1.221685e+03,6.028456e+03
1.224578e+03,6.001792e+03
1.227471e+03,5.993446e+03
1.230364e+03,5.958989e+03
1.233256e+03,5.938412e+03
1.236149e+03,5.962297e+03
1.239042e+03,5.914442e+03
1.241934e+03,5.936733e+03
1.244827e+03,5.936526e+03
1.247720e+03,5.874410e+03
1.250612e+03,5.881742e+03
1.253505e+03,5.868992e+03
1.256398e+03,5.869694e+03
1.259291e+03,5.849165e+03
1.262183e+03,5.839688e+03
1.265076e+03,5.822240e+03
1.267969e+03,5.805516e+03
1.270861e+03,5.820557e+03
1.273754e+03,5.813225e+03
1.276647e+03,5.812527e+03
1.279539e+03,5.798347e+03
1.282432e+03,5.776771e+03
1.285325e+03,5.769547e+03
1.288218e+03,5.762039e+03
1.291110e+03,5.772019e+03
1.294003e+03,5.755625e+03
1.296896e+03,5.724531e+03
1.299788e+03,5.731848e+03
1.302681e+03,5.742318e+03
1.305574e+03,5.733757e+03
1.308466e+03,5.731738e+03
1.311359e+03,5.728994e+03
1.314252e+03,5.736665e+03
1.317145e+03,5.754397e+03
1.320037e+03,5.752173e+03
1.322930e+03,5.769769e+03
1.325823e+03,5.731554e+03
1.328715e+03,5.745577e+03
1.331608e+03,5.734130e+03
1.334501e+03,5.695458e+03
1.337393e+03,5.679582e+03
1.340286e+03,5.651282e+03
1.343179e+03,5.615487e+03
1.346072e+03,5.586511e+03
1.348964e+03,5.589193e+03
1.351857e+03,5.581304e+03
1.354750e+03,5.553156e+03
1.357642e+03,5.531900e+03
1.360535e+03,5.531487e+03
1.363428e+03,5.520833e+03
1.366320e+03,5.514931e+03
1.369213e+03,5.514210e+03
1.372106e+03,5.476631e+03
1.374999e+03,5.441109e+03
1.377891e+03,5.442182e+03
1.380784e+03,5.439271e+03
1.383677e+03,5.438458e+03
1.386569e+03,5.411499e+03
1.389462e+03,5.383942e+03
1.392355e+03,5.372190e+03
1.395247e+03,5.363888e+03
1.398140e+03,5.354515e+03
1.401033e+03,5.332716e+03
1.403926e+03,5.341107e+03
1.406818e+03,5.318019e+03
1.409711e+03,5.312041e+03
1.412604e+03,5.327972e+03
1.415496e+03,5.300110e+03
1.418389e+03,5.283221e+03
1.421282e+03,5.289451e+03
1.424174e+03,5.242907e+03
1.427067e+03,5.264596e+03
1.429960e+03,5.243619e+03
1.432853e+03,5.231812e+03
1.435745e+03,5.233416e+03
1.438638e+03,5.177867e+03
1.441531e+03,5.216052e+03
1.444423e+03,5.203969e+03
1.447316e+03,5.173460e+03
1.450209e+03,5.168555e+03
1.453101e+03,5.154873e+03
1.455994e+03,5.139429e+03
1.458887e+03,5.114733e+03
1.461780e+03,5.114145e+03
1.464672e+03,5.131867e+03
1.467565e+03,5.084202e+03
1.470458e+03,5.081926e+03
1.473350e+03,5.057300e+03
1.476243e+03,5.052920e+03
1.479136e+03,5.033864e+03
1.482028e+03,5.044811e+03
1.484921e+03,5.029744e+03
1.487814e+03,5.024702e+03
1.490707e+03,5.020460e+03
1.493599e+03,5.006924e+03
1.496492e+03,4.978563e+03
1.499385e+03,4.980954e+03
1.502277e+03,4.955332e+03
1.505170e+03,4.978931e+03
1.508063e+03,4.944721e+03
1.510955e+03,4.949746e+03
1.513848e+03,4.917628e+03
1.516741e+03,4.896869e+03
1.519634e+03,4.912330e+03
1.522526e+03,4.887647e+03
1.525419e+03,4.877254e+03
1.528312e+03,4.876751e+03
1.531204e+03,4.858563e+03
1.534097e+03,4.850031e+03
1.536990e+03,4.863792e+03
1.539882e+03,4.853473e+03
1.542775e+03,4.810484e+03
1.545668e+03,4.824483e+03
1.548561e+03,4.822939e+03
1.551453e+03,4.812750e+03
1.554346e+03,4.830354e+03
1.557239e+03,4.825077e+03
1.560131e+03,4.817050e+03
1.563024e+03,4.776443e+03
1.565917e+03,4.783063e+03
1.568809e+03,4.786411e+03
1.571702e+03,4.760888e+03
1.574595e+03,4.770646e+03
1.577488e+03,4.764872e+03
1.580380e+03,4.766579e+03
1.583273e+03,4.755699e+03
1.586166e+03,4.729354e+03
1.589058e+03,4.687473e+03
1.591951e+03,4.692764e+03
1.594844e+03,4.681206e+03
1.597736e+03,4.666519e+03
1.600629e+03,4.688868e+03
1.603522e+03,4.678986e+03
1.606415e+03,4.668642e+03
1.609307e+03,4.665623e+03
1.612200e+03,4.655612e+03
1.615093e+03,4.630392e+03
1.617985e+03,4.613320e+03
1.620878e+03,4.565772e+03
1.623771e+03,4.550687e+03
1.626663e+03,4.551419e+03
1.629556e+03,4.536933e+03
1.632449e+03,4.545897e+03
1.635342e+03,4.540001e+03
1.638234e+03,4.499788e+03
1.641127e+03,4.487187e+03
1.644020e+03,4.505328e+03
1.646912e+03,4.476648e+03
1.649805e+03,4.482922e+03
1.652698e+03,4.450178e+03
1.655590e+03,4.437854e+03
1.658483e+03,4.427649e+03
1.661376e+03,4.410546e+03
1.664269e+03,4.412308e+03
1.667161e+03,4.414616e+03
1.670054e+03,4.388476e+03
1.672947e+03,4.372622e+03
1.675839e+03,4.385556e+03
1.678732e+03,4.373768e+03
1.681625e+03,4.349428e+03
1.684517e+03,4.320778e+03
1.687410e+03,4.325513e+03
1.690303e+03,4.329855e+03
1.693196e+03,4.302835e+03
1.696088e+03,4.292777e+03
1.698981e+03,4.277349e+03
1.701874e+03,4.278076e+03
1.704766e+03,4.289509e+03
1.707659e+03,4.272417e+03
1.710552e+03,4.248067e+03
1.713444e+03,4.233314e+03
1.716337e+03,4.220940e+03
1.719230e+03,4.215703e+03
1.722123e+03,4.223035e+03
1.725015e+03,4.212240e+03
1.727908e+03,4.193103e+03
1.730801e+03,4.179142e+03
1.733693e+03,4.179383e+03
1.736586e+03,4.187266e+03
1.739479e+03,4.169240e+03
1.742371e+03,4.151641e+03
1.745264e+03,4.126899e+03
1.748157e+03,4.135782e+03
1.751050e+03,4.125279e+03
1.753942e+03,4.109538e+03
1.756835e+03,4.097607e+03
1.759728e+03,4.108641e+03
1.762620e+03,4.052127e+03
1.765513e+03,4.071905e+03
1.768406e+03,4.065555e+03
1.771298e+03,4.038020e+03
1.774191e+03,4.024432e+03
1.777084e+03,4.020732e+03
1.779977e+03,4.017555e+03
1.782869e+03,4.011743e+03
1.785762e+03,4.015249e+03
1.788655e+03,3.995063e+03
1.791547e+03,3.976236e+03
1.794440e+03,3.959463e+03
1.797333e+03,3.968204e+03
1.800225e+03,3.957894e+03
1.803118e+03,3.928065e+03
1.806011e+03,3.921588e+03
1.808904e+03,3.906836e+03
1.811796e+03,3.929180e+03
1.814689e+03,3.910732e+03
1.817582e+03,3.884499e+03
1.820474e+03,3.886724e+03
1.823367e+03,3.876078e+03
1.826260e+03,3.871035e+03
1.829152e+03,3.875875e+03
1.832045e+03,3.838725e+03
1.834938e+03,3.812974e+03
1.837831e+03,3.832917e+03
1.840723e+03,3.815304e+03
1.843616e+03,3.821740e+03
1.846509e+03,3.810046e+03
1.849401e+03,3.799220e+03
1.852294e+03,3.777950e+03
1.855187e+03,3.775023e+03
1.858079e+03,3.746998e+03
1.860972e+03,3.735416e+03
1.863865e+03,3.763665e+03
1.866758e+03,3.730573e+03
1.869650e+03,3.734438e+03
1.872543e+03,3.727796e+03
1.875436e+03,3.720878e+03
1.878328e+03,3.705214e+03
1.881221e+03,3.670540e+03
1.884114e+03,3.670978e+03
1.887006e+03,3.669925e+03
1.889899e+03,3.654443e+03
1.892792e+03,3.665172e+03
1.895685e+03,3.613391e+03
1.898577e+03,3.637746e+03
1.901470e+03,3.634264e+03
1.904363e+03,3.625500e+03
1.907255e+03,3.593269e+03
1.910148e+03,3.606343e+03
1.913041e+03,3.569663e+03
1.915933e+03,3.561192e+03
1.918826e+03,3.554823e+03
1.921719e+03,3.571926e+03
1.924612e+03,3.539282e+03
1.927504e+03,3.541243e+03
1.930397e+03,3.527207e+03
1.933290e+03,3.503007e+03
1.936182e+03,3.519276e+03
1.939075e+03,3.504281e+03
1.941968e+03,3.511978e+03
1.944860e+03,3.473378e+03
1.947753e+03,3.465294e+03
1.950646e+03,3.451597e+03
1.953539e+03,3.415878e+03
1.956431e+03,3.442353e+03
1.959324e+03,3.449058e+03
1.962217e+03,3.433737e+03
1.965109e+03,3.391234e+03
1.968002e+03,3.407104e+03
1.970895e+03,3.390132e+03
1.973787e+03,3.391719e+03
1.976680e+03,3.383987e+03
1.979573e+03,3.365363e+03
1.982466e+03,3.378660e+03
1.985358e+03,3.350283e+03
1.988251e+03,3.338957e+03
1.991144e+03,3.341481e+03
1.994036e+03,3.320787e+03
1.996929e+03,3.319482e+03
1.999822e+03,3.317376e+03
2.002714e+03,3.310525e+03
2.005607e+03,3.299297e+03
2.008500e+03,3.280885e+03
2.011393e+03,3.290438e+03
2.014285e+03,3.268531e+03
2.017178e+03,3.249936e+03
2.020071e+03,3.223990e+03
2.022963e+03,3.249744e+03
2.025856e+03,3.214953e+03
2.028749e+03,3.193503e+03
2.031641e+03,3.213559e+03
2.034534e+03,3.203267e+03
2.037427e+03,3.183038e+03
2.040320e+03,3.166053e+03
2.043212e+03,3.182644e+03
2.046105e+03,3.167497e+03
2.048998e+03,3.171374e+03
2.051890e+03,3.140016e+03
2.054783e+03,3.116973e+03
2.057676e+03,3.140426e+03
2.060568e+03,3.118153e+03
2.063461e+03,3.099690e+03
2.066354e+03,3.120401e+03
2.069247e+03,3.093514e+03
2.072139e+03,3.068155e+03
2.075032e+03,3.068755e+03
2.077925e+03,3.065283e+03
2.080817e+03,3.070406e+03
2.083710e+03,3.048711e+03
2.086603e+03,3.030104e+03
2.089496e+03,3.036123e+03
2.092388e+03,3.000250e+03
2.095281e+03,3.020811e+03
2.098174e+03,3.003195e+03
2.101066e+03,3.000121e+03
2.103959e+03,2.965108e+03
2.106852e+03,2.980696e+03
2.109744e+03,2.971447e+03
2.112637e+03,2.946402e+03
2.115530e+03,2.952993e+03
2.118422e+03,2.941484e+03
2.121315e+03,2.954191e+03
2.124208e+03,2.925495e+03
2.127101e+03,2.920354e+03
2.129993e+03,2.913239e+03
2.132886e+03,2.906732e+03
2.135779e+03,2.911591e+03
2.138671e+03,2.884747e+03
2.141564e+03,2.858550e+03
2.144457e+03,2.854412e+03
2.147350e+03,2.831359e+03
2.150242e+03,2.852226e+03
2.153135e+03,2.871833e+03
2.156028e+03,2.843673e+03
2.158920e+03,2.820398e+03
2.161813e+03,2.818474e+03
2.164706e+03,2.805257e+03
2.167598e+03,2.806150e+03
2.170491e+03,2.754265e+03
2.173384e+03,2.787589e+03
2.176277e+03,2.788837e+03
2.179169e+03,2.762382e+03
2.182062e+03,2.743852e+03
2.184955e+03,2.747699e+03
2.187847e+03,2.763728e+03
2.190740e+03,2.755465e+03
2.193633e+03,2.739976e+03
2.196525e+03,2.722009e+03
2.199418e+03,2.726818e+03
2.202311e+03,2.698058e+03
2.205204e+03,2.732426e+03
2.208096e+03,2.681732e+03
2.210989e+03,2.643789e+03
2.213882e+03,2.665965e+03
2.216774e+03,2.659618e+03
2.219667e+03,2.657667e+03
2.222560e+03,2.627355e+03
2.225452e+03,2.631945e+03
2.228345e+03,2.611943e+03
2.231238e+03,2.604653e+03
2.234131e+03,2.600279e+03
2.237023e+03,2.601782e+03
2.239916e+03,2.582984e+03
2.242809e+03,2.560582e+03
2.245701e+03,2.558931e+03
2.248594e+03,2.567356e+03
2.251487e+03,2.566238e+03
2.254379e+03,2.565261e+03
2.257272e+03,2.530789e+03
2.260165e+03,2.519564e+03
2.263058e+03,2.531470e+03
2.265950e+03,2.529335e+03
2.268843e+03,2.516777e+03
2.271736e+03,2.489302e+03
2.274628e+03,2.473176e+03
2.277521e+03,2.485090e+03
2.280414e+03,2.478157e+03
2.283306e+03,2.475104e+03
2.286199e+03,2.443728e+03
2.289092e+03,2.447526e+03
2.291985e+03,2.462488e+03
2.294877e+03,2.438754e+03
2.297770e+03,2.441925e+03
2.300663e+03,2.433895e+03
2.303555e+03,2.398278e+03
2.306448e+03,2.394803e+03
2.309341e+03,2.401225e+03
2.312233e+03,2.368286e+03
2.315126e+03,2.380936e+03
2.318019e+03,2.391422e+03
2.320912e+03,2.370163e+03
2.323804e+03,2.358609e+03
2.326697e+03,2.360576e+03
2.329590e+03,2.350944e+03
2.332482e+03,2.333395e+03
2.335375e+03,2.338832e+03
2.338268e+03,2.309483e+03
2.341160e+03,2.313688e+03
2.344053e+03,2.337251e+03
2.346946e+03,2.311672e+03
2.349839e+03,2.306778e+03
2.352731e+03,2.288089e+03
2.355624e+03,2.282073e+03
2.358517e+03,2.284922e+03
2.361409e+03,2.284929e+03
2.364302e+03,2.263821e+03
2.367195e+03,2.250459e+03
2.370087e+03,2.257418e+03
2.372980e+03,2.256784e+03
2.375873e+03,2.238525e+03
2.378766e+03,2.239537e+03
2.381658e+03,2.204376e+03
2.384551e+03,2.212753e+03
2.387444e+03,2.198001e+03
2.390336e+03,2.213513e+03
2.393229e+03,2.206000e+03
2.396122e+03,2.198382e+03
2.399014e+03,2.173278e+03
2.401907e+03,2.180830e+03
2.404800e+03,2.176630e+03
2.407693e+03,2.169108e+03
2.410585e+03,2.167630e+03
2.413478e+03,2.162129e+03
2.416371e+03,2.140803e+03
2.419263e+03,2.141974e+03
2.422156e+03,2.126768e+03
2.425049e+03,2.155932e+03
2.427941e+03,2.113908e+03
2.430834e+03,2.111782e+03
2.433727e+03,2.103543e+03
2.436620e+03,2.108141e+03
2.439512e+03,2.104068e+03
2.442405e+03,2.077858e+03
2.445298e+03,2.102790e+03
2.448190e+03,2.077312e+03
2.451083e+03,2.077313e+03
2.453976e+03,2.078591e+03
2.456868e+03,2.053869e+03
2.459761e+03,2.042838e+03
2.462654e+03,2.044790e+03
2.465547e+03,2.028922e+03
2.468439e+03,2.038053e+03
2.471332e+03,2.024789e+03
2.474225e+03,2.031659e+03
2.477117e+03,2.026646e+03
2.480010e+03,2.027852e+03
2.482903e+03,2.027567e+03
2.485795e+03,2.014846e+03
2.488688e+03,1.974648e+03
2.491581e+03,2.007632e+03
2.494474e+03,1.983737e+03
2.497366e+03,1.996151e+03
2.500259e+03,1.952810e+03
2.503152e+03,1.965870e+03
2.506044e+03,1.957727e+03
2.508937e+03,1.954613e+03
2.511830e+03,1.966350e+03
2.514722e+03,1.929167e+03
2.517615e+03,1.942013e+03
2.520508e+03,1.958495e+03
2.523401e+03,1.944375e+03
2.526293e+03,1.939794e+03
2.529186e+03,1.916858e+03
2.532079e+03,1.939206e+03
2.534971e+03,1.900986e+03
2.537864e+03,1.897949e+03
2.540757e+03,1.918379e+03
2.543649e+03,1.922031e+03
2.546542e+03,1.885195e+03
2.549435e+03,1.901319e+03
2.552328e+03,1.885587e+03
2.555220e+03,1.879276e+03
2.558113e+03,1.847503e+03
2.561006e+03,1.876057e+03
2.563898e+03,1.886936e+03
2.566791e+03,1.860801e+03
2.569684e+03,1.847408e+03
2.572576e+03,1.843292e+03
2.575469e+03,1.862430e+03
2.578362e+03,1.839474e+03
2.581255e+03,1.846588e+03
2.584147e+03,1.832212e+03
2.587040e+03,1.814983e+03
2.589933e+03,1.810626e+03
2.592825e+03,1.837349e+03
2.595718e+03,1.830041e+03
2.598611e+03,1.807854e+03
2.601503e+03,1.824348e+03
2.604396e+03,1.806779e+03
2.607289e+03,1.785759e+03
2.610182e+03,1.784468e+03
2.613074e+03,1.785122e+03
2.615967e+03,1.802542e+03
2.618860e+03,1.767521e+03
2.621752e+03,1.773740e+03
2.624645e+03,1.777928e+03
2.627538e+03,1.778488e+03
2.630430e+03,1.758661e+03
2.633323e+03,1.763874e+03
2.636216e+03,1.739105e+03
2.639109e+03,1.747810e+03
2.642001e+03,1.765928e+03
2.644894e+03,1.737798e+03
2.647787e+03,1.762345e+03
2.650679e+03,1.729583e+03
2.653572e+03,1.721526e+03
2.656465e+03,1.731541e+03
2.659357e+03,1.684942e+03
2.662250e+03,1.709451e+03
2.665143e+03,1.709994e+03
2.668036e+03,1.706577e+03
2.670928e+03,1.701925e+03
2.673821e+03,1.737391e+03
2.676714e+03,1.695492e+03
2.679606e+03,1.694911e+03
2.682499e+03,1.660304e+03
2.685392e+03,1.674993e+03
2.688284e+03,1.683439e+03
2.691177e+03,1.680356e+03
2.694070e+03,1.676841e+03
2.696963e+03,1.657459e+03
2.699855e+03,1.671092e+03
2.702748e+03,1.680125e+03
2.705641e+03,1.643158e+03
2.708533e+03,1.646143e+03
2.711426e+03,1.644882e+03
2.714319e+03,1.632455e+03
2.717211e+03,1.648986e+03
2.720104e+03,1.628486e+03
2.722997e+03,1.644634e+03
2.725890e+03,1.630609e+03
2.728782e+03,1.606100e+03
2.731675e+03,1.617397e+03
2.734568e+03,1.643465e+03
2.737460e+03,1.614363e+03
2.740353e+03,1.620179e+03
2.743246e+03,1.627731e+03
2.746138e+03,1.598460e+03
2.749031e+03,1.629092e+03
2.751924e+03,1.602531e+03
2.754817e+03,1.600944e+03
2.757709e+03,1.608945e+03
2.760602e+03,1.622162e+03
2.763495e+03,1.583842e+03
2.766387e+03,1.585280e+03
2.769280e+03,1.559017e+03
2.772173e+03,1.596326e+03
2.775065e+03,1.572478e+03
2.777958e+03,1.558470e+03
2.780851e+03,1.561324e+03
2.783744e+03,1.578060e+03
2.786636e+03,1.565681e+03
2.789529e+03,1.561522e+03
2.792422e+03,1.564942e+03
2.795314e+03,1.543939e+03
2.798207e+03,1.564052e+03
2.801100e+03,1.542228e+03
2.803992e+03,1.539681e+03
2.806885e+03,1.535595e+03
2.809778e+03,1.554350e+03
2.812671e+03,1.515431e+03
2.815563e+03,1.524983e+03
2.818456e+03,1.529913e+03
2.821349e+03,1.536485e+03
2.824241e+03,1.544467e+03
2.827134e+03,1.508828e+03
2.830027e+03,1.505161e+03
2.832919e+03,1.513338e+03
2.835812e+03,1.495740e+03
2.838705e+03,1.516455e+03
2.841598e+03,1.500355e+03
2.844490e+03,1.521943e+03
2.847383e+03,1.469382e+03
2.850276e+03,1.514064e+03
2.853168e+03,1.486677e+03
2.856061e+03,1.494623e+03
2.858954e+03,1.493027e+03
2.861846e+03,1.496182e+03
2.864739e+03,1.503060e+03
2.867632e+03,1.486056e+03
2.870525e+03,1.478847e+03
2.873417e+03,1.493146e+03
2.876310e+03,1.500248e+03
2.879203e+03,1.524121e+03
2.882095e+03,1.495123e+03
2.884988e+03,1.498159e+03
2.887881e+03,1.473906e+03
2.890773e+03,1.516068e+03
2.893666e+03,1.483833e+03
2.896559e+03,1.470642e+03
2.899452e+03,1.461776e+03
2.902344e+03,1.493844e+03
2.905237e+03,1.472453e+03
2.908130e+03,1.454057e+03
2.911022e+03,1.466908e+03
2.913915e+03,1.451420e+03
2.916808e+03,1.469995e+03
2.919700e+03,1.463149e+03
2.922593e+03,1.451565e+03
2.925486e+03,1.423220e+03
2.928379e+03,1.442752e+03
2.931271e+03,1.437867e+03
2.934164e+03,1.441528e+03
2.937057e+03,1.446764e+03
2.939949e+03,1.433766e+03
2.942842e+03,1.424140e+03
2.945735e+03,1.417627e+03
2.948627e+03,1.420261e+03
2.951520e+03,1.425222e+03
2.954413e+03,1.439202e+03
2.957306e+03,1.428673e+03
2.960198e+03,1.396631e+03
2.963091e+03,1.455171e+03
2.965984e+03,1.379277e+03
2.968876e+03,1.407792e+03
2.971769e+03,1.372241e+03
2.974662e+03,1.383476e+03
2.977554e+03,1.400549e+03
2.980447e+03,1.412553e+03
2.983340e+03,1.379411e+03
2.986233e+03,1.371797e+03
2.989125e+03,1.368457e+03
2.992018e+03,1.362555e+03
2.994911e+03,1.362439e+03
2.997803e+03,1.390701e+03
3.000696e+03,1.348610e+03
3.003589e+03,1.366931e+03
3.006481e+03,1.336545e+03
3.009374e+03,1.364510e+03
3.012267e+03,1.370981e+03
3.015160e+03,1.333692e+03
3.018052e+03,1.363098e+03
3.020945e+03,1.368079e+03
3.023838e+03,1.333995e+03
3.026730e+03,1.319988e+03
3.029623e+03,1.368807e+03
3.032516e+03,1.322569e+03
3.035408e+03,1.348920e+03
3.038301e+03,1.349624e+03
3.041194e+03,1.310285e+03
3.044087e+03,1.368672e+03
3.046979e+03,1.335972e+03
3.049872e+03,1.353111e+03
3.052765e+03,1.326349e+03
3.055657e+03,1.323130e+03
3.058550e+03,1.337552e+03
3.061443e+03,1.307193e+03
3.064335e+03,1.327623e+03
3.067228e+03,1.366416e+03
3.070121e+03,1.341376e+03
3.073014e+03,1.332098e+03
3.075906e+03,1.348030e+03
3.078799e+03,1.333672e+03
3.081692e+03,1.314678e+03
3.084584e+03,1.267672e+03
3.087477e+03,1.338778e+03
3.090370e+03,1.349232e+03
3.093262e+03,1.307017e+03
3.096155e+03,1.303889e+03
3.099048e+03,1.269622e+03
3.101941e+03,1.360639e+03
3.104833e+03,1.316226e+03
3.107726e+03,1.286847e+03
3.110619e+03,1.306222e+03
3.113511e+03,1.304941e+03
3.116404e+03,1.308893e+03
3.119297e+03,1.307107e+03
3.122189e+03,1.298047e+03
3.125082e+03,1.304969e+03
3.127975e+03,1.311809e+03
3.130868e+03,1.347376e+03
3.133760e+03,1.320527e+03
3.136653e+03,1.312432e+03
3.139546e+03,1.328276e+03
3.142438e+03,1.329345e+03
3.145331e+03,1.275736e+03
3.148224e+03,1.292923e+03
3.151116e+03,1.252885e+03
3.154009e+03,1.330790e+03
3.156902e+03,1.333436e+03
3.159795e+03,1.307521e+03
3.162687e+03,1.295223e+03
3.165580e+03,1.341008e+03
3.168473e+03,1.324919e+03
3.171365e+03,1.312671e+03
3.174258e+03,1.275202e+03
3.177151e+03,1.314731e+03
3.180043e+03,1.313714e+03
3.182936e+03,1.329857e+03
3.185829e+03,1.308426e+03
3.188722e+03,1.334027e+03
3.191614e+03,1.319685e+03
3.194507e+03,1.342758e+03
3.197400e+03,1.320909e+03
3.200292e+03,1.348809e+03
3.203185e+03,0.000000e+00
3.206078e+03,0.000000e+00
3.208970e+03,0.000000e+00
3.211863e+03,0.000000e+00
3.214756e+03,0.000000e+00
3.217649e+03,0.000000e+00
3.220541e+03,0.000000e+00
3.223434e+03,0.000000e+00
3.226327e+03,0.000000e+00
3.229219e+03,0.000000e+00
3.232112e+03,0.000000e+00
3.235005e+03,0.000000e+00
3.237897e+03,0.000000e+00
3.240790e+03,0.000000e+00
3.243683e+03,0.000000e+00
3.246576e+03,0.000000e+00
3.249468e+03,0.000000e+00
3.252361e+03,0.000000e+00
3.255254e+03,0.000000e+00
3.258146e+03,0.000000e+00
3.261039e+03,0.000000e+00
3.263932e+03,0.000000e+00
3.266824e+03,0.000000e+00
3.269717e+03,0.000000e+00
3.272610e+03,0.000000e+00
3.275503e+03,0.000000e+00
3.278395e+03,0.000000e+00
3.281288e+03,0.000000e+00
3.284181e+03,0.000000e+00
3.287073e+03,0.000000e+00
3.289966e+03,0.000000e+00
3.292859e+03,0.000000e+00
3.295751e+03,0.000000e+00
3.298644e+03,0.000000e+00
3.301537e+03,0.000000e+00
3.304430e+03,0.000000e+00
3.307322e+03,0.000000e+00
3.310215e+03,0.000000e+00
3.313108e+03,0.000000e+00
3.316000e+03,0.000000e+00
3.318893e+03,0.000000e+00
3.321786e+03,0.000000e+00
3.324678e+03,0.000000e+00
3.327571e+03,0.000000e+00
3.330464e+03,0.000000e+00
3.333357e+03,0.000000e+00
3.336249e+03,0.000000e+00
3.339142e+03,0.000000e+00
3.342035e+03,0.000000e+00
3.344927e+03,0.000000e+00
3.347820e+03,0.000000e+00
3.350713e+03,0.000000e+00
3.353605e+03,0.000000e+00
3.356498e+03,0.000000e+00
3.359391e+03,0.000000e+00
3.362284e+03,0.000000e+00
3.365176e+03,0.000000e+00
3.368069e+03,0.000000e+00
3.370962e+03,0.000000e+00
3.373854e+03,0.000000e+00
3.376747e+03,0.000000e+00
3.379640e+03,0.000000e+00
3.382532e+03,0.000000e+00
3.385425e+03,0.000000e+00
3.388318e+03,0.000000e+00
3.391211e+03,0.000000e+00
3.394103e+03,0.000000e+00
3.396996e+03,0.000000e+00
3.399889e+03,0.000000e+00
3.402781e+03,0.000000e+00
3.405674e+03,0.000000e+00
3.408567e+03,0.000000e+00
3.411459e+03,0.000000e+00
3.414352e+03,0.000000e+00
3.417245e+03,0.000000e+00
3.420138e+03,0.000000e+00
3.423030e+03,0.000000e+00
3.425923e+03,0.000000e+00
3.428816e+03,0.000000e+00
3.431708e+03,0.000000e+00
3.434601e+03,0.000000e+00
3.437494e+03,0.000000e+00
3.440386e+03,0.000000e+00
3.443279e+03,0.000000e+00
3.446172e+03,0.000000e+00
3.449065e+03,0.000000e+00
3.451957e+03,0.000000e+00
3.454850e+03,0.000000e+00
3.457743e+03,0.000000e+00
3.460635e+03,0.000000e+00
3.463528e+03,0.000000e+00
3.466421e+03,0.000000e+00
3.469313e+03,0.000000e+00
3.472206e+03,0.000000e+00
3.475099e+03,0.000000e+00
3.477992e+03,0.000000e+00
3.480884e+03,0.000000e+00
3.483777e+03,0.000000e+00
3.486670e+03,0.000000e+00
3.489563e+03,0.000000e+00
3.492455e+03,0.000000e+00
3.495348e+03,0.000000e+00
3.498240e+03,0.000000e+00
3.500169e+03,0.000000e+00