File: RAMAN_data/13042023_r1/blue fibre5.CSV
9.931763e+01,0.000000e+00
1.022103e+02,0.000000e+00
1.051030e+02,0.000000e+00
1.079957e+02,0.000000e+00
1.108884e+02,0.000000e+00
1.137811e+02,0.000000e+00
1.166738e+02,0.000000e+00
1.195665e+02,0.000000e+00
1.224592e+02,0.000000e+00
1.253519e+02,0.000000e+00
1.282446e+02,0.000000e+00
1.311373e+02,0.000000e+00
1.340300e+02,0.000000e+00
1.369227e+02,0.000000e+00
1.398154e+02,0.000000e+00
1.427081e+02,0.000000e+00
1.456008e+02,0.000000e+00
1.484935e+02,0.000000e+00
1.513862e+02,0.000000e+00
1.542789e+02,0.000000e+00
1.571716e+02,0.000000e+00
1.600643e+02,0.000000e+00
1.629570e+02,0.000000e+00
1.658497e+02,0.000000e+00
1.687424e+02,0.000000e+00
1.716351e+02,0.000000e+00
1.745278e+02,0.000000e+00
1.774205e+02,0.000000e+00
1.803132e+02,0.000000e+00
1.832059e+02,0.000000e+00
1.860986e+02,0.000000e+00
1.889913e+02,0.000000e+00
1.918840e+02,0.000000e+00
1.947767e+02,0.000000e+00
1.976694e+02,0.000000e+00
2.005621e+02,1.047981e+04
2.034548e+02,1.052034e+04
2.063475e+02,1.054905e+04
2.092402e+02,1.055023e+04
2.121329e+02,1.055114e+04
2.150256e+02,1.057994e+04
2.179183e+02,1.060919e+04
2.208110e+02,1.066058e+04
2.237037e+02,1.067718e+04
2.265964e+02,1.068749e+04
2.294892e+02,1.071674e+04
2.323819e+02,1.076485e+04
2.352746e+02,1.080180e+04
2.381673e+02,1.083688e+04
2.410600e+02,1.083374e+04
2.439527e+02,1.085114e+04
2.468454e+02,1.088743e+04
2.497381e+02,1.092293e+04
2.526308e+02,1.095972e+04
2.555235e+02,1.097477e+04
2.584161e+02,1.097703e+04
2.613088e+02,1.102010e+04
2.642015e+02,1.107264e+04
2.670942e+02,1.109793e+04
2.699869e+02,1.113241e+04
2.728796e+02,1.114520e+04
2.757723e+02,1.118599e+04
2.786650e+02,1.122956e+04
2.815577e+02,1.125743e+04
2.844504e+02,1.128402e+04
2.873431e+02,1.129060e+04
2.902358e+02,1.131700e+04
2.931285e+02,1.134644e+04
2.960212e+02,1.139113e+04
2.989139e+02,1.141448e+04
3.018066e+02,1.143413e+04
3.046993e+02,1.146692e+04
3.075920e+02,1.148884e+04
3.104847e+02,1.152890e+04
3.133774e+02,1.157925e+04
3.162701e+02,1.159601e+04
3.191628e+02,1.160888e+04
3.220555e+02,1.164175e+04
3.249482e+02,1.168424e+04
3.278409e+02,1.172364e+04
3.307336e+02,1.175929e+04
3.336263e+02,1.178546e+04
3.365190e+02,1.179593e+04
3.394117e+02,1.184477e+04
3.423044e+02,1.189110e+04
3.451971e+02,1.195065e+04
3.480898e+02,1.197636e+04
3.509825e+02,1.198931e+04
3.538752e+02,1.203903e+04
3.567680e+02,1.208796e+04
3.596607e+02,1.212734e+04
3.625534e+02,1.216518e+04
3.654461e+02,1.215143e+04
3.683388e+02,1.217766e+04
3.712315e+02,1.224066e+04
3.741242e+02,1.227460e+04
3.770169e+02,1.231209e+04
3.799096e+02,1.235504e+04
3.828023e+02,1.237077e+04
3.856950e+02,1.241141e+04
3.885877e+02,1.246715e+04
3.914804e+02,1.251785e+04
3.943731e+02,1.254654e+04
3.972658e+02,1.257221e+04
4.001585e+02,1.259571e+04
4.030512e+02,1.265208e+04
4.059439e+02,1.268439e+04
4.088366e+02,1.272684e+04
4.117293e+02,1.274472e+04
4.146220e+02,1.277363e+04
4.175147e+02,1.281375e+04
4.204074e+02,1.285257e+04
4.233001e+02,1.288676e+04
4.261928e+02,1.290905e+04
4.290855e+02,1.294774e+04
4.319782e+02,1.298699e+04
4.348709e+02,1.304558e+04
4.377636e+02,1.309523e+04
4.406563e+02,1.313692e+04
4.435490e+02,1.317664e+04
4.464417e+02,1.321787e+04
4.493344e+02,1.326524e+04
4.522271e+02,1.329400e+04
4.551198e+02,1.332378e+04
4.580125e+02,1.333318e+04
4.609052e+02,1.337773e+04
4.637979e+02,1.340457e+04
4.666906e+02,1.342731e+04
4.695833e+02,1.347680e+04
4.724760e+02,1.350742e+04
4.753687e+02,1.351668e+04
4.782614e+02,1.349975e+04
4.811541e+02,1.354101e+04
4.840468e+02,1.355839e+04
4.869395e+02,1.358365e+04
4.898322e+02,1.355517e+04
4.927249e+02,1.359303e+04
4.956176e+02,1.362188e+04
4.985103e+02,1.364895e+04
5.014030e+02,1.363339e+04
5.042957e+02,1.363733e+04
5.071884e+02,1.363808e+04
5.100811e+02,1.365557e+04
5.129738e+02,1.366376e+04
5.158665e+02,1.369608e+04
5.187592e+02,1.372082e+04
5.216519e+02,1.367200e+04
5.245446e+02,1.364691e+04
5.274373e+02,1.367273e+04
5.303300e+02,1.366212e+04
5.332227e+02,1.363273e+04
5.361154e+02,1.362243e+04
5.390081e+02,1.360216e+04
5.419008e+02,1.363754e+04
5.447935e+02,1.362216e+04
5.476862e+02,1.362705e+04
5.505789e+02,1.359083e+04
5.534716e+02,1.352977e+04
5.563643e+02,1.353453e+04
5.592570e+02,1.354948e+04
5.621497e+02,1.355706e+04
5.650424e+02,1.353681e+04
5.679351e+02,1.349218e+04
5.708278e+02,1.348023e+04
5.737205e+02,1.346132e+04
5.766132e+02,1.347108e+04
5.795059e+02,1.344958e+04
5.823986e+02,1.344030e+04
5.852913e+02,1.341679e+04
5.881840e+02,1.341667e+04
5.910767e+02,1.343761e+04
5.939694e+02,1.344091e+04
5.968621e+02,1.340608e+04
5.997548e+02,1.337817e+04
6.026475e+02,1.338884e+04
6.055402e+02,1.338031e+04
6.084329e+02,1.335064e+04
6.113256e+02,1.332697e+04
6.142183e+02,1.328504e+04
6.171110e+02,1.325092e+04
6.200037e+02,1.321329e+04
6.228964e+02,1.322239e+04
6.257891e+02,1.316953e+04
6.286818e+02,1.314634e+04
6.315745e+02,1.309558e+04
6.344672e+02,1.308143e+04
6.373599e+02,1.307869e+04
6.402526e+02,1.302650e+04
6.431453e+02,1.298888e+04
6.460380e+02,1.296197e+04
6.489307e+02,1.293765e+04
6.518234e+02,1.290576e+04
6.547161e+02,1.286846e+04
6.576088e+02,1.286885e+04
6.605015e+02,1.280216e+04
6.633942e+02,1.274714e+04
6.662869e+02,1.275484e+04
6.691796e+02,1.277141e+04
6.720723e+02,1.274372e+04
6.749650e+02,1.267632e+04
6.778577e+02,1.259796e+04
6.807504e+02,1.258350e+04
6.836431e+02,1.261280e+04
6.865358e+02,1.255857e+04
6.894285e+02,1.252133e+04
6.923212e+02,1.249339e+04
6.952139e+02,1.246003e+04
6.981066e+02,1.248243e+04
7.009993e+02,1.242793e+04
7.038920e+02,1.237067e+04
7.067847e+02,1.232954e+04
7.096774e+02,1.230928e+04
7.125701e+02,1.233545e+04
7.154628e+02,1.225085e+04
7.183555e+02,1.225869e+04
7.212482e+02,1.222865e+04
7.241409e+02,1.220743e+04
7.270336e+02,1.214757e+04
7.299263e+02,1.213350e+04
7.328190e+02,1.212642e+04
7.357117e+02,1.206801e+04
7.386044e+02,1.203656e+04
7.414971e+02,1.203084e+04
7.443898e+02,1.201303e+04
7.472825e+02,1.198204e+04
7.501752e+02,1.195428e+04
7.530679e+02,1.189847e+04
7.559606e+02,1.187352e+04
7.588533e+02,1.186810e+04
7.617460e+02,1.184765e+04
7.646387e+02,1.177678e+04
7.675314e+02,1.178715e+04
7.704241e+02,1.173759e+04
7.733168e+02,1.171755e+04
7.762095e+02,1.172371e+04
7.791022e+02,1.171261e+04
7.819949e+02,1.166007e+04
7.848876e+02,1.162448e+04
7.877803e+02,1.160350e+04
7.906730e+02,1.157336e+04
7.935657e+02,1.156363e+04
7.964584e+02,1.148038e+04
7.993511e+02,1.151430e+04
8.022438e+02,1.144419e+04
8.051365e+02,1.143500e+04
8.080292e+02,1.140972e+04
8.109219e+02,1.140347e+04
8.138146e+02,1.132966e+04
8.167073e+02,1.135007e+04
8.196000e+02,1.130397e+04
8.224927e+02,1.131435e+04
8.253854e+02,1.125926e+04
8.282781e+02,1.123383e+04
8.311708e+02,1.125145e+04
8.340635e+02,1.119168e+04
8.369562e+02,1.119037e+04
8.398489e+02,1.115680e+04
8.427416e+02,1.109652e+04
8.456343e+02,1.108591e+04
8.485270e+02,1.106271e+04
8.514197e+02,1.104603e+04
8.543124e+02,1.102026e+04
8.572051e+02,1.100856e+04
8.600978e+02,1.097915e+04
8.629905e+02,1.095030e+04
8.658832e+02,1.094661e+04
8.687759e+02,1.089601e+04
8.716686e+02,1.088078e+04
8.745613e+02,1.087524e+04
8.774540e+02,1.085008e+04
8.803467e+02,1.078980e+04
8.832394e+02,1.080678e+04
8.861321e+02,1.078651e+04
8.890248e+02,1.072887e+04
8.919175e+02,1.070686e+04
8.948102e+02,1.068260e+04
8.977029e+02,1.067064e+04
9.005956e+02,1.063237e+04
9.034883e+02,1.061913e+04
9.063810e+02,1.055719e+04
9.092737e+02,1.055381e+04
9.121664e+02,1.057283e+04
9.150591e+02,1.053448e+04
9.179518e+02,1.048877e+04
9.208445e+02,1.042377e+04
9.237372e+02,1.042618e+04
9.266299e+02,1.040209e+04
9.295226e+02,1.041415e+04
9.324153e+02,1.038134e+04
9.353080e+02,1.033933e+04
9.382007e+02,1.032785e+04
9.410934e+02,1.027804e+04
9.439861e+02,1.027019e+04
9.468788e+02,1.025778e+04
9.497715e+02,1.026616e+04
9.526642e+02,1.019676e+04
9.555569e+02,1.014575e+04
9.584496e+02,1.017919e+04
9.613423e+02,1.016378e+04
9.642350e+02,1.011920e+04
9.671277e+02,1.008930e+04
9.700204e+02,1.004191e+04
9.729131e+02,1.005007e+04
9.758058e+02,9.990910e+03
9.786985e+02,1.001539e+04
9.815912e+02,9.962433e+03
9.844839e+02,9.921673e+03
9.873766e+02,9.907600e+03
9.902693e+02,9.900354e+03
9.931620e+02,9.902213e+03
9.960547e+02,9.876031e+03
9.989474e+02,9.813817e+03
1.001840e+03,9.781983e+03
1.004733e+03,9.787736e+03
1.007626e+03,9.778459e+03
1.010518e+03,9.732363e+03
1.013411e+03,9.719084e+03
1.016304e+03,9.707638e+03
1.019196e+03,9.679110e+03
1.022089e+03,9.655671e+03
1.024982e+03,9.641466e+03
1.027875e+03,9.597591e+03
1.030767e+03,9.587093e+03
1.033660e+03,9.574002e+03
1.036552e+03,9.563700e+03
1.039445e+03,9.536085e+03
1.042338e+03,9.512613e+03
1.045231e+03,9.512907e+03
1.048123e+03,9.460720e+03
1.051016e+03,9.428370e+03
1.053909e+03,9.454448e+03
1.056802e+03,9.431931e+03
1.059694e+03,9.347519e+03
1.062587e+03,9.348804e+03
1.065479e+03,9.348447e+03
1.068372e+03,9.295905e+03
1.071265e+03,9.295989e+03
1.074158e+03,9.300999e+03
1.077050e+03,9.241567e+03
1.079943e+03,9.232701e+03
1.082836e+03,9.230925e+03
1.085729e+03,9.218751e+03
1.088621e+03,9.229370e+03
1.091514e+03,9.194793e+03
1.094406e+03,9.126697e+03
1.097299e+03,9.132576e+03
1.100192e+03,9.090544e+03
1.103085e+03,9.101240e+03
1.105977e+03,9.048943e+03
1.108870e+03,9.026890e+03
1.111763e+03,9.004582e+03
1.114656e+03,8.987536e+03
1.117548e+03,9.017691e+03
1.120441e+03,8.992387e+03
1.123334e+03,8.911022e+03
1.126226e+03,8.881201e+03
1.129119e+03,8.863171e+03
1.132012e+03,8.860073e+03
1.134904e+03,8.834722e+03
1.137797e+03,8.812631e+03
1.140690e+03,8.774108e+03
1.143583e+03,8.778900e+03
1.146475e+03,8.744854e+03
1.149368e+03,8.732104e+03
1.152261e+03,8.709886e+03
1.155153e+03,8.674816e+03
1.158046e+03,8.633424e+03
1.160939e+03,8.647566e+03
1.163831e+03,8.641849e+03
1.166724e+03,8.594126e+03
1.169617e+03,8.573663e+03
1.172510e+03,8.540840e+03
1.175402e+03,8.509698e+03
1.178295e+03,8.512800e+03
1.181188e+03,8.508082e+03
1.184080e+03,8.455484e+03
1.186973e+03,8.441861e+03
1.189866e+03,8.398680e+03
1.192758e+03,8.408872e+03
1.195651e+03,8.383104e+03
1.198544e+03,8.403549e+03
1.201437e+03,8.360061e+03
1.204329e+03,8.285807e+03
1.207222e+03,8.306010e+03
1.210115e+03,8.306577e+03
1.213007e+03,8.299249e+03
1.215900e+03,8.253877e+03
1.218793e+03,8.239125e+03
1.221685e+03,8.225202e+03
1.224578e+03,8.234647e+03
1.227471e+03,8.229881e+03
1.230364e+03,8.161544e+03
1.233256e+03,8.103475e+03
1.236149e+03,8.121160e+03
1.239042e+03,8.072075e+03
1.241934e+03,8.093091e+03
1.244827e+03,8.061632e+03
1.247720e+03,8.018501e+03
1.250612e+03,7.996030e+03
1.253505e+03,7.986507e+03
1.256398e+03,8.000032e+03
1.259291e+03,7.962110e+03
1.262183e+03,7.936071e+03
1.265076e+03,7.902282e+03
1.267969e+03,7.902378e+03
1.270861e+03,7.907550e+03
1.273754e+03,7.887011e+03
1.276647e+03,7.836896e+03
1.279539e+03,7.828225e+03
1.282432e+03,7.788537e+03
1.285325e+03,7.799315e+03
1.288218e+03,7.814166e+03
1.291110e+03,7.776515e+03
1.294003e+03,7.766677e+03
1.296896e+03,7.715691e+03
1.299788e+03,7.722020e+03
1.302681e+03,7.675624e+03
1.305574e+03,7.694688e+03
1.308466e+03,7.664805e+03
1.311359e+03,7.651087e+03
1.314252e+03,7.624881e+03
1.317145e+03,7.618194e+03
1.320037e+03,7.618930e+03
1.322930e+03,7.586468e+03
1.325823e+03,7.536011e+03
1.328715e+03,7.537510e+03
1.331608e+03,7.522682e+03
1.334501e+03,7.531370e+03
1.337393e+03,7.485104e+03
1.340286e+03,7.500898e+03
1.343179e+03,7.437331e+03
1.346072e+03,7.408593e+03
1.348964e+03,7.425250e+03
1.351857e+03,7.379080e+03
1.354750e+03,7.373843e+03
1.357642e+03,7.350022e+03
1.360535e+03,7.306060e+03
1.363428e+03,7.321048e+03
1.366320e+03,7.340404e+03
1.369213e+03,7.298322e+03
1.372106e+03,7.277094e+03
1.374999e+03,7.235968e+03
1.377891e+03,7.228376e+03
1.380784e+03,7.208468e+03
1.383677e+03,7.209110e+03
1.386569e+03,7.180763e+03
1.389462e+03,7.157294e+03
1.392355e+03,7.111179e+03
1.395247e+03,7.114611e+03
1.398140e+03,7.102538e+03
1.401033e+03,7.096626e+03
1.403926e+03,7.044011e+03
1.406818e+03,7.049582e+03
1.409711e+03,7.017041e+03
1.412604e+03,6.991040e+03
1.415496e+03,6.995460e+03
1.418389e+03,7.014601e+03
1.421282e+03,6.953882e+03
1.424174e+03,6.925850e+03
1.427067e+03,6.919483e+03
1.429960e+03,6.913542e+03
1.432853e+03,6.894800e+03
1.435745e+03,6.867494e+03
1.438638e+03,6.846638e+03
1.441531e+03,6.821326e+03
1.444423e+03,6.811778e+03
1.447316e+03,6.796971e+03
1.450209e+03,6.757034e+03
1.453101e+03,6.748904e+03
1.455994e+03,6.757347e+03
1.458887e+03,6.758126e+03
1.461780e+03,6.730877e+03
1.464672e+03,6.723450e+03
1.467565e+03,6.659706e+03
1.470458e+03,6.658249e+03
1.473350e+03,6.650448e+03
1.476243e+03,6.669907e+03
1.479136e+03,6.629131e+03
1.482028e+03,6.601524e+03
1.484921e+03,6.584048e+03
1.487814e+03,6.545732e+03
1.490707e+03,6.528202e+03
1.493599e+03,6.521185e+03
1.496492e+03,6.506990e+03
1.499385e+03,6.490664e+03
1.502277e+03,6.458201e+03
1.505170e+03,6.459501e+03
1.508063e+03,6.440319e+03
1.510955e+03,6.427087e+03
1.513848e+03,6.405759e+03
1.516741e+03,6.383291e+03
1.519634e+03,6.364102e+03
1.522526e+03,6.358421e+03
1.525419e+03,6.338483e+03
1.528312e+03,6.293528e+03
1.531204e+03,6.297913e+03
1.534097e+03,6.298386e+03
1.536990e+03,6.281505e+03
1.539882e+03,6.241104e+03
1.542775e+03,6.256576e+03
1.545668e+03,6.215549e+03
1.548561e+03,6.192011e+03
1.551453e+03,6.198968e+03
1.554346e+03,6.216345e+03
1.557239e+03,6.200258e+03
1.560131e+03,6.165296e+03
1.563024e+03,6.191095e+03
1.565917e+03,6.200827e+03
1.568809e+03,6.210518e+03
1.571702e+03,6.253595e+03
1.574595e+03,6.199070e+03
1.577488e+03,6.149888e+03
1.580380e+03,6.141757e+03
1.583273e+03,6.134278e+03
1.586166e+03,6.090667e+03
1.589058e+03,6.013332e+03
1.591951e+03,5.966762e+03
1.594844e+03,5.983686e+03
1.597736e+03,5.955646e+03
1.600629e+03,5.951192e+03
1.603522e+03,5.948443e+03
1.606415e+03,5.904150e+03
1.609307e+03,5.869661e+03
1.612200e+03,5.869279e+03
1.615093e+03,5.887263e+03
1.617985e+03,5.856337e+03
1.620878e+03,5.827646e+03
1.623771e+03,5.824322e+03
1.626663e+03,5.768169e+03
1.629556e+03,5.784572e+03
1.632449e+03,5.767610e+03
1.635342e+03,5.736522e+03
1.638234e+03,5.706812e+03
1.641127e+03,5.709645e+03
1.644020e+03,5.731693e+03
1.646912e+03,5.674472e+03
1.649805e+03,5.645884e+03
1.652698e+03,5.641495e+03
1.655590e+03,5.648616e+03
1.658483e+03,5.611804e+03
1.661376e+03,5.604709e+03
1.664269e+03,5.585588e+03
1.667161e+03,5.562080e+03
1.670054e+03,5.565165e+03
1.672947e+03,5.571764e+03
1.675839e+03,5.555558e+03
1.678732e+03,5.542041e+03
1.681625e+03,5.488136e+03
1.684517e+03,5.492095e+03
1.687410e+03,5.468435e+03
1.690303e+03,5.468888e+03
1.693196e+03,5.463534e+03
1.696088e+03,5.427236e+03
1.698981e+03,5.438275e+03
1.701874e+03,5.416259e+03
1.704766e+03,5.401896e+03
1.707659e+03,5.377053e+03
1.710552e+03,5.355505e+03
1.713444e+03,5.368651e+03
1.716337e+03,5.300264e+03
1.719230e+03,5.281347e+03
1.722123e+03,5.292254e+03
1.725015e+03,5.282640e+03
1.727908e+03,5.258602e+03
1.730801e+03,5.254275e+03
1.733693e+03,5.224831e+03
1.736586e+03,5.210439e+03
1.739479e+03,5.181704e+03
1.742371e+03,5.173034e+03
1.745264e+03,5.165546e+03
1.748157e+03,5.187974e+03
1.751050e+03,5.175303e+03
1.753942e+03,5.122804e+03
1.756835e+03,5.140156e+03
1.759728e+03,5.085795e+03
1.762620e+03,5.081517e+03
1.765513e+03,5.082213e+03
1.768406e+03,5.070561e+03
1.771298e+03,5.078984e+03
1.774191e+03,5.031850e+03
1.777084e+03,5.012295e+03
1.779977e+03,5.017118e+03
1.782869e+03,4.992953e+03
1.785762e+03,4.985438e+03
1.788655e+03,4.963804e+03
1.791547e+03,4.969217e+03
1.794440e+03,4.917629e+03
1.797333e+03,4.956759e+03
1.800225e+03,4.914501e+03
1.803118e+03,4.889510e+03
1.806011e+03,4.892404e+03
1.808904e+03,4.878039e+03
1.811796e+03,4.886690e+03
1.814689e+03,4.853542e+03
1.817582e+03,4.825727e+03
1.820474e+03,4.798004e+03
1.823367e+03,4.791275e+03
1.826260e+03,4.780935e+03
1.829152e+03,4.775451e+03
1.832045e+03,4.761319e+03
1.834938e+03,4.706717e+03
1.837831e+03,4.730419e+03
1.840723e+03,4.700494e+03
1.843616e+03,4.697089e+03
1.846509e+03,4.683752e+03
1.849401e+03,4.680041e+03
1.852294e+03,4.644268e+03
1.855187e+03,4.620009e+03
1.858079e+03,4.632409e+03
1.860972e+03,4.638397e+03
1.863865e+03,4.615795e+03
1.866758e+03,4.576757e+03
1.869650e+03,4.557403e+03
1.872543e+03,4.566663e+03
1.875436e+03,4.578400e+03
1.878328e+03,4.531803e+03
1.881221e+03,4.512083e+03
1.884114e+03,4.485391e+03
1.887006e+03,4.483083e+03
1.889899e+03,4.493055e+03
1.892792e+03,4.450021e+03
1.895685e+03,4.438249e+03
1.898577e+03,4.434240e+03
1.901470e+03,4.429466e+03
1.904363e+03,4.399049e+03
1.907255e+03,4.404798e+03
1.910148e+03,4.376726e+03
1.913041e+03,4.365274e+03
1.915933e+03,4.344374e+03
1.918826e+03,4.334849e+03
1.921719e+03,4.328381e+03
1.924612e+03,4.315127e+03
1.927504e+03,4.318381e+03
1.930397e+03,4.275252e+03
1.933290e+03,4.264967e+03
1.936182e+03,4.282141e+03
1.939075e+03,4.241405e+03
1.941968e+03,4.240347e+03
1.944860e+03,4.209313e+03
1.947753e+03,4.204977e+03
1.950646e+03,4.168195e+03
1.953539e+03,4.182702e+03
1.956431e+03,4.170243e+03
1.959324e+03,4.122720e+03
1.962217e+03,4.133533e+03
1.965109e+03,4.112861e+03
1.968002e+03,4.117417e+03
1.970895e+03,4.105346e+03
1.973787e+03,4.100781e+03
1.976680e+03,4.057729e+03
1.979573e+03,4.032020e+03
1.982466e+03,4.047324e+03
1.985358e+03,4.050848e+03
1.988251e+03,4.015397e+03
1.991144e+03,4.017416e+03
1.994036e+03,4.000724e+03
1.996929e+03,3.960974e+03
1.999822e+03,3.990880e+03
2.002714e+03,3.983030e+03
2.005607e+03,3.968425e+03
2.008500e+03,3.960038e+03
2.011393e+03,3.910402e+03
2.014285e+03,3.937083e+03
2.017178e+03,3.888269e+03
2.020071e+03,3.866550e+03
2.022963e+03,3.860729e+03
2.025856e+03,3.843762e+03
2.028749e+03,3.840860e+03
2.031641e+03,3.831151e+03
2.034534e+03,3.835012e+03
2.037427e+03,3.816580e+03
2.040320e+03,3.752282e+03
2.043212e+03,3.758017e+03
2.046105e+03,3.770401e+03
2.048998e+03,3.768211e+03
2.051890e+03,3.745095e+03
2.054783e+03,3.721862e+03
2.057676e+03,3.706905e+03
2.060568e+03,3.706271e+03
2.063461e+03,3.707277e+03
2.066354e+03,3.674556e+03
2.069247e+03,3.664609e+03
2.072139e+03,3.640770e+03
2.075032e+03,3.639316e+03
2.077925e+03,3.618579e+03
2.080817e+03,3.606231e+03
2.083710e+03,3.602015e+03
2.086603e+03,3.578419e+03
2.089496e+03,3.592542e+03
2.092388e+03,3.576201e+03
2.095281e+03,3.540506e+03
2.098174e+03,3.554108e+03
2.101066e+03,3.553676e+03
2.103959e+03,3.491513e+03
2.106852e+03,3.507579e+03
2.109744e+03,3.508408e+03
2.112637e+03,3.479124e+03
2.115530e+03,3.430752e+03
2.118422e+03,3.477345e+03
2.121315e+03,3.483045e+03
2.124208e+03,3.447017e+03
2.127101e+03,3.416458e+03
2.129993e+03,3.394643e+03
2.132886e+03,3.390728e+03
2.135779e+03,3.417519e+03
2.138671e+03,3.380617e+03
2.141564e+03,3.365076e+03
2.144457e+03,3.357123e+03
2.147350e+03,3.324292e+03
2.150242e+03,3.340310e+03
2.153135e+03,3.319144e+03
2.156028e+03,3.328221e+03
2.158920e+03,3.312181e+03
2.161813e+03,3.304104e+03
2.164706e+03,3.299546e+03
2.167598e+03,3.265249e+03
2.170491e+03,3.284122e+03
2.173384e+03,3.259298e+03
2.176277e+03,3.230414e+03
2.179169e+03,3.211336e+03
2.182062e+03,3.209332e+03
2.184955e+03,3.211148e+03
2.187847e+03,3.172627e+03
2.190740e+03,3.183690e+03
2.193633e+03,3.168387e+03
2.196525e+03,3.144869e+03
2.199418e+03,3.129402e+03
2.202311e+03,3.116177e+03
2.205204e+03,3.143073e+03
2.208096e+03,3.105016e+03
2.210989e+03,3.056384e+03
2.213882e+03,3.085961e+03
2.216774e+03,3.075732e+03
2.219667e+03,3.066086e+03
2.222560e+03,3.018600e+03
2.225452e+03,3.023485e+03
2.228345e+03,3.017262e+03
2.231238e+03,3.019515e+03
2.234131e+03,3.031161e+03
2.237023e+03,3.002318e+03
2.239916e+03,2.981652e+03
2.242809e+03,2.974997e+03
2.245701e+03,2.954175e+03
2.248594e+03,2.959885e+03
2.251487e+03,2.943605e+03
2.254379e+03,2.946919e+03
2.257272e+03,2.923250e+03
2.260165e+03,2.899557e+03
2.263058e+03,2.886294e+03
2.265950e+03,2.879001e+03
2.268843e+03,2.860491e+03
2.271736e+03,2.888441e+03
2.274628e+03,2.854436e+03
2.277521e+03,2.847751e+03
2.280414e+03,2.851740e+03
2.283306e+03,2.833592e+03
2.286199e+03,2.794731e+03
2.289092e+03,2.809299e+03
2.291985e+03,2.777192e+03
2.294877e+03,2.767508e+03
2.297770e+03,2.764234e+03
2.300663e+03,2.755310e+03
2.303555e+03,2.733355e+03
2.306448e+03,2.742990e+03
2.309341e+03,2.740182e+03
2.312233e+03,2.738711e+03
2.315126e+03,2.709305e+03
2.318019e+03,2.708241e+03
2.320912e+03,2.692787e+03
2.323804e+03,2.685588e+03
2.326697e+03,2.674655e+03
2.329590e+03,2.680922e+03
2.332482e+03,2.653979e+03
2.335375e+03,2.629240e+03
2.338268e+03,2.640523e+03
2.341160e+03,2.618497e+03
2.344053e+03,2.622552e+03
2.346946e+03,2.612606e+03
2.349839e+03,2.602527e+03
2.352731e+03,2.576845e+03
2.355624e+03,2.572869e+03
2.358517e+03,2.591609e+03
2.361409e+03,2.596069e+03
2.364302e+03,2.552507e+03
2.367195e+03,2.535848e+03
2.370087e+03,2.534643e+03
2.372980e+03,2.523196e+03
2.375873e+03,2.529314e+03
2.378766e+03,2.506527e+03
2.381658e+03,2.490558e+03
2.384551e+03,2.498249e+03
2.387444e+03,2.482670e+03
2.390336e+03,2.466100e+03
2.393229e+03,2.487154e+03
2.396122e+03,2.451364e+03
2.399014e+03,2.445628e+03
2.401907e+03,2.431875e+03
2.404800e+03,2.430217e+03
2.407693e+03,2.445199e+03
2.410585e+03,2.406691e+03
2.413478e+03,2.399475e+03
2.416371e+03,2.381535e+03
2.419263e+03,2.383953e+03
2.422156e+03,2.385827e+03
2.425049e+03,2.384793e+03
2.427941e+03,2.360677e+03
2.430834e+03,2.350999e+03
2.433727e+03,2.368031e+03
2.436620e+03,2.348379e+03
2.439512e+03,2.334833e+03
2.442405e+03,2.327045e+03
2.445298e+03,2.306967e+03
2.448190e+03,2.305634e+03
2.451083e+03,2.323421e+03
2.453976e+03,2.308156e+03
2.456868e+03,2.305340e+03
2.459761e+03,2.271872e+03
2.462654e+03,2.249402e+03
2.465547e+03,2.232805e+03
2.468439e+03,2.257586e+03
2.471332e+03,2.256615e+03
2.474225e+03,2.237416e+03
2.477117e+03,2.233148e+03
2.480010e+03,2.256837e+03
2.482903e+03,2.199120e+03
2.485795e+03,2.221493e+03
2.488688e+03,2.213394e+03
2.491581e+03,2.200277e+03
2.494474e+03,2.198194e+03
2.497366e+03,2.195105e+03
2.500259e+03,2.166411e+03
2.503152e+03,2.181769e+03
2.506044e+03,2.161569e+03
2.508937e+03,2.137538e+03
2.511830e+03,2.154127e+03
2.514722e+03,2.166161e+03
2.517615e+03,2.141264e+03
2.520508e+03,2.137648e+03
2.523401e+03,2.127383e+03
2.526293e+03,2.117979e+03
2.529186e+03,2.103980e+03
2.532079e+03,2.097923e+03
2.534971e+03,2.115809e+03
2.537864e+03,2.090506e+03
2.540757e+03,2.076605e+03
2.543649e+03,2.076190e+03
2.546542e+03,2.096126e+03
2.549435e+03,2.079930e+03
2.552328e+03,2.059439e+03
2.555220e+03,2.080514e+03
2.558113e+03,2.047316e+03
2.561006e+03,2.051508e+03
2.563898e+03,2.057861e+03
2.566791e+03,2.046503e+03
2.569684e+03,2.037501e+03
2.572576e+03,2.039634e+03
2.575469e+03,2.018109e+03
2.578362e+03,2.022297e+03
2.581255e+03,2.011306e+03
2.584147e+03,1.988876e+03
2.587040e+03,1.994451e+03
2.589933e+03,1.979905e+03
2.592825e+03,1.972661e+03
2.595718e+03,1.985999e+03
2.598611e+03,1.975541e+03
2.601503e+03,1.963810e+03
2.604396e+03,1.963734e+03
2.607289e+03,1.949512e+03
2.610182e+03,1.958778e+03
2.613074e+03,1.920215e+03
2.615967e+03,1.925319e+03
2.618860e+03,1.943367e+03
2.621752e+03,1.906354e+03
2.624645e+03,1.922088e+03
2.627538e+03,1.921885e+03
2.630430e+03,1.933052e+03
2.633323e+03,1.901895e+03
2.636216e+03,1.904741e+03
2.639109e+03,1.898424e+03
2.642001e+03,1.885512e+03
2.644894e+03,1.878607e+03
2.647787e+03,1.862199e+03
2.650679e+03,1.870602e+03
2.653572e+03,1.847196e+03
2.656465e+03,1.876354e+03
2.659357e+03,1.844596e+03
2.662250e+03,1.864031e+03
2.665143e+03,1.849203e+03
2.668036e+03,1.856586e+03
2.670928e+03,1.837577e+03
2.673821e+03,1.818543e+03
2.676714e+03,1.812366e+03
2.679606e+03,1.824871e+03
2.682499e+03,1.833209e+03
2.685392e+03,1.806490e+03
2.688284e+03,1.825928e+03
2.691177e+03,1.793389e+03
2.694070e+03,1.799479e+03
2.696963e+03,1.775003e+03
2.699855e+03,1.800241e+03
2.702748e+03,1.779083e+03
2.705641e+03,1.777145e+03
2.708533e+03,1.756343e+03
2.711426e+03,1.777752e+03
2.714319e+03,1.741453e+03
2.717211e+03,1.757859e+03
2.720104e+03,1.775777e+03
2.722997e+03,1.755574e+03
2.725890e+03,1.746068e+03
2.728782e+03,1.736615e+03
2.731675e+03,1.724500e+03
2.734568e+03,1.730648e+03
2.737460e+03,1.709484e+03
2.740353e+03,1.723226e+03
2.743246e+03,1.709055e+03
2.746138e+03,1.730802e+03
2.749031e+03,1.696117e+03
2.751924e+03,1.699827e+03
2.754817e+03,1.682474e+03
2.757709e+03,1.676525e+03
2.760602e+03,1.678144e+03
2.763495e+03,1.697495e+03
2.766387e+03,1.675155e+03
2.769280e+03,1.688230e+03
2.772173e+03,1.678523e+03
2.775065e+03,1.697637e+03
2.777958e+03,1.657041e+03
2.780851e+03,1.669119e+03
2.783744e+03,1.635256e+03
2.786636e+03,1.675244e+03
2.789529e+03,1.642217e+03
2.792422e+03,1.652288e+03
2.795314e+03,1.647455e+03
2.798207e+03,1.620849e+03
2.801100e+03,1.647468e+03
2.803992e+03,1.652060e+03
2.806885e+03,1.649435e+03
2.809778e+03,1.596559e+03
2.812671e+03,1.626344e+03
2.815563e+03,1.623704e+03
2.818456e+03,1.641365e+03
2.821349e+03,1.592484e+03
2.824241e+03,1.620007e+03
2.827134e+03,1.599318e+03
2.830027e+03,1.614728e+03
2.832919e+03,1.631308e+03
2.835812e+03,1.616350e+03
2.838705e+03,1.596205e+03
2.841598e+03,1.567301e+03
2.844490e+03,1.568853e+03
2.847383e+03,1.571017e+03
2.850276e+03,1.604506e+03
2.853168e+03,1.562707e+03
2.856061e+03,1.572468e+03
2.858954e+03,1.593837e+03
2.861846e+03,1.561404e+03
2.864739e+03,1.580950e+03
2.867632e+03,1.584481e+03
2.870525e+03,1.586739e+03
2.873417e+03,1.608628e+03
2.876310e+03,1.592865e+03
2.879203e+03,1.552650e+03
2.882095e+03,1.584467e+03
2.884988e+03,1.574345e+03
2.887881e+03,1.562895e+03
2.890773e+03,1.576698e+03
2.893666e+03,1.573731e+03
2.896559e+03,1.559928e+03
2.899452e+03,1.559407e+03
2.902344e+03,1.561361e+03
2.905237e+03,1.553154e+03
2.908130e+03,1.547897e+03
2.911022e+03,1.533326e+03
2.913915e+03,1.522797e+03
2.916808e+03,1.538385e+03
2.919700e+03,1.523978e+03
2.922593e+03,1.501700e+03
2.925486e+03,1.549623e+03
2.928379e+03,1.531726e+03
2.931271e+03,1.518157e+03
2.934164e+03,1.491716e+03
2.937057e+03,1.540320e+03
2.939949e+03,1.511595e+03
2.942842e+03,1.509328e+03
2.945735e+03,1.479137e+03
2.948627e+03,1.489535e+03
2.951520e+03,1.489428e+03
2.954413e+03,1.494053e+03
2.957306e+03,1.538770e+03
2.960198e+03,1.485799e+03
2.963091e+03,1.492275e+03
2.965984e+03,1.478687e+03
2.968876e+03,1.417952e+03
2.971769e+03,1.461916e+03
2.974662e+03,1.456358e+03
2.977554e+03,1.464614e+03
2.980447e+03,1.449951e+03
2.983340e+03,1.455469e+03
2.986233e+03,1.443732e+03
2.989125e+03,1.459613e+03
2.992018e+03,1.431985e+03
2.994911e+03,1.414391e+03
2.997803e+03,1.477349e+03
3.000696e+03,1.438844e+03
3.003589e+03,1.393825e+03
3.006481e+03,1.412323e+03
3.009374e+03,1.407494e+03
3.012267e+03,1.384698e+03
3.015160e+03,1.437098e+03
3.018052e+03,1.403362e+03
3.020945e+03,1.449506e+03
3.023838e+03,1.431849e+03
3.026730e+03,1.412733e+03
3.029623e+03,1.436110e+03
3.032516e+03,1.378497e+03
3.035408e+03,1.417764e+03
3.038301e+03,1.396053e+03
3.041194e+03,1.383549e+03
3.044087e+03,1.430708e+03
3.046979e+03,1.407267e+03
3.049872e+03,1.406325e+03
3.052765e+03,1.396238e+03
3.055657e+03,1.409974e+03
3.058550e+03,1.452799e+03
3.061443e+03,1.397908e+03
3.064335e+03,1.423873e+03
3.067228e+03,1.403315e+03
3.070121e+03,1.397020e+03
3.073014e+03,1.410043e+03
3.075906e+03,1.388148e+03
3.078799e+03,1.405031e+03
3.081692e+03,1.378749e+03
3.084584e+03,1.402461e+03
3.087477e+03,1.425277e+03
3.090370e+03,1.383424e+03
3.093262e+03,1.378220e+03
3.096155e+03,1.400873e+03
3.099048e+03,1.407102e+03
3.101941e+03,1.408056e+03
3.104833e+03,1.396945e+03
3.107726e+03,1.425820e+03
3.110619e+03,1.370360e+03
3.113511e+03,1.373383e+03
3.116404e+03,1.434682e+03
3.119297e+03,1.356449e+03
3.122189e+03,1.400597e+03
3.125082e+03,1.390723e+03
3.127975e+03,1.411814e+03
3.130868e+03,1.351414e+03
3.133760e+03,1.404686e+03
3.136653e+03,1.386889e+03
3.139546e+03,1.437845e+03
3.142438e+03,1.393922e+03
3.145331e+03,1.434503e+03
3.148224e+03,1.415559e+03
3.151116e+03,1.381350e+03
3.154009e+03,1.436928e+03
3.156902e+03,1.408789e+03
3.159795e+03,1.464130e+03
3.162687e+03,1.464122e+03
3.165580e+03,1.444010e+03
3.168473e+03,1.414315e+03
3.171365e+03,1.446367e+03
3.174258e+03,1.419042e+03
3.177151e+03,1.424280e+03
3.180043e+03,1.413065e+03
3.182936e+03,1.457349e+03
3.185829e+03,1.433894e+03
3.188722e+03,1.417653e+03
3.191614e+03,1.432125e+03
3.194507e+03,1.419501e+03
3.197400e+03,1.434717e+03
3.200292e+03,1.498232e+03
3.203185e+03,0.000000e+00
3.206078e+03,0.000000e+00
3.208970e+03,0.000000e+00
3.211863e+03,0.000000e+00
3.214756e+03,0.000000e+00
3.217649e+03,0.000000e+00
3.220541e+03,0.000000e+00
3.223434e+03,0.000000e+00
3.226327e+03,0.000000e+00
3.229219e+03,0.000000e+00
3.232112e+03,0.000000e+00
3.235005e+03,0.000000e+00
3.237897e+03,0.000000e+00
3.240790e+03,0.000000e+00
3.243683e+03,0.000000e+00
3.246576e+03,0.000000e+00
3.249468e+03,0.000000e+00
3.252361e+03,0.000000e+00
3.255254e+03,0.000000e+00
3.258146e+03,0.000000e+00
3.261039e+03,0.000000e+00
3.263932e+03,0.000000e+00
3.266824e+03,0.000000e+00
3.269717e+03,0.000000e+00
3.272610e+03,0.000000e+00
3.275503e+03,0.000000e+00
3.278395e+03,0.000000e+00
3.281288e+03,0.000000e+00
3.284181e+03,0.000000e+00
3.287073e+03,0.000000e+00
3.289966e+03,0.000000e+00
3.292859e+03,0.000000e+00
3.295751e+03,0.000000e+00
3.298644e+03,0.000000e+00
3.301537e+03,0.000000e+00
3.304430e+03,0.000000e+00
3.307322e+03,0.000000e+00
3.310215e+03,0.000000e+00
3.313108e+03,0.000000e+00
3.316000e+03,0.000000e+00
3.318893e+03,0.000000e+00
3.321786e+03,0.000000e+00
3.324678e+03,0.000000e+00
3.327571e+03,0.000000e+00
3.330464e+03,0.000000e+00
3.333357e+03,0.000000e+00
3.336249e+03,0.000000e+00
3.339142e+03,0.000000e+00
3.342035e+03,0.000000e+00
3.344927e+03,0.000000e+00
3.347820e+03,0.000000e+00
3.350713e+03,0.000000e+00
3.353605e+03,0.000000e+00
3.356498e+03,0.000000e+00
3.359391e+03,0.000000e+00
3.362284e+03,0.000000e+00
3.365176e+03,0.000000e+00
3.368069e+03,0.000000e+00
3.370962e+03,0.000000e+00
3.373854e+03,0.000000e+00
3.376747e+03,0.000000e+00
3.379640e+03,0.000000e+00
3.382532e+03,0.000000e+00
3.385425e+03,0.000000e+00
3.388318e+03,0.000000e+00
3.391211e+03,0.000000e+00
3.394103e+03,0.000000e+00
3.396996e+03,0.000000e+00
3.399889e+03,0.000000e+00
3.402781e+03,0.000000e+00
3.405674e+03,0.000000e+00
3.408567e+03,0.000000e+00
3.411459e+03,0.000000e+00
3.414352e+03,0.000000e+00
3.417245e+03,0.000000e+00
3.420138e+03,0.000000e+00
3.423030e+03,0.000000e+00
3.425923e+03,0.000000e+00
3.428816e+03,0.000000e+00
3.431708e+03,0.000000e+00
3.434601e+03,0.000000e+00
3.437494e+03,0.000000e+00
3.440386e+03,0.000000e+00
3.443279e+03,0.000000e+00
3.446172e+03,0.000000e+00
3.449065e+03,0.000000e+00
3.451957e+03,0.000000e+00
3.454850e+03,0.000000e+00
3.457743e+03,0.000000e+00
3.460635e+03,0.000000e+00
3.463528e+03,0.000000e+00
3.466421e+03,0.000000e+00
3.469313e+03,0.000000e+00
3.472206e+03,0.000000e+00
3.475099e+03,0.000000e+00
3.477992e+03,0.000000e+00
3.480884e+03,0.000000e+00
3.483777e+03,0.000000e+00
3.486670e+03,0.000000e+00
3.489563e+03,0.000000e+00
3.492455e+03,0.000000e+00
3.495348e+03,0.000000e+00
3.498240e+03,0.000000e+00
3.500169e+03,0.000000e+00