File: RAMAN_data/23052023_r3/black fibre3.CSV
9.931763e+01,0.000000e+00
1.022103e+02,0.000000e+00
1.051030e+02,0.000000e+00
1.079957e+02,0.000000e+00
1.108884e+02,0.000000e+00
1.137811e+02,0.000000e+00
1.166738e+02,0.000000e+00
1.195665e+02,0.000000e+00
1.224592e+02,0.000000e+00
1.253519e+02,0.000000e+00
1.282446e+02,0.000000e+00
1.311373e+02,0.000000e+00
1.340300e+02,0.000000e+00
1.369227e+02,0.000000e+00
1.398154e+02,0.000000e+00
1.427081e+02,0.000000e+00
1.456008e+02,0.000000e+00
1.484935e+02,0.000000e+00
1.513862e+02,0.000000e+00
1.542789e+02,0.000000e+00
1.571716e+02,0.000000e+00
1.600643e+02,0.000000e+00
1.629570e+02,0.000000e+00
1.658497e+02,0.000000e+00
1.687424e+02,0.000000e+00
1.716351e+02,0.000000e+00
1.745278e+02,0.000000e+00
1.774205e+02,0.000000e+00
1.803132e+02,0.000000e+00
1.832059e+02,0.000000e+00
1.860986e+02,0.000000e+00
1.889913e+02,0.000000e+00
1.918840e+02,0.000000e+00
1.947767e+02,0.000000e+00
1.976694e+02,0.000000e+00
2.005621e+02,2.906695e+03
2.034548e+02,2.901019e+03
2.063475e+02,2.919674e+03
2.092402e+02,2.923223e+03
2.121329e+02,2.935527e+03
2.150256e+02,2.929910e+03
2.179183e+02,2.919282e+03
2.208110e+02,2.936741e+03
2.237037e+02,2.929414e+03
2.265964e+02,2.942911e+03
2.294892e+02,2.930987e+03
2.323819e+02,2.944077e+03
2.352746e+02,2.940017e+03
2.381673e+02,2.947235e+03
2.410600e+02,2.948582e+03
2.439527e+02,2.955452e+03
2.468454e+02,2.968095e+03
2.497381e+02,2.961366e+03
2.526308e+02,2.979222e+03
2.555235e+02,2.985177e+03
2.584161e+02,2.985335e+03
2.613088e+02,2.963274e+03
2.642015e+02,2.974627e+03
2.670942e+02,2.993728e+03
2.699869e+02,2.991540e+03
2.728796e+02,2.999859e+03
2.757723e+02,3.000168e+03
2.786650e+02,3.015575e+03
2.815577e+02,3.009610e+03
2.844504e+02,3.017122e+03
2.873431e+02,3.010328e+03
2.902358e+02,3.007587e+03
2.931285e+02,3.007622e+03
2.960212e+02,3.014104e+03
2.989139e+02,3.012167e+03
3.018066e+02,3.007343e+03
3.046993e+02,3.012976e+03
3.075920e+02,3.007160e+03
3.104847e+02,3.016017e+03
3.133774e+02,3.026180e+03
3.162701e+02,3.029941e+03
3.191628e+02,3.038145e+03
3.220555e+02,3.017899e+03
3.249482e+02,3.037178e+03
3.278409e+02,3.024398e+03
3.307336e+02,3.025891e+03
3.336263e+02,3.033603e+03
3.365190e+02,3.033185e+03
3.394117e+02,3.024474e+03
3.423044e+02,3.042233e+03
3.451971e+02,3.039886e+03
3.480898e+02,3.043979e+03
3.509825e+02,3.026073e+03
3.538752e+02,3.037099e+03
3.567680e+02,3.046198e+03
3.596607e+02,3.061006e+03
3.625534e+02,3.061834e+03
3.654461e+02,3.050926e+03
3.683388e+02,3.031898e+03
3.712315e+02,3.053469e+03
3.741242e+02,3.058048e+03
3.770169e+02,3.048527e+03
3.799096e+02,3.057047e+03
3.828023e+02,3.057913e+03
3.856950e+02,3.054859e+03
3.885877e+02,3.047589e+03
3.914804e+02,3.042920e+03
3.943731e+02,3.040977e+03
3.972658e+02,3.039572e+03
4.001585e+02,3.053218e+03
4.030512e+02,3.064456e+03
4.059439e+02,3.045983e+03
4.088366e+02,3.058423e+03
4.117293e+02,3.065751e+03
4.146220e+02,3.053064e+03
4.175147e+02,3.057216e+03
4.204074e+02,3.044597e+03
4.233001e+02,3.046926e+03
4.261928e+02,3.051664e+03
4.290855e+02,3.057154e+03
4.319782e+02,3.052154e+03
4.348709e+02,3.053860e+03
4.377636e+02,3.059095e+03
4.406563e+02,3.046486e+03
4.435490e+02,3.041715e+03
4.464417e+02,3.053692e+03
4.493344e+02,3.045770e+03
4.522271e+02,3.054223e+03
4.551198e+02,3.036705e+03
4.580125e+02,3.034304e+03
4.609052e+02,3.042888e+03
4.637979e+02,3.030182e+03
4.666906e+02,3.026098e+03
4.695833e+02,3.035187e+03
4.724760e+02,3.047331e+03
4.753687e+02,3.054504e+03
4.782614e+02,3.048846e+03
4.811541e+02,3.075407e+03
4.840468e+02,3.088643e+03
4.869395e+02,3.107831e+03
4.898322e+02,3.079489e+03
4.927249e+02,3.057751e+03
4.956176e+02,3.056541e+03
4.985103e+02,3.043370e+03
5.014030e+02,3.046110e+03
5.042957e+02,3.028166e+03
5.071884e+02,3.034252e+03
5.100811e+02,3.029269e+03
5.129738e+02,3.028046e+03
5.158665e+02,3.010993e+03
5.187592e+02,3.036705e+03
5.216519e+02,3.008067e+03
5.245446e+02,3.012385e+03
5.274373e+02,3.018156e+03
5.303300e+02,3.015386e+03
5.332227e+02,3.010884e+03
5.361154e+02,3.017617e+03
5.390081e+02,3.012306e+03
5.419008e+02,3.015934e+03
5.447935e+02,3.007663e+03
5.476862e+02,3.004137e+03
5.505789e+02,2.992505e+03
5.534716e+02,2.981235e+03
5.563643e+02,2.985578e+03
5.592570e+02,2.994832e+03
5.621497e+02,2.999289e+03
5.650424e+02,2.985556e+03
5.679351e+02,2.986341e+03
5.708278e+02,2.971072e+03
5.737205e+02,2.985773e+03
5.766132e+02,2.993595e+03
5.795059e+02,2.979887e+03
5.823986e+02,2.982679e+03
5.852913e+02,2.966979e+03
5.881840e+02,2.962397e+03
5.910767e+02,2.966681e+03
5.939694e+02,2.966753e+03
5.968621e+02,2.972896e+03
5.997548e+02,2.970452e+03
6.026475e+02,2.959408e+03
6.055402e+02,2.963505e+03
6.084329e+02,2.975052e+03
6.113256e+02,2.959001e+03
6.142183e+02,2.962157e+03
6.171110e+02,2.949766e+03
6.200037e+02,2.954190e+03
6.228964e+02,2.953234e+03
6.257891e+02,2.945973e+03
6.286818e+02,2.939602e+03
6.315745e+02,2.938906e+03
6.344672e+02,2.928901e+03
6.373599e+02,2.927739e+03
6.402526e+02,2.937612e+03
6.431453e+02,2.928102e+03
6.460380e+02,2.917738e+03
6.489307e+02,2.925565e+03
6.518234e+02,2.924543e+03
6.547161e+02,2.916688e+03
6.576088e+02,2.899728e+03
6.605015e+02,2.903586e+03
6.633942e+02,2.904232e+03
6.662869e+02,2.910913e+03
6.691796e+02,2.897288e+03
6.720723e+02,2.894197e+03
6.749650e+02,2.891538e+03
6.778577e+02,2.894606e+03
6.807504e+02,2.892541e+03
6.836431e+02,2.880529e+03
6.865358e+02,2.878539e+03
6.894285e+02,2.862964e+03
6.923212e+02,2.884888e+03
6.952139e+02,2.878249e+03
6.981066e+02,2.875741e+03
7.009993e+02,2.883733e+03
7.038920e+02,2.863436e+03
7.067847e+02,2.861341e+03
7.096774e+02,2.865052e+03
7.125701e+02,2.844005e+03
7.154628e+02,2.856401e+03
7.183555e+02,2.856882e+03
7.212482e+02,2.834475e+03
7.241409e+02,2.846450e+03
7.270336e+02,2.823751e+03
7.299263e+02,2.819321e+03
7.328190e+02,2.823387e+03
7.357117e+02,2.836663e+03
7.386044e+02,2.820996e+03
7.414971e+02,2.821492e+03
7.443898e+02,2.813984e+03
7.472825e+02,2.837829e+03
7.501752e+02,2.804262e+03
7.530679e+02,2.811891e+03
7.559606e+02,2.809133e+03
7.588533e+02,2.789419e+03
7.617460e+02,2.813183e+03
7.646387e+02,2.781706e+03
7.675314e+02,2.782145e+03
7.704241e+02,2.772477e+03
7.733168e+02,2.776356e+03
7.762095e+02,2.778821e+03
7.791022e+02,2.776760e+03
7.819949e+02,2.757038e+03
7.848876e+02,2.759569e+03
7.877803e+02,2.742561e+03
7.906730e+02,2.766661e+03
7.935657e+02,2.769916e+03
7.964584e+02,2.749144e+03
7.993511e+02,2.751398e+03
8.022438e+02,2.749308e+03
8.051365e+02,2.750297e+03
8.080292e+02,2.735397e+03
8.109219e+02,2.741174e+03
8.138146e+02,2.736690e+03
8.167073e+02,2.722463e+03
8.196000e+02,2.737940e+03
8.224927e+02,2.735010e+03
8.253854e+02,2.712653e+03
8.282781e+02,2.723783e+03
8.311708e+02,2.711855e+03
8.340635e+02,2.711693e+03
8.369562e+02,2.699497e+03
8.398489e+02,2.691998e+03
8.427416e+02,2.682572e+03
8.456343e+02,2.693713e+03
8.485270e+02,2.702658e+03
8.514197e+02,2.669223e+03
8.543124e+02,2.676775e+03
8.572051e+02,2.667288e+03
8.600978e+02,2.674599e+03
8.629905e+02,2.666323e+03
8.658832e+02,2.666964e+03
8.687759e+02,2.651510e+03
8.716686e+02,2.661780e+03
8.745613e+02,2.651859e+03
8.774540e+02,2.648054e+03
8.803467e+02,2.650360e+03
8.832394e+02,2.656800e+03
8.861321e+02,2.659276e+03
8.890248e+02,2.641278e+03
8.919175e+02,2.623251e+03
8.948102e+02,2.627145e+03
8.977029e+02,2.626941e+03
9.005956e+02,2.634054e+03
9.034883e+02,2.622198e+03
9.063810e+02,2.611889e+03
9.092737e+02,2.602348e+03
9.121664e+02,2.600406e+03
9.150591e+02,2.595717e+03
9.179518e+02,2.595627e+03
9.208445e+02,2.574370e+03
9.237372e+02,2.574681e+03
9.266299e+02,2.568875e+03
9.295226e+02,2.569800e+03
9.324153e+02,2.580634e+03
9.353080e+02,2.561120e+03
9.382007e+02,2.546446e+03
9.410934e+02,2.552772e+03
9.439861e+02,2.535390e+03
9.468788e+02,2.544387e+03
9.497715e+02,2.539070e+03
9.526642e+02,2.532432e+03
9.555569e+02,2.528101e+03
9.584496e+02,2.541030e+03
9.613423e+02,2.519219e+03
9.642350e+02,2.522527e+03
9.671277e+02,2.507887e+03
9.700204e+02,2.502853e+03
9.729131e+02,2.511649e+03
9.758058e+02,2.495731e+03
9.786985e+02,2.494276e+03
9.815912e+02,2.489971e+03
9.844839e+02,2.477332e+03
9.873766e+02,2.484370e+03
9.902693e+02,2.485558e+03
9.931620e+02,2.489211e+03
9.960547e+02,2.487669e+03
9.989474e+02,2.486071e+03
1.001840e+03,2.471011e+03
1.004733e+03,2.474323e+03
1.007626e+03,2.475790e+03
1.010518e+03,2.467621e+03
1.013411e+03,2.446722e+03
1.016304e+03,2.446771e+03
1.019196e+03,2.453359e+03
1.022089e+03,2.449985e+03
1.024982e+03,2.437577e+03
1.027875e+03,2.450200e+03
1.030767e+03,2.429013e+03
1.033660e+03,2.433159e+03
1.036552e+03,2.415792e+03
1.039445e+03,2.427792e+03
1.042338e+03,2.422832e+03
1.045231e+03,2.424176e+03
1.048123e+03,2.405638e+03
1.051016e+03,2.407456e+03
1.053909e+03,2.402089e+03
1.056802e+03,2.399682e+03
1.059694e+03,2.400000e+03
1.062587e+03,2.379327e+03
1.065479e+03,2.382297e+03
1.068372e+03,2.391467e+03
1.071265e+03,2.383667e+03
1.074158e+03,2.395167e+03
1.077050e+03,2.363371e+03
1.079943e+03,2.374722e+03
1.082836e+03,2.386876e+03
1.085729e+03,2.382491e+03
1.088621e+03,2.377458e+03
1.091514e+03,2.399500e+03
1.094406e+03,2.383531e+03
1.097299e+03,2.378045e+03
1.100192e+03,2.359018e+03
1.103085e+03,2.344392e+03
1.105977e+03,2.346282e+03
1.108870e+03,2.358789e+03
1.111763e+03,2.357036e+03
1.114656e+03,2.354000e+03
1.117548e+03,2.373229e+03
1.120441e+03,2.368641e+03
1.123334e+03,2.369880e+03
1.126226e+03,2.361969e+03
1.129119e+03,2.354765e+03
1.132012e+03,2.358495e+03
1.134904e+03,2.350151e+03
1.137797e+03,2.338546e+03
1.140690e+03,2.344245e+03
1.143583e+03,2.330338e+03
1.146475e+03,2.321440e+03
1.149368e+03,2.325092e+03
1.152261e+03,2.347683e+03
1.155153e+03,2.330379e+03
1.158046e+03,2.324408e+03
1.160939e+03,2.279922e+03
1.163831e+03,2.285317e+03
1.166724e+03,2.271038e+03
1.169617e+03,2.289185e+03
1.172510e+03,2.269294e+03
1.175402e+03,2.273154e+03
1.178295e+03,2.292351e+03
1.181188e+03,2.281857e+03
1.184080e+03,2.273976e+03
1.186973e+03,2.248891e+03
1.189866e+03,2.261392e+03
1.192758e+03,2.252070e+03
1.195651e+03,2.244864e+03
1.198544e+03,2.247503e+03
1.201437e+03,2.231915e+03
1.204329e+03,2.221962e+03
1.207222e+03,2.229344e+03
1.210115e+03,2.227409e+03
1.213007e+03,2.238380e+03
1.215900e+03,2.218185e+03
1.218793e+03,2.224729e+03
1.221685e+03,2.205956e+03
1.224578e+03,2.200021e+03
1.227471e+03,2.205679e+03
1.230364e+03,2.197288e+03
1.233256e+03,2.178986e+03
1.236149e+03,2.184351e+03
1.239042e+03,2.177214e+03
1.241934e+03,2.179119e+03
1.244827e+03,2.181612e+03
1.247720e+03,2.177596e+03
1.250612e+03,2.157504e+03
1.253505e+03,2.159225e+03
1.256398e+03,2.150149e+03
1.259291e+03,2.160542e+03
1.262183e+03,2.157262e+03
1.265076e+03,2.157338e+03
1.267969e+03,2.167669e+03
1.270861e+03,2.174675e+03
1.273754e+03,2.187201e+03
1.276647e+03,2.185881e+03
1.279539e+03,2.185292e+03
1.282432e+03,2.177327e+03
1.285325e+03,2.177945e+03
1.288218e+03,2.167252e+03
1.291110e+03,2.140558e+03
1.294003e+03,2.143569e+03
1.296896e+03,2.110022e+03
1.299788e+03,2.120417e+03
1.302681e+03,2.113995e+03
1.305574e+03,2.107115e+03
1.308466e+03,2.094913e+03
1.311359e+03,2.095464e+03
1.314252e+03,2.101940e+03
1.317145e+03,2.095935e+03
1.320037e+03,2.105589e+03
1.322930e+03,2.104191e+03
1.325823e+03,2.094092e+03
1.328715e+03,2.091251e+03
1.331608e+03,2.091357e+03
1.334501e+03,2.110305e+03
1.337393e+03,2.119601e+03
1.340286e+03,2.094208e+03
1.343179e+03,2.089966e+03
1.346072e+03,2.095544e+03
1.348964e+03,2.088310e+03
1.351857e+03,2.083374e+03
1.354750e+03,2.076895e+03
1.357642e+03,2.066747e+03
1.360535e+03,2.063741e+03
1.363428e+03,2.060962e+03
1.366320e+03,2.068164e+03
1.369213e+03,2.048986e+03
1.372106e+03,2.032190e+03
1.374999e+03,2.029262e+03
1.377891e+03,2.027973e+03
1.380784e+03,2.022131e+03
1.383677e+03,2.028601e+03
1.386569e+03,2.014797e+03
1.389462e+03,2.004964e+03
1.392355e+03,2.001266e+03
1.395247e+03,2.007473e+03
1.398140e+03,1.994227e+03
1.401033e+03,1.987736e+03
1.403926e+03,1.998540e+03
1.406818e+03,1.993841e+03
1.409711e+03,1.995217e+03
1.412604e+03,1.984756e+03
1.415496e+03,1.979769e+03
1.418389e+03,1.984866e+03
1.421282e+03,1.979414e+03
1.424174e+03,1.974382e+03
1.427067e+03,1.947236e+03
1.429960e+03,1.964161e+03
1.432853e+03,1.962258e+03
1.435745e+03,1.934766e+03
1.438638e+03,1.937897e+03
1.441531e+03,1.929450e+03
1.444423e+03,1.931541e+03
1.447316e+03,1.928498e+03
1.450209e+03,1.915068e+03
1.453101e+03,1.926516e+03
1.455994e+03,1.914908e+03
1.458887e+03,1.910780e+03
1.461780e+03,1.900358e+03
1.464672e+03,1.913180e+03
1.467565e+03,1.901437e+03
1.470458e+03,1.891525e+03
1.473350e+03,1.891966e+03
1.476243e+03,1.892825e+03
1.479136e+03,1.902837e+03
1.482028e+03,1.880862e+03
1.484921e+03,1.882434e+03
1.487814e+03,1.876744e+03
1.490707e+03,1.895102e+03
1.493599e+03,1.878589e+03
1.496492e+03,1.864061e+03
1.499385e+03,1.873938e+03
1.502277e+03,1.870291e+03
1.505170e+03,1.870556e+03
1.508063e+03,1.850050e+03
1.510955e+03,1.843820e+03
1.513848e+03,1.840416e+03
1.516741e+03,1.844041e+03
1.519634e+03,1.839039e+03
1.522526e+03,1.837214e+03
1.525419e+03,1.845418e+03
1.528312e+03,1.827604e+03
1.531204e+03,1.828814e+03
1.534097e+03,1.819481e+03
1.536990e+03,1.825517e+03
1.539882e+03,1.822473e+03
1.542775e+03,1.827197e+03
1.545668e+03,1.820502e+03
1.548561e+03,1.828204e+03
1.551453e+03,1.816621e+03
1.554346e+03,1.813473e+03
1.557239e+03,1.818660e+03
1.560131e+03,1.823066e+03
1.563024e+03,1.821475e+03
1.565917e+03,1.819354e+03
1.568809e+03,1.820516e+03
1.571702e+03,1.831894e+03
1.574595e+03,1.829764e+03
1.577488e+03,1.802836e+03
1.580380e+03,1.811282e+03
1.583273e+03,1.806728e+03
1.586166e+03,1.821434e+03
1.589058e+03,1.800917e+03
1.591951e+03,1.792704e+03
1.594844e+03,1.774734e+03
1.597736e+03,1.767424e+03
1.600629e+03,1.771355e+03
1.603522e+03,1.762374e+03
1.606415e+03,1.754329e+03
1.609307e+03,1.767516e+03
1.612200e+03,1.759348e+03
1.615093e+03,1.756715e+03
1.617985e+03,1.746336e+03
1.620878e+03,1.731877e+03
1.623771e+03,1.721447e+03
1.626663e+03,1.724582e+03
1.629556e+03,1.722042e+03
1.632449e+03,1.727395e+03
1.635342e+03,1.720556e+03
1.638234e+03,1.708392e+03
1.641127e+03,1.702532e+03
1.644020e+03,1.703050e+03
1.646912e+03,1.701592e+03
1.649805e+03,1.701862e+03
1.652698e+03,1.690269e+03
1.655590e+03,1.695644e+03
1.658483e+03,1.691398e+03
1.661376e+03,1.682359e+03
1.664269e+03,1.677608e+03
1.667161e+03,1.667403e+03
1.670054e+03,1.668652e+03
1.672947e+03,1.663445e+03
1.675839e+03,1.672061e+03
1.678732e+03,1.653893e+03
1.681625e+03,1.656276e+03
1.684517e+03,1.657698e+03
1.687410e+03,1.653275e+03
1.690303e+03,1.650857e+03
1.693196e+03,1.649128e+03
1.696088e+03,1.655898e+03
1.698981e+03,1.644547e+03
1.701874e+03,1.634515e+03
1.704766e+03,1.635820e+03
1.707659e+03,1.634951e+03
1.710552e+03,1.624296e+03
1.713444e+03,1.620341e+03
1.716337e+03,1.617539e+03
1.719230e+03,1.613946e+03
1.722123e+03,1.609424e+03
1.725015e+03,1.611010e+03
1.727908e+03,1.618118e+03
1.730801e+03,1.598049e+03
1.733693e+03,1.604470e+03
1.736586e+03,1.593941e+03
1.739479e+03,1.602462e+03
1.742371e+03,1.585293e+03
1.745264e+03,1.587229e+03
1.748157e+03,1.597624e+03
1.751050e+03,1.595556e+03
1.753942e+03,1.573457e+03
1.756835e+03,1.575823e+03
1.759728e+03,1.568585e+03
1.762620e+03,1.560687e+03
1.765513e+03,1.555953e+03
1.768406e+03,1.559046e+03
1.771298e+03,1.564457e+03
1.774191e+03,1.564346e+03
1.777084e+03,1.546302e+03
1.779977e+03,1.543100e+03
1.782869e+03,1.538272e+03
1.785762e+03,1.547869e+03
1.788655e+03,1.520033e+03
1.791547e+03,1.542550e+03
1.794440e+03,1.530400e+03
1.797333e+03,1.529858e+03
1.800225e+03,1.522601e+03
1.803118e+03,1.516246e+03
1.806011e+03,1.521909e+03
1.808904e+03,1.513256e+03
1.811796e+03,1.518470e+03
1.814689e+03,1.512578e+03
1.817582e+03,1.512087e+03
1.820474e+03,1.496264e+03
1.823367e+03,1.488847e+03
1.826260e+03,1.496690e+03
1.829152e+03,1.491030e+03
1.832045e+03,1.499902e+03
1.834938e+03,1.475992e+03
1.837831e+03,1.475598e+03
1.840723e+03,1.470128e+03
1.843616e+03,1.483055e+03
1.846509e+03,1.478404e+03
1.849401e+03,1.468277e+03
1.852294e+03,1.479490e+03
1.855187e+03,1.460565e+03
1.858079e+03,1.455473e+03
1.860972e+03,1.441635e+03
1.863865e+03,1.449536e+03
1.866758e+03,1.444892e+03
1.869650e+03,1.436708e+03
1.872543e+03,1.448162e+03
1.875436e+03,1.436808e+03
1.878328e+03,1.437877e+03
1.881221e+03,1.410255e+03
1.884114e+03,1.420164e+03
1.887006e+03,1.415620e+03
1.889899e+03,1.413921e+03
1.892792e+03,1.417810e+03
1.895685e+03,1.425295e+03
1.898577e+03,1.418705e+03
1.901470e+03,1.395108e+03
1.904363e+03,1.407732e+03
1.907255e+03,1.401519e+03
1.910148e+03,1.399788e+03
1.913041e+03,1.391953e+03
1.915933e+03,1.390129e+03
1.918826e+03,1.393326e+03
1.921719e+03,1.377500e+03
1.924612e+03,1.382939e+03
1.927504e+03,1.355677e+03
1.930397e+03,1.367444e+03
1.933290e+03,1.360678e+03
1.936182e+03,1.350765e+03
1.939075e+03,1.368361e+03
1.941968e+03,1.351900e+03
1.944860e+03,1.355595e+03
1.947753e+03,1.343547e+03
1.950646e+03,1.355372e+03
1.953539e+03,1.328821e+03
1.956431e+03,1.327760e+03
1.959324e+03,1.322761e+03
1.962217e+03,1.333909e+03
1.965109e+03,1.323148e+03
1.968002e+03,1.323010e+03
1.970895e+03,1.326482e+03
1.973787e+03,1.316373e+03
1.976680e+03,1.308656e+03
1.979573e+03,1.312813e+03
1.982466e+03,1.305325e+03
1.985358e+03,1.293583e+03
1.988251e+03,1.300192e+03
1.991144e+03,1.298648e+03
1.994036e+03,1.288398e+03
1.996929e+03,1.298683e+03
1.999822e+03,1.284629e+03
2.002714e+03,1.283329e+03
2.005607e+03,1.278577e+03
2.008500e+03,1.269601e+03
2.011393e+03,1.280565e+03
2.014285e+03,1.264524e+03
2.017178e+03,1.245024e+03
2.020071e+03,1.255521e+03
2.022963e+03,1.258213e+03
2.025856e+03,1.253423e+03
2.028749e+03,1.248035e+03
2.031641e+03,1.237025e+03
2.034534e+03,1.249894e+03
2.037427e+03,1.248254e+03
2.040320e+03,1.223634e+03
2.043212e+03,1.241290e+03
2.046105e+03,1.238969e+03
2.048998e+03,1.226117e+03
2.051890e+03,1.231835e+03
2.054783e+03,1.200928e+03
2.057676e+03,1.217059e+03
2.060568e+03,1.222183e+03
2.063461e+03,1.205420e+03
2.066354e+03,1.207454e+03
2.069247e+03,1.202500e+03
2.072139e+03,1.193080e+03
2.075032e+03,1.190269e+03
2.077925e+03,1.177814e+03
2.080817e+03,1.184933e+03
2.083710e+03,1.175150e+03
2.086603e+03,1.184664e+03
2.089496e+03,1.167455e+03
2.092388e+03,1.165611e+03
2.095281e+03,1.175910e+03
2.098174e+03,1.161312e+03
2.101066e+03,1.161678e+03
2.103959e+03,1.167600e+03
2.106852e+03,1.154070e+03
2.109744e+03,1.162905e+03
2.112637e+03,1.149634e+03
2.115530e+03,1.133080e+03
2.118422e+03,1.142797e+03
2.121315e+03,1.162480e+03
2.124208e+03,1.161191e+03
2.127101e+03,1.142399e+03
2.129993e+03,1.127545e+03
2.132886e+03,1.134755e+03
2.135779e+03,1.124134e+03
2.138671e+03,1.121815e+03
2.141564e+03,1.114767e+03
2.144457e+03,1.114587e+03
2.147350e+03,1.101950e+03
2.150242e+03,1.117493e+03
2.153135e+03,1.115068e+03
2.156028e+03,1.087808e+03
2.158920e+03,1.100508e+03
2.161813e+03,1.096877e+03
2.164706e+03,1.083778e+03
2.167598e+03,1.085452e+03
2.170491e+03,1.095993e+03
2.173384e+03,1.069532e+03
2.176277e+03,1.090746e+03
2.179169e+03,1.064120e+03
2.182062e+03,1.058096e+03
2.184955e+03,1.067288e+03
2.187847e+03,1.060526e+03
2.190740e+03,1.050029e+03
2.193633e+03,1.048679e+03
2.196525e+03,1.048770e+03
2.199418e+03,1.043918e+03
2.202311e+03,1.062483e+03
2.205204e+03,1.045926e+03
2.208096e+03,1.045392e+03
2.210989e+03,1.038836e+03
2.213882e+03,1.038553e+03
2.216774e+03,1.043292e+03
2.219667e+03,1.031148e+03
2.222560e+03,1.029599e+03
2.225452e+03,1.014767e+03
2.228345e+03,1.014431e+03
2.231238e+03,1.021130e+03
2.234131e+03,1.014314e+03
2.237023e+03,1.001337e+03
2.239916e+03,9.919250e+02
2.242809e+03,1.002568e+03
2.245701e+03,9.782546e+02
2.248594e+03,9.946550e+02
2.251487e+03,9.965187e+02
2.254379e+03,9.925053e+02
2.257272e+03,9.809647e+02
2.260165e+03,9.852034e+02
2.263058e+03,9.760665e+02
2.265950e+03,9.672228e+02
2.268843e+03,9.673950e+02
2.271736e+03,9.634733e+02
2.274628e+03,9.657025e+02
2.277521e+03,9.626401e+02
2.280414e+03,9.565183e+02
2.283306e+03,9.515366e+02
2.286199e+03,9.606771e+02
2.289092e+03,9.532653e+02
2.291985e+03,9.458477e+02
2.294877e+03,9.465071e+02
2.297770e+03,9.403599e+02
2.300663e+03,9.378840e+02
2.303555e+03,9.284249e+02
2.306448e+03,9.374667e+02
2.309341e+03,9.202038e+02
2.312233e+03,9.191259e+02
2.315126e+03,9.299861e+02
2.318019e+03,9.290208e+02
2.320912e+03,9.318000e+02
2.323804e+03,9.028868e+02
2.326697e+03,9.228477e+02
2.329590e+03,9.193199e+02
2.332482e+03,8.984619e+02
2.335375e+03,8.987664e+02
2.338268e+03,8.942975e+02
2.341160e+03,8.986361e+02
2.344053e+03,9.088815e+02
2.346946e+03,9.037029e+02
2.349839e+03,8.918303e+02
2.352731e+03,8.748792e+02
2.355624e+03,8.836175e+02
2.358517e+03,8.862128e+02
2.361409e+03,8.734011e+02
2.364302e+03,8.823506e+02
2.367195e+03,8.716620e+02
2.370087e+03,8.682443e+02
2.372980e+03,8.705524e+02
2.375873e+03,8.761664e+02
2.378766e+03,8.635895e+02
2.381658e+03,8.526515e+02
2.384551e+03,8.565995e+02
2.387444e+03,8.525159e+02
2.390336e+03,8.596483e+02
2.393229e+03,8.592602e+02
2.396122e+03,8.510638e+02
2.399014e+03,8.595930e+02
2.401907e+03,8.399064e+02
2.404800e+03,8.410505e+02
2.407693e+03,8.490616e+02
2.410585e+03,8.205489e+02
2.413478e+03,8.219393e+02
2.416371e+03,8.428506e+02
2.419263e+03,8.262309e+02
2.422156e+03,8.354451e+02
2.425049e+03,8.293596e+02
2.427941e+03,8.245799e+02
2.430834e+03,8.111054e+02
2.433727e+03,8.299857e+02
2.436620e+03,8.113113e+02
2.439512e+03,8.092039e+02
2.442405e+03,8.158789e+02
2.445298e+03,7.965432e+02
2.448190e+03,7.999695e+02
2.451083e+03,8.097853e+02
2.453976e+03,8.031747e+02
2.456868e+03,7.849171e+02
2.459761e+03,7.992019e+02
2.462654e+03,7.771350e+02
2.465547e+03,7.884306e+02
2.468439e+03,7.872578e+02
2.471332e+03,7.874628e+02
2.474225e+03,7.868983e+02
2.477117e+03,7.835400e+02
2.480010e+03,7.750790e+02
2.482903e+03,7.772032e+02
2.485795e+03,7.695003e+02
2.488688e+03,7.669698e+02
2.491581e+03,7.665388e+02
2.494474e+03,7.654598e+02
2.497366e+03,7.635843e+02
2.500259e+03,7.550468e+02
2.503152e+03,7.485870e+02
2.506044e+03,7.471808e+02
2.508937e+03,7.451575e+02
2.511830e+03,7.565645e+02
2.514722e+03,7.473630e+02
2.517615e+03,7.422575e+02
2.520508e+03,7.417012e+02
2.523401e+03,7.394044e+02
2.526293e+03,7.504965e+02
2.529186e+03,7.373993e+02
2.532079e+03,7.264523e+02
2.534971e+03,7.318260e+02
2.537864e+03,7.211534e+02
2.540757e+03,7.249349e+02
2.543649e+03,7.315846e+02
2.546542e+03,7.257836e+02
2.549435e+03,7.296645e+02
2.552328e+03,7.196505e+02
2.555220e+03,7.342589e+02
2.558113e+03,7.225781e+02
2.561006e+03,7.191065e+02
2.563898e+03,7.195474e+02
2.566791e+03,7.160417e+02
2.569684e+03,7.238784e+02
2.572576e+03,7.099534e+02
2.575469e+03,7.147421e+02
2.578362e+03,7.029453e+02
2.581255e+03,7.011586e+02
2.584147e+03,7.101134e+02
2.587040e+03,6.908712e+02
2.589933e+03,6.985871e+02
2.592825e+03,7.030389e+02
2.595718e+03,6.927775e+02
2.598611e+03,6.820994e+02
2.601503e+03,6.951171e+02
2.604396e+03,6.880009e+02
2.607289e+03,6.741012e+02
2.610182e+03,6.800419e+02
2.613074e+03,6.817039e+02
2.615967e+03,6.805519e+02
2.618860e+03,6.782100e+02
2.621752e+03,6.866193e+02
2.624645e+03,6.709103e+02
2.627538e+03,6.726908e+02
2.630430e+03,6.643358e+02
2.633323e+03,6.737657e+02
2.636216e+03,6.672988e+02
2.639109e+03,6.690069e+02
2.642001e+03,6.600579e+02
2.644894e+03,6.485350e+02
2.647787e+03,6.687062e+02
2.650679e+03,6.443419e+02
2.653572e+03,6.568310e+02
2.656465e+03,6.624465e+02
2.659357e+03,6.408386e+02
2.662250e+03,6.484462e+02
2.665143e+03,6.460728e+02
2.668036e+03,6.625115e+02
2.670928e+03,6.476659e+02
2.673821e+03,6.452751e+02
2.676714e+03,6.540135e+02
2.679606e+03,6.467017e+02
2.682499e+03,6.362068e+02
2.685392e+03,6.387999e+02
2.688284e+03,6.355538e+02
2.691177e+03,6.190751e+02
2.694070e+03,6.291151e+02
2.696963e+03,6.286707e+02
2.699855e+03,6.330860e+02
2.702748e+03,6.340462e+02
2.705641e+03,6.331539e+02
2.708533e+03,6.125945e+02
2.711426e+03,6.291982e+02
2.714319e+03,6.195471e+02
2.717211e+03,6.226979e+02
2.720104e+03,6.264685e+02
2.722997e+03,6.158474e+02
2.725890e+03,5.996768e+02
2.728782e+03,6.179957e+02
2.731675e+03,6.136976e+02
2.734568e+03,6.345616e+02
2.737460e+03,6.130389e+02
2.740353e+03,6.206779e+02
2.743246e+03,6.108441e+02
2.746138e+03,6.197480e+02
2.749031e+03,5.965387e+02
2.751924e+03,6.010616e+02
2.754817e+03,5.938359e+02
2.757709e+03,6.051326e+02
2.760602e+03,5.934499e+02
2.763495e+03,6.047667e+02
2.766387e+03,6.018168e+02
2.769280e+03,6.023400e+02
2.772173e+03,5.928810e+02
2.775065e+03,5.970106e+02
2.777958e+03,6.076035e+02
2.780851e+03,5.804658e+02
2.783744e+03,5.970760e+02
2.786636e+03,5.794615e+02
2.789529e+03,5.900223e+02
2.792422e+03,6.027371e+02
2.795314e+03,5.778218e+02
2.798207e+03,5.918701e+02
2.801100e+03,5.643484e+02
2.803992e+03,5.846594e+02
2.806885e+03,5.880745e+02
2.809778e+03,5.658858e+02
2.812671e+03,5.653807e+02
2.815563e+03,5.819954e+02
2.818456e+03,5.700097e+02
2.821349e+03,5.692857e+02
2.824241e+03,5.762713e+02
2.827134e+03,5.766663e+02
2.830027e+03,5.744135e+02
2.832919e+03,5.678098e+02
2.835812e+03,5.663195e+02
2.838705e+03,5.779319e+02
2.841598e+03,5.670463e+02
2.844490e+03,5.622006e+02
2.847383e+03,5.634733e+02
2.850276e+03,5.629745e+02
2.853168e+03,5.698839e+02
2.856061e+03,5.502419e+02
2.858954e+03,5.893329e+02
2.861846e+03,5.706313e+02
2.864739e+03,5.576478e+02
2.867632e+03,5.522297e+02
2.870525e+03,5.710425e+02
2.873417e+03,5.709138e+02
2.876310e+03,5.812934e+02
2.879203e+03,5.729382e+02
2.882095e+03,5.617751e+02
2.884988e+03,5.664440e+02
2.887881e+03,5.891202e+02
2.890773e+03,5.726113e+02
2.893666e+03,5.702258e+02
2.896559e+03,5.820445e+02
2.899452e+03,5.637219e+02
2.902344e+03,5.794726e+02
2.905237e+03,5.679052e+02
2.908130e+03,5.594072e+02
2.911022e+03,5.548737e+02
2.913915e+03,5.494610e+02
2.916808e+03,5.581830e+02
2.919700e+03,5.382441e+02
2.922593e+03,5.453023e+02
2.925486e+03,5.484064e+02
2.928379e+03,5.425326e+02
2.931271e+03,5.337169e+02
2.934164e+03,5.333522e+02
2.937057e+03,5.481793e+02
2.939949e+03,5.272657e+02
2.942842e+03,5.530887e+02
2.945735e+03,5.170669e+02
2.948627e+03,5.469672e+02
2.951520e+03,5.336923e+02
2.954413e+03,5.237974e+02
2.957306e+03,5.702897e+02
2.960198e+03,5.301430e+02
2.963091e+03,5.339717e+02
2.965984e+03,5.244988e+02
2.968876e+03,5.054975e+02
2.971769e+03,5.349179e+02
2.974662e+03,5.058440e+02
2.977554e+03,5.061068e+02
2.980447e+03,5.066714e+02
2.983340e+03,5.148196e+02
2.986233e+03,5.052755e+02
2.989125e+03,4.960840e+02
2.992018e+03,5.092305e+02
2.994911e+03,5.144439e+02
2.997803e+03,5.147530e+02
3.000696e+03,5.099751e+02
3.003589e+03,4.995633e+02
3.006481e+03,5.025330e+02
3.009374e+03,4.999930e+02
3.012267e+03,5.281189e+02
3.015160e+03,5.011192e+02
3.018052e+03,4.968267e+02
3.020945e+03,5.252710e+02
3.023838e+03,4.980675e+02
3.026730e+03,4.960854e+02
3.029623e+03,5.029274e+02
3.032516e+03,4.819909e+02
3.035408e+03,4.945510e+02
3.038301e+03,4.940191e+02
3.041194e+03,4.741908e+02
3.044087e+03,5.048605e+02
3.046979e+03,4.890148e+02
3.049872e+03,4.745339e+02
3.052765e+03,4.981570e+02
3.055657e+03,5.027617e+02
3.058550e+03,4.964327e+02
3.061443e+03,4.545785e+02
3.064335e+03,4.921632e+02
3.067228e+03,5.037301e+02
3.070121e+03,4.950459e+02
3.073014e+03,4.987037e+02
3.075906e+03,4.997396e+02
3.078799e+03,5.060988e+02
3.081692e+03,4.802975e+02
3.084584e+03,4.812892e+02
3.087477e+03,4.977495e+02
3.090370e+03,5.126506e+02
3.093262e+03,4.936702e+02
3.096155e+03,4.736167e+02
3.099048e+03,5.005713e+02
3.101941e+03,5.050545e+02
3.104833e+03,4.606281e+02
3.107726e+03,4.932460e+02
3.110619e+03,4.847794e+02
3.113511e+03,5.079409e+02
3.116404e+03,4.904666e+02
3.119297e+03,4.822818e+02
3.122189e+03,4.881147e+02
3.125082e+03,4.979038e+02
3.127975e+03,4.851364e+02
3.130868e+03,5.058750e+02
3.133760e+03,5.050941e+02
3.136653e+03,4.874975e+02
3.139546e+03,5.123564e+02
3.142438e+03,4.843168e+02
3.145331e+03,4.817382e+02
3.148224e+03,4.963494e+02
3.151116e+03,4.839633e+02
3.154009e+03,4.703410e+02
3.156902e+03,4.871961e+02
3.159795e+03,5.098471e+02
3.162687e+03,5.169086e+02
3.165580e+03,4.810295e+02
3.168473e+03,5.078008e+02
3.171365e+03,4.699540e+02
3.174258e+03,4.969997e+02
3.177151e+03,4.925187e+02
3.180043e+03,4.724120e+02
3.182936e+03,5.031108e+02
3.185829e+03,4.963736e+02
3.188722e+03,4.828546e+02
3.191614e+03,5.019642e+02
3.194507e+03,4.838060e+02
3.197400e+03,5.119026e+02
3.200292e+03,5.068343e+02
3.203185e+03,0.000000e+00
3.206078e+03,0.000000e+00
3.208970e+03,0.000000e+00
3.211863e+03,0.000000e+00
3.214756e+03,0.000000e+00
3.217649e+03,0.000000e+00
3.220541e+03,0.000000e+00
3.223434e+03,0.000000e+00
3.226327e+03,0.000000e+00
3.229219e+03,0.000000e+00
3.232112e+03,0.000000e+00
3.235005e+03,0.000000e+00
3.237897e+03,0.000000e+00
3.240790e+03,0.000000e+00
3.243683e+03,0.000000e+00
3.246576e+03,0.000000e+00
3.249468e+03,0.000000e+00
3.252361e+03,0.000000e+00
3.255254e+03,0.000000e+00
3.258146e+03,0.000000e+00
3.261039e+03,0.000000e+00
3.263932e+03,0.000000e+00
3.266824e+03,0.000000e+00
3.269717e+03,0.000000e+00
3.272610e+03,0.000000e+00
3.275503e+03,0.000000e+00
3.278395e+03,0.000000e+00
3.281288e+03,0.000000e+00
3.284181e+03,0.000000e+00
3.287073e+03,0.000000e+00
3.289966e+03,0.000000e+00
3.292859e+03,0.000000e+00
3.295751e+03,0.000000e+00
3.298644e+03,0.000000e+00
3.301537e+03,0.000000e+00
3.304430e+03,0.000000e+00
3.307322e+03,0.000000e+00
3.310215e+03,0.000000e+00
3.313108e+03,0.000000e+00
3.316000e+03,0.000000e+00
3.318893e+03,0.000000e+00
3.321786e+03,0.000000e+00
3.324678e+03,0.000000e+00
3.327571e+03,0.000000e+00
3.330464e+03,0.000000e+00
3.333357e+03,0.000000e+00
3.336249e+03,0.000000e+00
3.339142e+03,0.000000e+00
3.342035e+03,0.000000e+00
3.344927e+03,0.000000e+00
3.347820e+03,0.000000e+00
3.350713e+03,0.000000e+00
3.353605e+03,0.000000e+00
3.356498e+03,0.000000e+00
3.359391e+03,0.000000e+00
3.362284e+03,0.000000e+00
3.365176e+03,0.000000e+00
3.368069e+03,0.000000e+00
3.370962e+03,0.000000e+00
3.373854e+03,0.000000e+00
3.376747e+03,0.000000e+00
3.379640e+03,0.000000e+00
3.382532e+03,0.000000e+00
3.385425e+03,0.000000e+00
3.388318e+03,0.000000e+00
3.391211e+03,0.000000e+00
3.394103e+03,0.000000e+00
3.396996e+03,0.000000e+00
3.399889e+03,0.000000e+00
3.402781e+03,0.000000e+00
3.405674e+03,0.000000e+00
3.408567e+03,0.000000e+00
3.411459e+03,0.000000e+00
3.414352e+03,0.000000e+00
3.417245e+03,0.000000e+00
3.420138e+03,0.000000e+00
3.423030e+03,0.000000e+00
3.425923e+03,0.000000e+00
3.428816e+03,0.000000e+00
3.431708e+03,0.000000e+00
3.434601e+03,0.000000e+00
3.437494e+03,0.000000e+00
3.440386e+03,0.000000e+00
3.443279e+03,0.000000e+00
3.446172e+03,0.000000e+00
3.449065e+03,0.000000e+00
3.451957e+03,0.000000e+00
3.454850e+03,0.000000e+00
3.457743e+03,0.000000e+00
3.460635e+03,0.000000e+00
3.463528e+03,0.000000e+00
3.466421e+03,0.000000e+00
3.469313e+03,0.000000e+00
3.472206e+03,0.000000e+00
3.475099e+03,0.000000e+00
3.477992e+03,0.000000e+00
3.480884e+03,0.000000e+00
3.483777e+03,0.000000e+00
3.486670e+03,0.000000e+00
3.489563e+03,0.000000e+00
3.492455e+03,0.000000e+00
3.495348e+03,0.000000e+00
3.498240e+03,0.000000e+00
3.500169e+03,0.000000e+00