File: RAMAN_data/23052023_r3/black fibre4.CSV
9.931763e+01,0.000000e+00
1.022103e+02,0.000000e+00
1.051030e+02,0.000000e+00
1.079957e+02,0.000000e+00
1.108884e+02,0.000000e+00
1.137811e+02,0.000000e+00
1.166738e+02,0.000000e+00
1.195665e+02,0.000000e+00
1.224592e+02,0.000000e+00
1.253519e+02,0.000000e+00
1.282446e+02,0.000000e+00
1.311373e+02,0.000000e+00
1.340300e+02,0.000000e+00
1.369227e+02,0.000000e+00
1.398154e+02,0.000000e+00
1.427081e+02,0.000000e+00
1.456008e+02,0.000000e+00
1.484935e+02,0.000000e+00
1.513862e+02,0.000000e+00
1.542789e+02,0.000000e+00
1.571716e+02,0.000000e+00
1.600643e+02,0.000000e+00
1.629570e+02,0.000000e+00
1.658497e+02,0.000000e+00
1.687424e+02,0.000000e+00
1.716351e+02,0.000000e+00
1.745278e+02,0.000000e+00
1.774205e+02,0.000000e+00
1.803132e+02,0.000000e+00
1.832059e+02,0.000000e+00
1.860986e+02,0.000000e+00
1.889913e+02,0.000000e+00
1.918840e+02,0.000000e+00
1.947767e+02,0.000000e+00
1.976694e+02,0.000000e+00
2.005621e+02,3.012407e+03
2.034548e+02,3.031823e+03
2.063475e+02,3.051879e+03
2.092402e+02,3.031541e+03
2.121329e+02,3.043098e+03
2.150256e+02,3.037455e+03
2.179183e+02,3.055269e+03
2.208110e+02,3.065329e+03
2.237037e+02,3.053534e+03
2.265964e+02,3.061966e+03
2.294892e+02,3.065991e+03
2.323819e+02,3.073363e+03
2.352746e+02,3.069038e+03
2.381673e+02,3.080954e+03
2.410600e+02,3.078979e+03
2.439527e+02,3.079700e+03
2.468454e+02,3.091774e+03
2.497381e+02,3.111753e+03
2.526308e+02,3.111336e+03
2.555235e+02,3.121222e+03
2.584161e+02,3.119296e+03
2.613088e+02,3.125495e+03
2.642015e+02,3.131032e+03
2.670942e+02,3.140118e+03
2.699869e+02,3.139960e+03
2.728796e+02,3.134709e+03
2.757723e+02,3.132144e+03
2.786650e+02,3.159428e+03
2.815577e+02,3.170163e+03
2.844504e+02,3.144352e+03
2.873431e+02,3.155614e+03
2.902358e+02,3.155092e+03
2.931285e+02,3.162850e+03
2.960212e+02,3.155665e+03
2.989139e+02,3.167724e+03
3.018066e+02,3.167958e+03
3.046993e+02,3.164999e+03
3.075920e+02,3.163738e+03
3.104847e+02,3.170772e+03
3.133774e+02,3.178351e+03
3.162701e+02,3.187610e+03
3.191628e+02,3.182744e+03
3.220555e+02,3.189920e+03
3.249482e+02,3.196724e+03
3.278409e+02,3.204219e+03
3.307336e+02,3.199996e+03
3.336263e+02,3.209472e+03
3.365190e+02,3.189131e+03
3.394117e+02,3.197005e+03
3.423044e+02,3.194137e+03
3.451971e+02,3.210622e+03
3.480898e+02,3.205361e+03
3.509825e+02,3.202117e+03
3.538752e+02,3.215667e+03
3.567680e+02,3.231887e+03
3.596607e+02,3.218296e+03
3.625534e+02,3.220724e+03
3.654461e+02,3.214066e+03
3.683388e+02,3.217542e+03
3.712315e+02,3.238146e+03
3.741242e+02,3.245229e+03
3.770169e+02,3.260931e+03
3.799096e+02,3.245856e+03
3.828023e+02,3.243284e+03
3.856950e+02,3.240820e+03
3.885877e+02,3.230292e+03
3.914804e+02,3.233215e+03
3.943731e+02,3.230946e+03
3.972658e+02,3.250422e+03
4.001585e+02,3.239087e+03
4.030512e+02,3.243692e+03
4.059439e+02,3.247104e+03
4.088366e+02,3.247960e+03
4.117293e+02,3.233777e+03
4.146220e+02,3.233547e+03
4.175147e+02,3.249310e+03
4.204074e+02,3.246468e+03
4.233001e+02,3.242135e+03
4.261928e+02,3.237322e+03
4.290855e+02,3.248699e+03
4.319782e+02,3.249442e+03
4.348709e+02,3.250254e+03
4.377636e+02,3.252534e+03
4.406563e+02,3.245326e+03
4.435490e+02,3.252282e+03
4.464417e+02,3.250933e+03
4.493344e+02,3.269540e+03
4.522271e+02,3.247375e+03
4.551198e+02,3.258871e+03
4.580125e+02,3.249593e+03
4.609052e+02,3.247052e+03
4.637979e+02,3.250157e+03
4.666906e+02,3.247248e+03
4.695833e+02,3.266359e+03
4.724760e+02,3.257576e+03
4.753687e+02,3.248539e+03
4.782614e+02,3.263830e+03
4.811541e+02,3.290178e+03
4.840468e+02,3.319426e+03
4.869395e+02,3.319862e+03
4.898322e+02,3.308265e+03
4.927249e+02,3.277623e+03
4.956176e+02,3.269087e+03
4.985103e+02,3.274759e+03
5.014030e+02,3.271875e+03
5.042957e+02,3.248461e+03
5.071884e+02,3.247522e+03
5.100811e+02,3.245652e+03
5.129738e+02,3.232707e+03
5.158665e+02,3.247106e+03
5.187592e+02,3.243277e+03
5.216519e+02,3.227142e+03
5.245446e+02,3.228969e+03
5.274373e+02,3.253078e+03
5.303300e+02,3.240022e+03
5.332227e+02,3.210657e+03
5.361154e+02,3.207665e+03
5.390081e+02,3.238946e+03
5.419008e+02,3.257073e+03
5.447935e+02,3.221933e+03
5.476862e+02,3.233226e+03
5.505789e+02,3.226386e+03
5.534716e+02,3.228997e+03
5.563643e+02,3.218856e+03
5.592570e+02,3.225026e+03
5.621497e+02,3.232513e+03
5.650424e+02,3.228817e+03
5.679351e+02,3.207299e+03
5.708278e+02,3.185511e+03
5.737205e+02,3.215187e+03
5.766132e+02,3.209830e+03
5.795059e+02,3.211008e+03
5.823986e+02,3.201300e+03
5.852913e+02,3.203805e+03
5.881840e+02,3.205204e+03
5.910767e+02,3.210469e+03
5.939694e+02,3.209619e+03
5.968621e+02,3.200397e+03
5.997548e+02,3.196456e+03
6.026475e+02,3.224504e+03
6.055402e+02,3.197996e+03
6.084329e+02,3.191828e+03
6.113256e+02,3.199882e+03
6.142183e+02,3.193035e+03
6.171110e+02,3.187438e+03
6.200037e+02,3.202645e+03
6.228964e+02,3.177950e+03
6.257891e+02,3.186897e+03
6.286818e+02,3.176383e+03
6.315745e+02,3.170488e+03
6.344672e+02,3.173062e+03
6.373599e+02,3.157599e+03
6.402526e+02,3.172044e+03
6.431453e+02,3.166169e+03
6.460380e+02,3.160539e+03
6.489307e+02,3.179661e+03
6.518234e+02,3.159868e+03
6.547161e+02,3.152118e+03
6.576088e+02,3.139619e+03
6.605015e+02,3.156307e+03
6.633942e+02,3.125331e+03
6.662869e+02,3.151323e+03
6.691796e+02,3.152711e+03
6.720723e+02,3.147094e+03
6.749650e+02,3.141233e+03
6.778577e+02,3.138222e+03
6.807504e+02,3.140124e+03
6.836431e+02,3.137072e+03
6.865358e+02,3.135460e+03
6.894285e+02,3.122219e+03
6.923212e+02,3.123536e+03
6.952139e+02,3.127226e+03
6.981066e+02,3.125997e+03
7.009993e+02,3.114979e+03
7.038920e+02,3.107642e+03
7.067847e+02,3.111570e+03
7.096774e+02,3.096161e+03
7.125701e+02,3.099832e+03
7.154628e+02,3.102747e+03
7.183555e+02,3.115243e+03
7.212482e+02,3.089669e+03
7.241409e+02,3.092082e+03
7.270336e+02,3.085057e+03
7.299263e+02,3.079504e+03
7.328190e+02,3.087763e+03
7.357117e+02,3.081476e+03
7.386044e+02,3.077479e+03
7.414971e+02,3.066110e+03
7.443898e+02,3.070820e+03
7.472825e+02,3.074260e+03
7.501752e+02,3.059471e+03
7.530679e+02,3.043852e+03
7.559606e+02,3.045125e+03
7.588533e+02,3.049130e+03
7.617460e+02,3.052798e+03
7.646387e+02,3.018274e+03
7.675314e+02,3.038696e+03
7.704241e+02,3.036951e+03
7.733168e+02,3.037192e+03
7.762095e+02,3.015056e+03
7.791022e+02,3.028280e+03
7.819949e+02,3.021765e+03
7.848876e+02,3.011424e+03
7.877803e+02,3.012844e+03
7.906730e+02,2.991878e+03
7.935657e+02,3.003555e+03
7.964584e+02,3.017899e+03
7.993511e+02,2.999752e+03
8.022438e+02,3.006824e+03
8.051365e+02,2.992454e+03
8.080292e+02,2.999044e+03
8.109219e+02,2.975844e+03
8.138146e+02,2.968620e+03
8.167073e+02,2.971169e+03
8.196000e+02,2.981280e+03
8.224927e+02,2.962784e+03
8.253854e+02,2.983441e+03
8.282781e+02,2.951362e+03
8.311708e+02,2.967134e+03
8.340635e+02,2.961331e+03
8.369562e+02,2.962527e+03
8.398489e+02,2.957663e+03
8.427416e+02,2.948390e+03
8.456343e+02,2.949469e+03
8.485270e+02,2.935126e+03
8.514197e+02,2.941571e+03
8.543124e+02,2.927529e+03
8.572051e+02,2.920444e+03
8.600978e+02,2.910001e+03
8.629905e+02,2.925809e+03
8.658832e+02,2.909023e+03
8.687759e+02,2.912088e+03
8.716686e+02,2.905753e+03
8.745613e+02,2.916626e+03
8.774540e+02,2.891692e+03
8.803467e+02,2.893707e+03
8.832394e+02,2.908714e+03
8.861321e+02,2.917441e+03
8.890248e+02,2.897742e+03
8.919175e+02,2.885143e+03
8.948102e+02,2.886614e+03
8.977029e+02,2.865143e+03
9.005956e+02,2.860698e+03
9.034883e+02,2.875548e+03
9.063810e+02,2.851900e+03
9.092737e+02,2.857949e+03
9.121664e+02,2.861063e+03
9.150591e+02,2.866671e+03
9.179518e+02,2.852841e+03
9.208445e+02,2.845962e+03
9.237372e+02,2.833502e+03
9.266299e+02,2.835192e+03
9.295226e+02,2.821931e+03
9.324153e+02,2.823543e+03
9.353080e+02,2.826729e+03
9.382007e+02,2.808596e+03
9.410934e+02,2.803469e+03
9.439861e+02,2.793498e+03
9.468788e+02,2.802992e+03
9.497715e+02,2.809813e+03
9.526642e+02,2.788213e+03
9.555569e+02,2.776048e+03
9.584496e+02,2.787652e+03
9.613423e+02,2.781737e+03
9.642350e+02,2.770070e+03
9.671277e+02,2.761032e+03
9.700204e+02,2.766841e+03
9.729131e+02,2.745219e+03
9.758058e+02,2.748819e+03
9.786985e+02,2.760816e+03
9.815912e+02,2.749156e+03
9.844839e+02,2.741505e+03
9.873766e+02,2.739695e+03
9.902693e+02,2.741447e+03
9.931620e+02,2.748208e+03
9.960547e+02,2.751263e+03
9.989474e+02,2.719375e+03
1.001840e+03,2.719875e+03
1.004733e+03,2.735503e+03
1.007626e+03,2.729281e+03
1.010518e+03,2.716140e+03
1.013411e+03,2.708351e+03
1.016304e+03,2.693597e+03
1.019196e+03,2.686167e+03
1.022089e+03,2.691250e+03
1.024982e+03,2.687999e+03
1.027875e+03,2.673822e+03
1.030767e+03,2.673225e+03
1.033660e+03,2.679347e+03
1.036552e+03,2.680931e+03
1.039445e+03,2.676786e+03
1.042338e+03,2.676397e+03
1.045231e+03,2.677891e+03
1.048123e+03,2.668040e+03
1.051016e+03,2.670481e+03
1.053909e+03,2.668349e+03
1.056802e+03,2.650674e+03
1.059694e+03,2.656418e+03
1.062587e+03,2.626968e+03
1.065479e+03,2.637141e+03
1.068372e+03,2.639774e+03
1.071265e+03,2.637310e+03
1.074158e+03,2.641485e+03
1.077050e+03,2.635571e+03
1.079943e+03,2.621020e+03
1.082836e+03,2.641700e+03
1.085729e+03,2.633651e+03
1.088621e+03,2.654374e+03
1.091514e+03,2.632943e+03
1.094406e+03,2.614732e+03
1.097299e+03,2.615775e+03
1.100192e+03,2.612569e+03
1.103085e+03,2.614888e+03
1.105977e+03,2.589906e+03
1.108870e+03,2.605978e+03
1.111763e+03,2.596760e+03
1.114656e+03,2.621425e+03
1.117548e+03,2.636036e+03
1.120441e+03,2.630417e+03
1.123334e+03,2.644737e+03
1.126226e+03,2.631946e+03
1.129119e+03,2.630505e+03
1.132012e+03,2.637041e+03
1.134904e+03,2.619720e+03
1.137797e+03,2.618291e+03
1.140690e+03,2.603867e+03
1.143583e+03,2.604585e+03
1.146475e+03,2.609479e+03
1.149368e+03,2.608433e+03
1.152261e+03,2.614343e+03
1.155153e+03,2.596938e+03
1.158046e+03,2.567153e+03
1.160939e+03,2.549876e+03
1.163831e+03,2.542240e+03
1.166724e+03,2.543657e+03
1.169617e+03,2.532779e+03
1.172510e+03,2.545223e+03
1.175402e+03,2.541553e+03
1.178295e+03,2.551900e+03
1.181188e+03,2.535416e+03
1.184080e+03,2.527441e+03
1.186973e+03,2.533287e+03
1.189866e+03,2.527363e+03
1.192758e+03,2.523198e+03
1.195651e+03,2.514108e+03
1.198544e+03,2.502461e+03
1.201437e+03,2.494653e+03
1.204329e+03,2.499792e+03
1.207222e+03,2.501982e+03
1.210115e+03,2.514238e+03
1.213007e+03,2.493857e+03
1.215900e+03,2.495941e+03
1.218793e+03,2.490957e+03
1.221685e+03,2.458401e+03
1.224578e+03,2.467107e+03
1.227471e+03,2.462148e+03
1.230364e+03,2.464094e+03
1.233256e+03,2.438747e+03
1.236149e+03,2.447522e+03
1.239042e+03,2.447825e+03
1.241934e+03,2.454241e+03
1.244827e+03,2.454880e+03
1.247720e+03,2.433206e+03
1.250612e+03,2.423426e+03
1.253505e+03,2.437217e+03
1.256398e+03,2.423083e+03
1.259291e+03,2.424995e+03
1.262183e+03,2.424752e+03
1.265076e+03,2.422176e+03
1.267969e+03,2.443485e+03
1.270861e+03,2.433321e+03
1.273754e+03,2.471870e+03
1.276647e+03,2.469756e+03
1.279539e+03,2.473965e+03
1.282432e+03,2.472072e+03
1.285325e+03,2.462438e+03
1.288218e+03,2.445627e+03
1.291110e+03,2.412020e+03
1.294003e+03,2.407984e+03
1.296896e+03,2.376112e+03
1.299788e+03,2.399071e+03
1.302681e+03,2.391665e+03
1.305574e+03,2.383946e+03
1.308466e+03,2.384383e+03
1.311359e+03,2.373113e+03
1.314252e+03,2.366227e+03
1.317145e+03,2.365566e+03
1.320037e+03,2.363911e+03
1.322930e+03,2.358644e+03
1.325823e+03,2.353444e+03
1.328715e+03,2.363671e+03
1.331608e+03,2.386525e+03
1.334501e+03,2.389278e+03
1.337393e+03,2.381964e+03
1.340286e+03,2.365012e+03
1.343179e+03,2.371430e+03
1.346072e+03,2.377919e+03
1.348964e+03,2.373627e+03
1.351857e+03,2.356156e+03
1.354750e+03,2.340613e+03
1.357642e+03,2.331526e+03
1.360535e+03,2.338357e+03
1.363428e+03,2.333449e+03
1.366320e+03,2.334258e+03
1.369213e+03,2.336113e+03
1.372106e+03,2.320387e+03
1.374999e+03,2.308386e+03
1.377891e+03,2.292934e+03
1.380784e+03,2.306827e+03
1.383677e+03,2.296493e+03
1.386569e+03,2.292771e+03
1.389462e+03,2.271721e+03
1.392355e+03,2.269485e+03
1.395247e+03,2.275682e+03
1.398140e+03,2.266863e+03
1.401033e+03,2.281560e+03
1.403926e+03,2.278443e+03
1.406818e+03,2.273384e+03
1.409711e+03,2.271843e+03
1.412604e+03,2.270425e+03
1.415496e+03,2.258788e+03
1.418389e+03,2.248164e+03
1.421282e+03,2.249528e+03
1.424174e+03,2.243881e+03
1.427067e+03,2.248886e+03
1.429960e+03,2.231566e+03
1.432853e+03,2.228907e+03
1.435745e+03,2.217861e+03
1.438638e+03,2.212691e+03
1.441531e+03,2.212476e+03
1.444423e+03,2.216077e+03
1.447316e+03,2.194099e+03
1.450209e+03,2.191424e+03
1.453101e+03,2.185629e+03
1.455994e+03,2.186955e+03
1.458887e+03,2.189499e+03
1.461780e+03,2.180842e+03
1.464672e+03,2.174715e+03
1.467565e+03,2.165479e+03
1.470458e+03,2.172518e+03
1.473350e+03,2.160177e+03
1.476243e+03,2.171923e+03
1.479136e+03,2.168135e+03
1.482028e+03,2.152097e+03
1.484921e+03,2.162344e+03
1.487814e+03,2.163887e+03
1.490707e+03,2.167233e+03
1.493599e+03,2.148754e+03
1.496492e+03,2.147485e+03
1.499385e+03,2.145798e+03
1.502277e+03,2.141802e+03
1.505170e+03,2.146530e+03
1.508063e+03,2.133617e+03
1.510955e+03,2.122746e+03
1.513848e+03,2.129088e+03
1.516741e+03,2.116148e+03
1.519634e+03,2.110321e+03
1.522526e+03,2.120623e+03
1.525419e+03,2.102874e+03
1.528312e+03,2.093251e+03
1.531204e+03,2.096794e+03
1.534097e+03,2.097786e+03
1.536990e+03,2.095695e+03
1.539882e+03,2.095957e+03
1.542775e+03,2.077084e+03
1.545668e+03,2.090634e+03
1.548561e+03,2.089981e+03
1.551453e+03,2.093994e+03
1.554346e+03,2.094655e+03
1.557239e+03,2.086116e+03
1.560131e+03,2.084125e+03
1.563024e+03,2.094896e+03
1.565917e+03,2.100022e+03
1.568809e+03,2.118826e+03
1.571702e+03,2.109344e+03
1.574595e+03,2.104395e+03
1.577488e+03,2.088996e+03
1.580380e+03,2.107040e+03
1.583273e+03,2.118653e+03
1.586166e+03,2.087323e+03
1.589058e+03,2.078113e+03
1.591951e+03,2.074133e+03
1.594844e+03,2.060978e+03
1.597736e+03,2.046880e+03
1.600629e+03,2.027082e+03
1.603522e+03,2.021268e+03
1.606415e+03,2.030155e+03
1.609307e+03,2.022044e+03
1.612200e+03,2.009616e+03
1.615093e+03,2.011868e+03
1.617985e+03,2.012621e+03
1.620878e+03,1.994083e+03
1.623771e+03,2.000184e+03
1.626663e+03,1.988622e+03
1.629556e+03,1.979023e+03
1.632449e+03,1.973230e+03
1.635342e+03,1.964588e+03
1.638234e+03,1.972257e+03
1.641127e+03,1.970650e+03
1.644020e+03,1.957933e+03
1.646912e+03,1.953785e+03
1.649805e+03,1.952420e+03
1.652698e+03,1.936820e+03
1.655590e+03,1.949319e+03
1.658483e+03,1.955115e+03
1.661376e+03,1.949505e+03
1.664269e+03,1.939938e+03
1.667161e+03,1.938836e+03
1.670054e+03,1.918690e+03
1.672947e+03,1.926867e+03
1.675839e+03,1.921973e+03
1.678732e+03,1.927435e+03
1.681625e+03,1.918582e+03
1.684517e+03,1.919570e+03
1.687410e+03,1.904531e+03
1.690303e+03,1.899765e+03
1.693196e+03,1.895685e+03
1.696088e+03,1.876657e+03
1.698981e+03,1.903308e+03
1.701874e+03,1.883121e+03
1.704766e+03,1.888921e+03
1.707659e+03,1.896070e+03
1.710552e+03,1.881743e+03
1.713444e+03,1.861995e+03
1.716337e+03,1.879548e+03
1.719230e+03,1.862429e+03
1.722123e+03,1.864903e+03
1.725015e+03,1.862809e+03
1.727908e+03,1.849107e+03
1.730801e+03,1.843488e+03
1.733693e+03,1.850384e+03
1.736586e+03,1.844822e+03
1.739479e+03,1.832221e+03
1.742371e+03,1.836721e+03
1.745264e+03,1.809867e+03
1.748157e+03,1.817877e+03
1.751050e+03,1.811905e+03
1.753942e+03,1.830733e+03
1.756835e+03,1.809981e+03
1.759728e+03,1.803917e+03
1.762620e+03,1.822626e+03
1.765513e+03,1.800255e+03
1.768406e+03,1.813498e+03
1.771298e+03,1.794589e+03
1.774191e+03,1.784505e+03
1.777084e+03,1.771982e+03
1.779977e+03,1.775393e+03
1.782869e+03,1.779283e+03
1.785762e+03,1.771917e+03
1.788655e+03,1.772492e+03
1.791547e+03,1.775667e+03
1.794440e+03,1.757295e+03
1.797333e+03,1.762473e+03
1.800225e+03,1.763967e+03
1.803118e+03,1.742722e+03
1.806011e+03,1.737568e+03
1.808904e+03,1.744675e+03
1.811796e+03,1.729895e+03
1.814689e+03,1.725506e+03
1.817582e+03,1.740662e+03
1.820474e+03,1.727624e+03
1.823367e+03,1.731701e+03
1.826260e+03,1.707658e+03
1.829152e+03,1.718986e+03
1.832045e+03,1.721771e+03
1.834938e+03,1.705110e+03
1.837831e+03,1.711589e+03
1.840723e+03,1.699535e+03
1.843616e+03,1.693436e+03
1.846509e+03,1.708466e+03
1.849401e+03,1.692097e+03
1.852294e+03,1.673478e+03
1.855187e+03,1.692586e+03
1.858079e+03,1.689056e+03
1.860972e+03,1.666218e+03
1.863865e+03,1.656709e+03
1.866758e+03,1.657258e+03
1.869650e+03,1.651645e+03
1.872543e+03,1.655941e+03
1.875436e+03,1.653346e+03
1.878328e+03,1.663660e+03
1.881221e+03,1.638888e+03
1.884114e+03,1.638756e+03
1.887006e+03,1.639531e+03
1.889899e+03,1.649369e+03
1.892792e+03,1.627985e+03
1.895685e+03,1.610158e+03
1.898577e+03,1.616467e+03
1.901470e+03,1.610536e+03
1.904363e+03,1.620068e+03
1.907255e+03,1.608493e+03
1.910148e+03,1.605829e+03
1.913041e+03,1.615943e+03
1.915933e+03,1.585703e+03
1.918826e+03,1.605473e+03
1.921719e+03,1.590223e+03
1.924612e+03,1.578256e+03
1.927504e+03,1.572167e+03
1.930397e+03,1.581587e+03
1.933290e+03,1.580297e+03
1.936182e+03,1.579105e+03
1.939075e+03,1.571786e+03
1.941968e+03,1.571206e+03
1.944860e+03,1.557771e+03
1.947753e+03,1.549474e+03
1.950646e+03,1.546759e+03
1.953539e+03,1.533689e+03
1.956431e+03,1.552102e+03
1.959324e+03,1.524262e+03
1.962217e+03,1.538021e+03
1.965109e+03,1.531586e+03
1.968002e+03,1.536990e+03
1.970895e+03,1.534250e+03
1.973787e+03,1.530376e+03
1.976680e+03,1.518639e+03
1.979573e+03,1.511926e+03
1.982466e+03,1.512191e+03
1.985358e+03,1.492696e+03
1.988251e+03,1.498193e+03
1.991144e+03,1.499398e+03
1.994036e+03,1.494975e+03
1.996929e+03,1.484159e+03
1.999822e+03,1.491739e+03
2.002714e+03,1.469387e+03
2.005607e+03,1.469477e+03
2.008500e+03,1.462751e+03
2.011393e+03,1.457314e+03
2.014285e+03,1.466406e+03
2.017178e+03,1.461685e+03
2.020071e+03,1.456356e+03
2.022963e+03,1.465971e+03
2.025856e+03,1.450180e+03
2.028749e+03,1.432484e+03
2.031641e+03,1.441315e+03
2.034534e+03,1.444531e+03
2.037427e+03,1.434759e+03
2.040320e+03,1.418862e+03
2.043212e+03,1.418545e+03
2.046105e+03,1.401404e+03
2.048998e+03,1.406913e+03
2.051890e+03,1.428457e+03
2.054783e+03,1.401923e+03
2.057676e+03,1.404384e+03
2.060568e+03,1.407645e+03
2.063461e+03,1.402287e+03
2.066354e+03,1.396057e+03
2.069247e+03,1.388348e+03
2.072139e+03,1.374667e+03
2.075032e+03,1.375307e+03
2.077925e+03,1.385601e+03
2.080817e+03,1.374468e+03
2.083710e+03,1.365468e+03
2.086603e+03,1.343113e+03
2.089496e+03,1.364331e+03
2.092388e+03,1.360395e+03
2.095281e+03,1.357771e+03
2.098174e+03,1.361534e+03
2.101066e+03,1.342266e+03
2.103959e+03,1.348367e+03
2.106852e+03,1.336883e+03
2.109744e+03,1.360673e+03
2.112637e+03,1.312509e+03
2.115530e+03,1.315648e+03
2.118422e+03,1.307609e+03
2.121315e+03,1.321365e+03
2.124208e+03,1.322707e+03
2.127101e+03,1.322754e+03
2.129993e+03,1.299072e+03
2.132886e+03,1.300737e+03
2.135779e+03,1.294856e+03
2.138671e+03,1.306355e+03
2.141564e+03,1.290585e+03
2.144457e+03,1.278881e+03
2.147350e+03,1.284433e+03
2.150242e+03,1.283547e+03
2.153135e+03,1.287109e+03
2.156028e+03,1.278005e+03
2.158920e+03,1.265511e+03
2.161813e+03,1.258152e+03
2.164706e+03,1.256610e+03
2.167598e+03,1.235528e+03
2.170491e+03,1.249550e+03
2.173384e+03,1.263404e+03
2.176277e+03,1.241486e+03
2.179169e+03,1.245052e+03
2.182062e+03,1.241246e+03
2.184955e+03,1.230592e+03
2.187847e+03,1.259042e+03
2.190740e+03,1.224717e+03
2.193633e+03,1.234710e+03
2.196525e+03,1.223660e+03
2.199418e+03,1.226155e+03
2.202311e+03,1.202447e+03
2.205204e+03,1.211418e+03
2.208096e+03,1.194382e+03
2.210989e+03,1.204943e+03
2.213882e+03,1.201613e+03
2.216774e+03,1.207373e+03
2.219667e+03,1.195421e+03
2.222560e+03,1.180320e+03
2.225452e+03,1.188344e+03
2.228345e+03,1.187001e+03
2.231238e+03,1.189730e+03
2.234131e+03,1.182736e+03
2.237023e+03,1.166310e+03
2.239916e+03,1.163214e+03
2.242809e+03,1.161935e+03
2.245701e+03,1.154885e+03
2.248594e+03,1.146318e+03
2.251487e+03,1.162640e+03
2.254379e+03,1.147943e+03
2.257272e+03,1.157013e+03
2.260165e+03,1.132412e+03
2.263058e+03,1.133268e+03
2.265950e+03,1.142553e+03
2.268843e+03,1.123573e+03
2.271736e+03,1.122253e+03
2.274628e+03,1.138716e+03
2.277521e+03,1.122972e+03
2.280414e+03,1.137836e+03
2.283306e+03,1.119791e+03
2.286199e+03,1.110066e+03
2.289092e+03,1.110295e+03
2.291985e+03,1.113285e+03
2.294877e+03,1.104406e+03
2.297770e+03,1.105585e+03
2.300663e+03,1.089455e+03
2.303555e+03,1.105928e+03
2.306448e+03,1.088992e+03
2.309341e+03,1.086218e+03
2.312233e+03,1.073033e+03
2.315126e+03,1.084261e+03
2.318019e+03,1.082612e+03
2.320912e+03,1.076601e+03
2.323804e+03,1.066275e+03
2.326697e+03,1.070038e+03
2.329590e+03,1.072652e+03
2.332482e+03,1.070037e+03
2.335375e+03,1.058969e+03
2.338268e+03,1.052671e+03
2.341160e+03,1.035387e+03
2.344053e+03,1.052760e+03
2.346946e+03,1.051858e+03
2.349839e+03,1.063449e+03
2.352731e+03,1.030844e+03
2.355624e+03,1.032695e+03
2.358517e+03,1.041156e+03
2.361409e+03,1.036664e+03
2.364302e+03,1.026741e+03
2.367195e+03,1.041166e+03
2.370087e+03,1.032953e+03
2.372980e+03,1.028148e+03
2.375873e+03,1.025964e+03
2.378766e+03,1.017700e+03
2.381658e+03,1.007674e+03
2.384551e+03,1.011375e+03
2.387444e+03,9.927031e+02
2.390336e+03,1.007509e+03
2.393229e+03,1.013816e+03
2.396122e+03,9.903197e+02
2.399014e+03,9.985970e+02
2.401907e+03,9.867931e+02
2.404800e+03,9.963332e+02
2.407693e+03,9.995306e+02
2.410585e+03,9.870706e+02
2.413478e+03,9.747165e+02
2.416371e+03,9.839168e+02
2.419263e+03,9.850976e+02
2.422156e+03,9.758025e+02
2.425049e+03,9.678262e+02
2.427941e+03,9.514459e+02
2.430834e+03,9.730814e+02
2.433727e+03,9.622250e+02
2.436620e+03,9.572480e+02
2.439512e+03,9.485909e+02
2.442405e+03,9.627354e+02
2.445298e+03,9.357100e+02
2.448190e+03,9.482126e+02
2.451083e+03,9.547636e+02
2.453976e+03,9.578422e+02
2.456868e+03,9.467892e+02
2.459761e+03,9.401814e+02
2.462654e+03,9.503943e+02
2.465547e+03,9.292012e+02
2.468439e+03,9.405049e+02
2.471332e+03,9.326699e+02
2.474225e+03,9.224354e+02
2.477117e+03,9.198763e+02
2.480010e+03,9.235822e+02
2.482903e+03,9.240911e+02
2.485795e+03,9.092955e+02
2.488688e+03,9.169736e+02
2.491581e+03,9.094453e+02
2.494474e+03,9.008002e+02
2.497366e+03,9.035389e+02
2.500259e+03,9.041249e+02
2.503152e+03,9.026656e+02
2.506044e+03,8.900051e+02
2.508937e+03,9.003864e+02
2.511830e+03,8.921197e+02
2.514722e+03,8.969374e+02
2.517615e+03,8.891043e+02
2.520508e+03,8.920148e+02
2.523401e+03,8.852979e+02
2.526293e+03,8.895476e+02
2.529186e+03,8.754360e+02
2.532079e+03,8.716564e+02
2.534971e+03,8.737830e+02
2.537864e+03,8.645444e+02
2.540757e+03,8.655285e+02
2.543649e+03,8.752300e+02
2.546542e+03,8.621014e+02
2.549435e+03,8.621961e+02
2.552328e+03,8.814454e+02
2.555220e+03,8.746146e+02
2.558113e+03,8.618950e+02
2.561006e+03,8.694187e+02
2.563898e+03,8.730505e+02
2.566791e+03,8.573605e+02
2.569684e+03,8.594489e+02
2.572576e+03,8.545049e+02
2.575469e+03,8.463176e+02
2.578362e+03,8.480922e+02
2.581255e+03,8.446208e+02
2.584147e+03,8.372131e+02
2.587040e+03,8.364286e+02
2.589933e+03,8.310086e+02
2.592825e+03,8.386229e+02
2.595718e+03,8.235847e+02
2.598611e+03,8.345544e+02
2.601503e+03,8.153760e+02
2.604396e+03,8.246332e+02
2.607289e+03,8.320084e+02
2.610182e+03,8.099772e+02
2.613074e+03,8.079301e+02
2.615967e+03,8.185280e+02
2.618860e+03,8.162606e+02
2.621752e+03,8.090491e+02
2.624645e+03,7.832899e+02
2.627538e+03,8.211402e+02
2.630430e+03,7.919529e+02
2.633323e+03,7.979041e+02
2.636216e+03,8.057855e+02
2.639109e+03,7.947916e+02
2.642001e+03,7.966042e+02
2.644894e+03,7.772722e+02
2.647787e+03,7.934351e+02
2.650679e+03,7.874769e+02
2.653572e+03,7.909347e+02
2.656465e+03,8.003962e+02
2.659357e+03,7.826229e+02
2.662250e+03,7.686049e+02
2.665143e+03,7.768723e+02
2.668036e+03,7.740153e+02
2.670928e+03,7.642302e+02
2.673821e+03,7.686155e+02
2.676714e+03,7.634636e+02
2.679606e+03,7.699941e+02
2.682499e+03,7.675867e+02
2.685392e+03,7.710266e+02
2.688284e+03,7.606512e+02
2.691177e+03,7.627471e+02
2.694070e+03,7.666999e+02
2.696963e+03,7.520030e+02
2.699855e+03,7.550889e+02
2.702748e+03,7.521668e+02
2.705641e+03,7.410001e+02
2.708533e+03,7.526338e+02
2.711426e+03,7.471713e+02
2.714319e+03,7.451099e+02
2.717211e+03,7.416684e+02
2.720104e+03,7.446346e+02
2.722997e+03,7.603822e+02
2.725890e+03,7.512891e+02
2.728782e+03,7.509320e+02
2.731675e+03,7.256760e+02
2.734568e+03,7.382902e+02
2.737460e+03,7.267416e+02
2.740353e+03,7.256739e+02
2.743246e+03,7.301974e+02
2.746138e+03,7.346420e+02
2.749031e+03,7.099634e+02
2.751924e+03,7.256819e+02
2.754817e+03,7.175569e+02
2.757709e+03,7.291932e+02
2.760602e+03,7.164299e+02
2.763495e+03,7.170469e+02
2.766387e+03,6.954266e+02
2.769280e+03,7.006051e+02
2.772173e+03,7.095278e+02
2.775065e+03,7.087097e+02
2.777958e+03,6.926466e+02
2.780851e+03,7.114244e+02
2.783744e+03,7.203983e+02
2.786636e+03,6.864724e+02
2.789529e+03,7.148082e+02
2.792422e+03,7.034915e+02
2.795314e+03,6.883895e+02
2.798207e+03,7.018287e+02
2.801100e+03,6.823047e+02
2.803992e+03,6.880775e+02
2.806885e+03,7.161787e+02
2.809778e+03,6.706395e+02
2.812671e+03,6.903215e+02
2.815563e+03,6.958100e+02
2.818456e+03,6.932715e+02
2.821349e+03,6.711760e+02
2.824241e+03,6.877858e+02
2.827134e+03,6.878027e+02
2.830027e+03,6.760550e+02
2.832919e+03,6.812853e+02
2.835812e+03,6.962451e+02
2.838705e+03,6.738594e+02
2.841598e+03,6.669177e+02
2.844490e+03,6.655854e+02
2.847383e+03,6.713044e+02
2.850276e+03,6.780663e+02
2.853168e+03,6.654310e+02
2.856061e+03,6.767383e+02
2.858954e+03,6.703499e+02
2.861846e+03,6.890732e+02
2.864739e+03,6.667950e+02
2.867632e+03,6.637936e+02
2.870525e+03,6.732608e+02
2.873417e+03,6.667048e+02
2.876310e+03,6.529561e+02
2.879203e+03,6.814210e+02
2.882095e+03,6.746686e+02
2.884988e+03,6.683046e+02
2.887881e+03,6.693141e+02
2.890773e+03,6.850890e+02
2.893666e+03,6.670821e+02
2.896559e+03,6.678889e+02
2.899452e+03,6.803260e+02
2.902344e+03,6.780038e+02
2.905237e+03,6.669835e+02
2.908130e+03,6.741417e+02
2.911022e+03,6.617349e+02
2.913915e+03,6.486346e+02
2.916808e+03,6.718138e+02
2.919700e+03,6.568055e+02
2.922593e+03,6.510944e+02
2.925486e+03,6.520557e+02
2.928379e+03,6.386296e+02
2.931271e+03,6.466014e+02
2.934164e+03,6.410822e+02
2.937057e+03,6.514283e+02
2.939949e+03,6.205478e+02
2.942842e+03,6.460076e+02
2.945735e+03,6.452763e+02
2.948627e+03,6.431863e+02
2.951520e+03,6.315643e+02
2.954413e+03,6.410817e+02
2.957306e+03,6.772784e+02
2.960198e+03,6.259776e+02
2.963091e+03,6.147194e+02
2.965984e+03,6.112299e+02
2.968876e+03,6.161739e+02
2.971769e+03,6.105715e+02
2.974662e+03,6.002014e+02
2.977554e+03,6.262850e+02
2.980447e+03,6.174894e+02
2.983340e+03,5.985834e+02
2.986233e+03,6.097744e+02
2.989125e+03,5.933734e+02
2.992018e+03,6.104318e+02
2.994911e+03,5.932297e+02
2.997803e+03,6.238489e+02
3.000696e+03,5.935760e+02
3.003589e+03,5.972083e+02
3.006481e+03,6.103754e+02
3.009374e+03,5.972139e+02
3.012267e+03,5.977067e+02
3.015160e+03,6.013278e+02
3.018052e+03,5.949316e+02
3.020945e+03,5.907883e+02
3.023838e+03,5.876028e+02
3.026730e+03,5.889562e+02
3.029623e+03,5.670514e+02
3.032516e+03,5.598563e+02
3.035408e+03,5.996149e+02
3.038301e+03,5.854796e+02
3.041194e+03,5.721554e+02
3.044087e+03,5.957032e+02
3.046979e+03,5.853065e+02
3.049872e+03,5.705155e+02
3.052765e+03,5.855719e+02
3.055657e+03,5.708193e+02
3.058550e+03,6.138884e+02
3.061443e+03,5.901718e+02
3.064335e+03,5.707386e+02
3.067228e+03,5.971822e+02
3.070121e+03,6.020396e+02
3.073014e+03,5.685616e+02
3.075906e+03,5.803217e+02
3.078799e+03,5.785380e+02
3.081692e+03,5.728303e+02
3.084584e+03,5.867012e+02
3.087477e+03,5.904552e+02
3.090370e+03,5.977454e+02
3.093262e+03,5.726315e+02
3.096155e+03,5.543572e+02
3.099048e+03,6.026475e+02
3.101941e+03,5.703103e+02
3.104833e+03,5.250221e+02
3.107726e+03,5.343205e+02
3.110619e+03,5.681736e+02
3.113511e+03,5.732916e+02
3.116404e+03,5.992587e+02
3.119297e+03,6.014502e+02
3.122189e+03,5.779587e+02
3.125082e+03,5.716697e+02
3.127975e+03,5.680759e+02
3.130868e+03,5.924443e+02
3.133760e+03,5.896332e+02
3.136653e+03,5.967021e+02
3.139546e+03,5.905286e+02
3.142438e+03,5.808720e+02
3.145331e+03,5.598284e+02
3.148224e+03,5.814860e+02
3.151116e+03,5.563992e+02
3.154009e+03,5.891284e+02
3.156902e+03,5.695519e+02
3.159795e+03,5.952468e+02
3.162687e+03,5.971347e+02
3.165580e+03,5.788226e+02
3.168473e+03,5.862734e+02
3.171365e+03,5.600696e+02
3.174258e+03,6.027485e+02
3.177151e+03,5.877308e+02
3.180043e+03,5.788681e+02
3.182936e+03,5.828778e+02
3.185829e+03,5.827460e+02
3.188722e+03,5.744032e+02
3.191614e+03,5.951631e+02
3.194507e+03,5.342903e+02
3.197400e+03,6.006491e+02
3.200292e+03,6.031788e+02
3.203185e+03,0.000000e+00
3.206078e+03,0.000000e+00
3.208970e+03,0.000000e+00
3.211863e+03,0.000000e+00
3.214756e+03,0.000000e+00
3.217649e+03,0.000000e+00
3.220541e+03,0.000000e+00
3.223434e+03,0.000000e+00
3.226327e+03,0.000000e+00
3.229219e+03,0.000000e+00
3.232112e+03,0.000000e+00
3.235005e+03,0.000000e+00
3.237897e+03,0.000000e+00
3.240790e+03,0.000000e+00
3.243683e+03,0.000000e+00
3.246576e+03,0.000000e+00
3.249468e+03,0.000000e+00
3.252361e+03,0.000000e+00
3.255254e+03,0.000000e+00
3.258146e+03,0.000000e+00
3.261039e+03,0.000000e+00
3.263932e+03,0.000000e+00
3.266824e+03,0.000000e+00
3.269717e+03,0.000000e+00
3.272610e+03,0.000000e+00
3.275503e+03,0.000000e+00
3.278395e+03,0.000000e+00
3.281288e+03,0.000000e+00
3.284181e+03,0.000000e+00
3.287073e+03,0.000000e+00
3.289966e+03,0.000000e+00
3.292859e+03,0.000000e+00
3.295751e+03,0.000000e+00
3.298644e+03,0.000000e+00
3.301537e+03,0.000000e+00
3.304430e+03,0.000000e+00
3.307322e+03,0.000000e+00
3.310215e+03,0.000000e+00
3.313108e+03,0.000000e+00
3.316000e+03,0.000000e+00
3.318893e+03,0.000000e+00
3.321786e+03,0.000000e+00
3.324678e+03,0.000000e+00
3.327571e+03,0.000000e+00
3.330464e+03,0.000000e+00
3.333357e+03,0.000000e+00
3.336249e+03,0.000000e+00
3.339142e+03,0.000000e+00
3.342035e+03,0.000000e+00
3.344927e+03,0.000000e+00
3.347820e+03,0.000000e+00
3.350713e+03,0.000000e+00
3.353605e+03,0.000000e+00
3.356498e+03,0.000000e+00
3.359391e+03,0.000000e+00
3.362284e+03,0.000000e+00
3.365176e+03,0.000000e+00
3.368069e+03,0.000000e+00
3.370962e+03,0.000000e+00
3.373854e+03,0.000000e+00
3.376747e+03,0.000000e+00
3.379640e+03,0.000000e+00
3.382532e+03,0.000000e+00
3.385425e+03,0.000000e+00
3.388318e+03,0.000000e+00
3.391211e+03,0.000000e+00
3.394103e+03,0.000000e+00
3.396996e+03,0.000000e+00
3.399889e+03,0.000000e+00
3.402781e+03,0.000000e+00
3.405674e+03,0.000000e+00
3.408567e+03,0.000000e+00
3.411459e+03,0.000000e+00
3.414352e+03,0.000000e+00
3.417245e+03,0.000000e+00
3.420138e+03,0.000000e+00
3.423030e+03,0.000000e+00
3.425923e+03,0.000000e+00
3.428816e+03,0.000000e+00
3.431708e+03,0.000000e+00
3.434601e+03,0.000000e+00
3.437494e+03,0.000000e+00
3.440386e+03,0.000000e+00
3.443279e+03,0.000000e+00
3.446172e+03,0.000000e+00
3.449065e+03,0.000000e+00
3.451957e+03,0.000000e+00
3.454850e+03,0.000000e+00
3.457743e+03,0.000000e+00
3.460635e+03,0.000000e+00
3.463528e+03,0.000000e+00
3.466421e+03,0.000000e+00
3.469313e+03,0.000000e+00
3.472206e+03,0.000000e+00
3.475099e+03,0.000000e+00
3.477992e+03,0.000000e+00
3.480884e+03,0.000000e+00
3.483777e+03,0.000000e+00
3.486670e+03,0.000000e+00
3.489563e+03,0.000000e+00
3.492455e+03,0.000000e+00
3.495348e+03,0.000000e+00
3.498240e+03,0.000000e+00
3.500169e+03,0.000000e+00