File: RAMAN_data/23052023_r3/blue fibre13.CSV
9.931763e+01,0.000000e+00
1.022103e+02,0.000000e+00
1.051030e+02,0.000000e+00
1.079957e+02,0.000000e+00
1.108884e+02,0.000000e+00
1.137811e+02,0.000000e+00
1.166738e+02,0.000000e+00
1.195665e+02,0.000000e+00
1.224592e+02,0.000000e+00
1.253519e+02,0.000000e+00
1.282446e+02,0.000000e+00
1.311373e+02,0.000000e+00
1.340300e+02,0.000000e+00
1.369227e+02,0.000000e+00
1.398154e+02,0.000000e+00
1.427081e+02,0.000000e+00
1.456008e+02,0.000000e+00
1.484935e+02,0.000000e+00
1.513862e+02,0.000000e+00
1.542789e+02,0.000000e+00
1.571716e+02,0.000000e+00
1.600643e+02,0.000000e+00
1.629570e+02,0.000000e+00
1.658497e+02,0.000000e+00
1.687424e+02,0.000000e+00
1.716351e+02,0.000000e+00
1.745278e+02,0.000000e+00
1.774205e+02,0.000000e+00
1.803132e+02,0.000000e+00
1.832059e+02,0.000000e+00
1.860986e+02,0.000000e+00
1.889913e+02,0.000000e+00
1.918840e+02,0.000000e+00
1.947767e+02,0.000000e+00
1.976694e+02,0.000000e+00
2.005621e+02,4.585648e+03
2.034548e+02,4.613629e+03
2.063475e+02,4.627187e+03
2.092402e+02,4.612875e+03
2.121329e+02,4.643342e+03
2.150256e+02,4.664480e+03
2.179183e+02,4.683579e+03
2.208110e+02,4.707911e+03
2.237037e+02,4.713724e+03
2.265964e+02,4.721295e+03
2.294892e+02,4.748938e+03
2.323819e+02,4.770107e+03
2.352746e+02,4.783338e+03
2.381673e+02,4.798757e+03
2.410600e+02,4.793260e+03
2.439527e+02,4.827737e+03
2.468454e+02,4.871583e+03
2.497381e+02,4.879232e+03
2.526308e+02,4.900721e+03
2.555235e+02,4.904278e+03
2.584161e+02,4.920652e+03
2.613088e+02,4.935286e+03
2.642015e+02,4.970839e+03
2.670942e+02,4.976931e+03
2.699869e+02,5.005326e+03
2.728796e+02,5.041706e+03
2.757723e+02,5.063612e+03
2.786650e+02,5.078714e+03
2.815577e+02,5.102659e+03
2.844504e+02,5.088876e+03
2.873431e+02,5.072160e+03
2.902358e+02,5.082431e+03
2.931285e+02,5.094509e+03
2.960212e+02,5.106742e+03
2.989139e+02,5.111094e+03
3.018066e+02,5.105084e+03
3.046993e+02,5.133240e+03
3.075920e+02,5.124470e+03
3.104847e+02,5.122396e+03
3.133774e+02,5.145708e+03
3.162701e+02,5.179802e+03
3.191628e+02,5.167320e+03
3.220555e+02,5.179844e+03
3.249482e+02,5.204583e+03
3.278409e+02,5.216020e+03
3.307336e+02,5.216835e+03
3.336263e+02,5.208182e+03
3.365190e+02,5.241091e+03
3.394117e+02,5.251499e+03
3.423044e+02,5.241703e+03
3.451971e+02,5.264338e+03
3.480898e+02,5.282990e+03
3.509825e+02,5.261138e+03
3.538752e+02,5.286740e+03
3.567680e+02,5.294475e+03
3.596607e+02,5.299388e+03
3.625534e+02,5.330331e+03
3.654461e+02,5.331288e+03
3.683388e+02,5.347207e+03
3.712315e+02,5.341576e+03
3.741242e+02,5.359763e+03
3.770169e+02,5.365514e+03
3.799096e+02,5.377276e+03
3.828023e+02,5.382044e+03
3.856950e+02,5.380866e+03
3.885877e+02,5.386834e+03
3.914804e+02,5.400286e+03
3.943731e+02,5.385472e+03
3.972658e+02,5.384751e+03
4.001585e+02,5.397111e+03
4.030512e+02,5.445728e+03
4.059439e+02,5.441655e+03
4.088366e+02,5.439938e+03
4.117293e+02,5.432290e+03
4.146220e+02,5.425509e+03
4.175147e+02,5.460705e+03
4.204074e+02,5.488158e+03
4.233001e+02,5.452926e+03
4.261928e+02,5.455424e+03
4.290855e+02,5.473835e+03
4.319782e+02,5.468358e+03
4.348709e+02,5.485942e+03
4.377636e+02,5.470962e+03
4.406563e+02,5.477545e+03
4.435490e+02,5.483639e+03
4.464417e+02,5.492549e+03
4.493344e+02,5.511208e+03
4.522271e+02,5.497589e+03
4.551198e+02,5.501037e+03
4.580125e+02,5.514170e+03
4.609052e+02,5.510712e+03
4.637979e+02,5.540167e+03
4.666906e+02,5.512936e+03
4.695833e+02,5.517345e+03
4.724760e+02,5.526770e+03
4.753687e+02,5.502037e+03
4.782614e+02,5.507903e+03
4.811541e+02,5.539895e+03
4.840468e+02,5.560167e+03
4.869395e+02,5.543847e+03
4.898322e+02,5.557625e+03
4.927249e+02,5.531474e+03
4.956176e+02,5.546943e+03
4.985103e+02,5.566650e+03
5.014030e+02,5.565248e+03
5.042957e+02,5.548706e+03
5.071884e+02,5.546284e+03
5.100811e+02,5.562156e+03
5.129738e+02,5.558172e+03
5.158665e+02,5.601438e+03
5.187592e+02,5.568725e+03
5.216519e+02,5.557881e+03
5.245446e+02,5.560646e+03
5.274373e+02,5.578766e+03
5.303300e+02,5.581329e+03
5.332227e+02,5.566714e+03
5.361154e+02,5.582359e+03
5.390081e+02,5.614644e+03
5.419008e+02,5.639485e+03
5.447935e+02,5.632582e+03
5.476862e+02,5.643097e+03
5.505789e+02,5.634949e+03
5.534716e+02,5.631292e+03
5.563643e+02,5.659836e+03
5.592570e+02,5.672903e+03
5.621497e+02,5.654356e+03
5.650424e+02,5.618442e+03
5.679351e+02,5.581289e+03
5.708278e+02,5.563890e+03
5.737205e+02,5.579574e+03
5.766132e+02,5.594643e+03
5.795059e+02,5.553487e+03
5.823986e+02,5.547278e+03
5.852913e+02,5.580995e+03
5.881840e+02,5.561380e+03
5.910767e+02,5.569066e+03
5.939694e+02,5.598378e+03
5.968621e+02,5.600617e+03
5.997548e+02,5.580317e+03
6.026475e+02,5.588443e+03
6.055402e+02,5.598808e+03
6.084329e+02,5.634410e+03
6.113256e+02,5.623808e+03
6.142183e+02,5.578728e+03
6.171110e+02,5.558698e+03
6.200037e+02,5.559278e+03
6.228964e+02,5.538915e+03
6.257891e+02,5.520158e+03
6.286818e+02,5.536570e+03
6.315745e+02,5.528952e+03
6.344672e+02,5.532273e+03
6.373599e+02,5.526752e+03
6.402526e+02,5.528722e+03
6.431453e+02,5.526232e+03
6.460380e+02,5.479336e+03
6.489307e+02,5.474111e+03
6.518234e+02,5.481182e+03
6.547161e+02,5.475213e+03
6.576088e+02,5.474480e+03
6.605015e+02,5.459010e+03
6.633942e+02,5.460101e+03
6.662869e+02,5.465755e+03
6.691796e+02,5.472016e+03
6.720723e+02,5.458200e+03
6.749650e+02,5.493024e+03
6.778577e+02,5.438800e+03
6.807504e+02,5.422531e+03
6.836431e+02,5.453759e+03
6.865358e+02,5.419539e+03
6.894285e+02,5.406686e+03
6.923212e+02,5.395152e+03
6.952139e+02,5.406251e+03
6.981066e+02,5.397911e+03
7.009993e+02,5.401349e+03
7.038920e+02,5.375891e+03
7.067847e+02,5.385803e+03
7.096774e+02,5.361739e+03
7.125701e+02,5.371772e+03
7.154628e+02,5.370307e+03
7.183555e+02,5.387440e+03
7.212482e+02,5.353947e+03
7.241409e+02,5.332463e+03
7.270336e+02,5.320890e+03
7.299263e+02,5.321455e+03
7.328190e+02,5.319133e+03
7.357117e+02,5.313106e+03
7.386044e+02,5.296370e+03
7.414971e+02,5.292136e+03
7.443898e+02,5.303449e+03
7.472825e+02,5.305622e+03
7.501752e+02,5.287755e+03
7.530679e+02,5.265922e+03
7.559606e+02,5.260473e+03
7.588533e+02,5.256063e+03
7.617460e+02,5.274771e+03
7.646387e+02,5.251857e+03
7.675314e+02,5.248685e+03
7.704241e+02,5.225895e+03
7.733168e+02,5.212442e+03
7.762095e+02,5.226026e+03
7.791022e+02,5.246218e+03
7.819949e+02,5.232985e+03
7.848876e+02,5.227503e+03
7.877803e+02,5.211577e+03
7.906730e+02,5.199111e+03
7.935657e+02,5.198719e+03
7.964584e+02,5.186802e+03
7.993511e+02,5.165435e+03
8.022438e+02,5.140984e+03
8.051365e+02,5.135995e+03
8.080292e+02,5.108592e+03
8.109219e+02,5.107065e+03
8.138146e+02,5.094771e+03
8.167073e+02,5.098850e+03
8.196000e+02,5.107370e+03
8.224927e+02,5.105465e+03
8.253854e+02,5.082373e+03
8.282781e+02,5.054957e+03
8.311708e+02,5.047748e+03
8.340635e+02,5.066047e+03
8.369562e+02,5.053859e+03
8.398489e+02,5.066468e+03
8.427416e+02,5.039750e+03
8.456343e+02,5.009453e+03
8.485270e+02,5.030339e+03
8.514197e+02,5.018454e+03
8.543124e+02,5.003283e+03
8.572051e+02,5.007022e+03
8.600978e+02,4.980249e+03
8.629905e+02,4.959640e+03
8.658832e+02,4.958570e+03
8.687759e+02,4.968112e+03
8.716686e+02,4.950042e+03
8.745613e+02,4.946909e+03
8.774540e+02,4.923692e+03
8.803467e+02,4.909102e+03
8.832394e+02,4.928343e+03
8.861321e+02,4.927340e+03
8.890248e+02,4.911935e+03
8.919175e+02,4.919312e+03
8.948102e+02,4.882351e+03
8.977029e+02,4.896331e+03
9.005956e+02,4.856717e+03
9.034883e+02,4.861575e+03
9.063810e+02,4.826600e+03
9.092737e+02,4.811196e+03
9.121664e+02,4.810480e+03
9.150591e+02,4.789739e+03
9.179518e+02,4.814761e+03
9.208445e+02,4.787521e+03
9.237372e+02,4.764063e+03
9.266299e+02,4.749593e+03
9.295226e+02,4.758748e+03
9.324153e+02,4.728783e+03
9.353080e+02,4.720788e+03
9.382007e+02,4.712335e+03
9.410934e+02,4.706055e+03
9.439861e+02,4.709523e+03
9.468788e+02,4.683748e+03
9.497715e+02,4.681099e+03
9.526642e+02,4.673391e+03
9.555569e+02,4.651453e+03
9.584496e+02,4.646295e+03
9.613423e+02,4.658804e+03
9.642350e+02,4.630942e+03
9.671277e+02,4.636330e+03
9.700204e+02,4.577812e+03
9.729131e+02,4.596750e+03
9.758058e+02,4.600743e+03
9.786985e+02,4.604167e+03
9.815912e+02,4.568876e+03
9.844839e+02,4.549426e+03
9.873766e+02,4.544304e+03
9.902693e+02,4.540529e+03
9.931620e+02,4.538075e+03
9.960547e+02,4.535012e+03
9.989474e+02,4.526350e+03
1.001840e+03,4.488406e+03
1.004733e+03,4.476647e+03
1.007626e+03,4.480392e+03
1.010518e+03,4.473609e+03
1.013411e+03,4.462139e+03
1.016304e+03,4.446839e+03
1.019196e+03,4.431619e+03
1.022089e+03,4.435982e+03
1.024982e+03,4.424386e+03
1.027875e+03,4.416714e+03
1.030767e+03,4.406380e+03
1.033660e+03,4.400739e+03
1.036552e+03,4.403168e+03
1.039445e+03,4.400333e+03
1.042338e+03,4.373807e+03
1.045231e+03,4.366093e+03
1.048123e+03,4.334720e+03
1.051016e+03,4.335086e+03
1.053909e+03,4.343720e+03
1.056802e+03,4.321944e+03
1.059694e+03,4.326356e+03
1.062587e+03,4.293979e+03
1.065479e+03,4.294269e+03
1.068372e+03,4.305325e+03
1.071265e+03,4.331842e+03
1.074158e+03,4.304833e+03
1.077050e+03,4.296644e+03
1.079943e+03,4.280266e+03
1.082836e+03,4.275791e+03
1.085729e+03,4.287985e+03
1.088621e+03,4.263378e+03
1.091514e+03,4.236125e+03
1.094406e+03,4.217596e+03
1.097299e+03,4.213421e+03
1.100192e+03,4.186610e+03
1.103085e+03,4.195205e+03
1.105977e+03,4.183924e+03
1.108870e+03,4.159217e+03
1.111763e+03,4.157342e+03
1.114656e+03,4.119603e+03
1.117548e+03,4.152312e+03
1.120441e+03,4.136398e+03
1.123334e+03,4.117507e+03
1.126226e+03,4.097290e+03
1.129119e+03,4.089344e+03
1.132012e+03,4.098493e+03
1.134904e+03,4.063597e+03
1.137797e+03,4.058181e+03
1.140690e+03,4.055718e+03
1.143583e+03,4.042614e+03
1.146475e+03,4.031001e+03
1.149368e+03,4.019321e+03
1.152261e+03,4.024188e+03
1.155153e+03,3.996403e+03
1.158046e+03,3.982977e+03
1.160939e+03,3.968584e+03
1.163831e+03,3.976041e+03
1.166724e+03,3.957058e+03
1.169617e+03,3.964555e+03
1.172510e+03,3.941269e+03
1.175402e+03,3.931845e+03
1.178295e+03,3.920668e+03
1.181188e+03,3.923087e+03
1.184080e+03,3.900441e+03
1.186973e+03,3.886536e+03
1.189866e+03,3.903751e+03
1.192758e+03,3.879174e+03
1.195651e+03,3.893839e+03
1.198544e+03,3.875808e+03
1.201437e+03,3.848863e+03
1.204329e+03,3.840338e+03
1.207222e+03,3.829713e+03
1.210115e+03,3.830722e+03
1.213007e+03,3.833316e+03
1.215900e+03,3.787640e+03
1.218793e+03,3.804363e+03
1.221685e+03,3.799081e+03
1.224578e+03,3.789310e+03
1.227471e+03,3.796744e+03
1.230364e+03,3.768614e+03
1.233256e+03,3.767966e+03
1.236149e+03,3.738724e+03
1.239042e+03,3.742923e+03
1.241934e+03,3.755983e+03
1.244827e+03,3.747264e+03
1.247720e+03,3.730333e+03
1.250612e+03,3.694339e+03
1.253505e+03,3.694102e+03
1.256398e+03,3.692758e+03
1.259291e+03,3.681923e+03
1.262183e+03,3.668082e+03
1.265076e+03,3.645746e+03
1.267969e+03,3.645327e+03
1.270861e+03,3.653044e+03
1.273754e+03,3.650350e+03
1.276647e+03,3.638661e+03
1.279539e+03,3.614495e+03
1.282432e+03,3.597992e+03
1.285325e+03,3.599468e+03
1.288218e+03,3.608703e+03
1.291110e+03,3.617555e+03
1.294003e+03,3.600212e+03
1.296896e+03,3.560181e+03
1.299788e+03,3.558092e+03
1.302681e+03,3.557112e+03
1.305574e+03,3.558980e+03
1.308466e+03,3.565145e+03
1.311359e+03,3.537776e+03
1.314252e+03,3.528222e+03
1.317145e+03,3.535891e+03
1.320037e+03,3.547976e+03
1.322930e+03,3.519197e+03
1.325823e+03,3.514171e+03
1.328715e+03,3.492691e+03
1.331608e+03,3.504712e+03
1.334501e+03,3.509648e+03
1.337393e+03,3.501791e+03
1.340286e+03,3.468663e+03
1.343179e+03,3.479156e+03
1.346072e+03,3.452479e+03
1.348964e+03,3.445450e+03
1.351857e+03,3.443243e+03
1.354750e+03,3.448440e+03
1.357642e+03,3.440482e+03
1.360535e+03,3.411286e+03
1.363428e+03,3.431585e+03
1.366320e+03,3.414817e+03
1.369213e+03,3.414026e+03
1.372106e+03,3.397083e+03
1.374999e+03,3.385543e+03
1.377891e+03,3.383913e+03
1.380784e+03,3.363506e+03
1.383677e+03,3.363694e+03
1.386569e+03,3.347651e+03
1.389462e+03,3.339494e+03
1.392355e+03,3.326524e+03
1.395247e+03,3.334888e+03
1.398140e+03,3.313695e+03
1.401033e+03,3.310023e+03
1.403926e+03,3.313293e+03
1.406818e+03,3.303216e+03
1.409711e+03,3.291640e+03
1.412604e+03,3.270893e+03
1.415496e+03,3.275964e+03
1.418389e+03,3.280641e+03
1.421282e+03,3.267849e+03
1.424174e+03,3.254965e+03
1.427067e+03,3.254248e+03
1.429960e+03,3.239258e+03
1.432853e+03,3.243540e+03
1.435745e+03,3.212919e+03
1.438638e+03,3.209089e+03
1.441531e+03,3.207704e+03
1.444423e+03,3.205359e+03
1.447316e+03,3.224173e+03
1.450209e+03,3.216013e+03
1.453101e+03,3.210364e+03
1.455994e+03,3.194247e+03
1.458887e+03,3.188951e+03
1.461780e+03,3.179413e+03
1.464672e+03,3.181767e+03
1.467565e+03,3.159350e+03
1.470458e+03,3.147681e+03
1.473350e+03,3.156952e+03
1.476243e+03,3.142578e+03
1.479136e+03,3.133968e+03
1.482028e+03,3.141654e+03
1.484921e+03,3.112100e+03
1.487814e+03,3.115242e+03
1.490707e+03,3.118213e+03
1.493599e+03,3.111946e+03
1.496492e+03,3.115978e+03
1.499385e+03,3.084112e+03
1.502277e+03,3.079727e+03
1.505170e+03,3.078780e+03
1.508063e+03,3.071944e+03
1.510955e+03,3.057532e+03
1.513848e+03,3.068458e+03
1.516741e+03,3.048292e+03
1.519634e+03,3.046202e+03
1.522526e+03,3.047477e+03
1.525419e+03,3.037884e+03
1.528312e+03,3.020233e+03
1.531204e+03,3.008129e+03
1.534097e+03,3.018338e+03
1.536990e+03,3.007194e+03
1.539882e+03,2.985531e+03
1.542775e+03,2.983347e+03
1.545668e+03,2.992475e+03
1.548561e+03,2.992364e+03
1.551453e+03,2.977833e+03
1.554346e+03,2.968096e+03
1.557239e+03,2.975836e+03
1.560131e+03,2.975818e+03
1.563024e+03,2.988853e+03
1.565917e+03,3.011111e+03
1.568809e+03,3.037343e+03
1.571702e+03,3.029243e+03
1.574595e+03,2.998876e+03
1.577488e+03,3.007439e+03
1.580380e+03,2.978542e+03
1.583273e+03,2.958652e+03
1.586166e+03,2.956828e+03
1.589058e+03,2.915541e+03
1.591951e+03,2.901632e+03
1.594844e+03,2.885119e+03
1.597736e+03,2.882598e+03
1.600629e+03,2.863712e+03
1.603522e+03,2.877865e+03
1.606415e+03,2.881833e+03
1.609307e+03,2.871282e+03
1.612200e+03,2.862383e+03
1.615093e+03,2.855883e+03
1.617985e+03,2.844978e+03
1.620878e+03,2.846426e+03
1.623771e+03,2.843485e+03
1.626663e+03,2.852571e+03
1.629556e+03,2.826721e+03
1.632449e+03,2.831180e+03
1.635342e+03,2.804019e+03
1.638234e+03,2.802314e+03
1.641127e+03,2.811151e+03
1.644020e+03,2.770308e+03
1.646912e+03,2.773415e+03
1.649805e+03,2.771405e+03
1.652698e+03,2.747233e+03
1.655590e+03,2.755869e+03
1.658483e+03,2.739629e+03
1.661376e+03,2.756906e+03
1.664269e+03,2.748943e+03
1.667161e+03,2.731034e+03
1.670054e+03,2.731559e+03
1.672947e+03,2.734877e+03
1.675839e+03,2.733950e+03
1.678732e+03,2.712324e+03
1.681625e+03,2.713648e+03
1.684517e+03,2.698314e+03
1.687410e+03,2.689073e+03
1.690303e+03,2.691953e+03
1.693196e+03,2.683001e+03
1.696088e+03,2.671552e+03
1.698981e+03,2.682583e+03
1.701874e+03,2.671318e+03
1.704766e+03,2.665515e+03
1.707659e+03,2.662600e+03
1.710552e+03,2.645399e+03
1.713444e+03,2.630007e+03
1.716337e+03,2.627957e+03
1.719230e+03,2.628606e+03
1.722123e+03,2.636208e+03
1.725015e+03,2.613354e+03
1.727908e+03,2.605884e+03
1.730801e+03,2.605249e+03
1.733693e+03,2.597852e+03
1.736586e+03,2.590505e+03
1.739479e+03,2.601236e+03
1.742371e+03,2.575740e+03
1.745264e+03,2.563935e+03
1.748157e+03,2.568292e+03
1.751050e+03,2.576578e+03
1.753942e+03,2.565555e+03
1.756835e+03,2.554122e+03
1.759728e+03,2.547550e+03
1.762620e+03,2.530926e+03
1.765513e+03,2.534353e+03
1.768406e+03,2.550854e+03
1.771298e+03,2.525626e+03
1.774191e+03,2.525124e+03
1.777084e+03,2.509140e+03
1.779977e+03,2.514951e+03
1.782869e+03,2.495594e+03
1.785762e+03,2.491508e+03
1.788655e+03,2.475484e+03
1.791547e+03,2.467586e+03
1.794440e+03,2.481450e+03
1.797333e+03,2.479134e+03
1.800225e+03,2.468029e+03
1.803118e+03,2.464156e+03
1.806011e+03,2.444309e+03
1.808904e+03,2.447777e+03
1.811796e+03,2.418906e+03
1.814689e+03,2.435265e+03
1.817582e+03,2.400792e+03
1.820474e+03,2.422881e+03
1.823367e+03,2.419806e+03
1.826260e+03,2.419185e+03
1.829152e+03,2.396712e+03
1.832045e+03,2.401898e+03
1.834938e+03,2.399913e+03
1.837831e+03,2.388177e+03
1.840723e+03,2.367819e+03
1.843616e+03,2.398644e+03
1.846509e+03,2.383477e+03
1.849401e+03,2.373317e+03
1.852294e+03,2.357958e+03
1.855187e+03,2.330554e+03
1.858079e+03,2.354511e+03
1.860972e+03,2.346649e+03
1.863865e+03,2.324280e+03
1.866758e+03,2.321114e+03
1.869650e+03,2.318885e+03
1.872543e+03,2.314992e+03
1.875436e+03,2.328228e+03
1.878328e+03,2.311644e+03
1.881221e+03,2.297576e+03
1.884114e+03,2.276866e+03
1.887006e+03,2.268341e+03
1.889899e+03,2.278845e+03
1.892792e+03,2.286509e+03
1.895685e+03,2.276722e+03
1.898577e+03,2.265617e+03
1.901470e+03,2.262297e+03
1.904363e+03,2.261984e+03
1.907255e+03,2.234925e+03
1.910148e+03,2.237117e+03
1.913041e+03,2.226969e+03
1.915933e+03,2.230713e+03
1.918826e+03,2.218031e+03
1.921719e+03,2.227200e+03
1.924612e+03,2.218622e+03
1.927504e+03,2.215431e+03
1.930397e+03,2.185685e+03
1.933290e+03,2.178636e+03
1.936182e+03,2.183385e+03
1.939075e+03,2.175331e+03
1.941968e+03,2.172138e+03
1.944860e+03,2.180339e+03
1.947753e+03,2.162519e+03
1.950646e+03,2.152952e+03
1.953539e+03,2.150786e+03
1.956431e+03,2.143997e+03
1.959324e+03,2.154624e+03
1.962217e+03,2.138692e+03
1.965109e+03,2.130317e+03
1.968002e+03,2.119070e+03
1.970895e+03,2.123934e+03
1.973787e+03,2.118070e+03
1.976680e+03,2.118334e+03
1.979573e+03,2.088430e+03
1.982466e+03,2.075535e+03
1.985358e+03,2.103769e+03
1.988251e+03,2.071191e+03
1.991144e+03,2.068923e+03
1.994036e+03,2.071814e+03
1.996929e+03,2.061268e+03
1.999822e+03,2.067164e+03
2.002714e+03,2.061750e+03
2.005607e+03,2.056164e+03
2.008500e+03,2.052313e+03
2.011393e+03,2.058499e+03
2.014285e+03,2.032576e+03
2.017178e+03,2.027055e+03
2.020071e+03,2.004112e+03
2.022963e+03,1.993733e+03
2.025856e+03,1.990691e+03
2.028749e+03,1.992680e+03
2.031641e+03,1.992989e+03
2.034534e+03,1.979552e+03
2.037427e+03,1.982604e+03
2.040320e+03,1.981195e+03
2.043212e+03,1.980495e+03
2.046105e+03,1.964277e+03
2.048998e+03,1.953100e+03
2.051890e+03,1.950198e+03
2.054783e+03,1.947243e+03
2.057676e+03,1.931996e+03
2.060568e+03,1.952469e+03
2.063461e+03,1.960675e+03
2.066354e+03,1.917113e+03
2.069247e+03,1.905914e+03
2.072139e+03,1.886761e+03
2.075032e+03,1.926548e+03
2.077925e+03,1.890939e+03
2.080817e+03,1.896474e+03
2.083710e+03,1.901734e+03
2.086603e+03,1.874245e+03
2.089496e+03,1.889128e+03
2.092388e+03,1.876351e+03
2.095281e+03,1.879962e+03
2.098174e+03,1.888023e+03
2.101066e+03,1.865353e+03
2.103959e+03,1.833108e+03
2.106852e+03,1.857637e+03
2.109744e+03,1.855684e+03
2.112637e+03,1.826674e+03
2.115530e+03,1.824892e+03
2.118422e+03,1.822649e+03
2.121315e+03,1.837223e+03
2.124208e+03,1.816511e+03
2.127101e+03,1.803780e+03
2.129993e+03,1.792180e+03
2.132886e+03,1.798522e+03
2.135779e+03,1.792227e+03
2.138671e+03,1.792842e+03
2.141564e+03,1.797352e+03
2.144457e+03,1.762114e+03
2.147350e+03,1.764544e+03
2.150242e+03,1.775214e+03
2.153135e+03,1.762720e+03
2.156028e+03,1.742334e+03
2.158920e+03,1.745056e+03
2.161813e+03,1.750082e+03
2.164706e+03,1.746625e+03
2.167598e+03,1.714023e+03
2.170491e+03,1.725861e+03
2.173384e+03,1.733788e+03
2.176277e+03,1.723629e+03
2.179169e+03,1.701134e+03
2.182062e+03,1.705324e+03
2.184955e+03,1.704829e+03
2.187847e+03,1.692659e+03
2.190740e+03,1.676891e+03
2.193633e+03,1.671264e+03
2.196525e+03,1.676449e+03
2.199418e+03,1.671581e+03
2.202311e+03,1.674571e+03
2.205204e+03,1.667725e+03
2.208096e+03,1.673175e+03
2.210989e+03,1.623990e+03
2.213882e+03,1.648134e+03
2.216774e+03,1.649019e+03
2.219667e+03,1.646971e+03
2.222560e+03,1.625399e+03
2.225452e+03,1.612672e+03
2.228345e+03,1.622716e+03
2.231238e+03,1.622160e+03
2.234131e+03,1.614929e+03
2.237023e+03,1.599611e+03
2.239916e+03,1.587284e+03
2.242809e+03,1.583204e+03
2.245701e+03,1.577673e+03
2.248594e+03,1.569006e+03
2.251487e+03,1.577796e+03
2.254379e+03,1.567540e+03
2.257272e+03,1.556076e+03
2.260165e+03,1.550666e+03
2.263058e+03,1.558475e+03
2.265950e+03,1.555023e+03
2.268843e+03,1.528584e+03
2.271736e+03,1.531981e+03
2.274628e+03,1.533871e+03
2.277521e+03,1.532928e+03
2.280414e+03,1.521553e+03
2.283306e+03,1.518858e+03
2.286199e+03,1.498061e+03
2.289092e+03,1.521177e+03
2.291985e+03,1.497947e+03
2.294877e+03,1.492344e+03
2.297770e+03,1.506288e+03
2.300663e+03,1.493150e+03
2.303555e+03,1.478335e+03
2.306448e+03,1.481993e+03
2.309341e+03,1.481593e+03
2.312233e+03,1.463622e+03
2.315126e+03,1.475958e+03
2.318019e+03,1.468028e+03
2.320912e+03,1.470326e+03
2.323804e+03,1.449424e+03
2.326697e+03,1.465759e+03
2.329590e+03,1.445922e+03
2.332482e+03,1.443750e+03
2.335375e+03,1.415409e+03
2.338268e+03,1.420324e+03
2.341160e+03,1.408361e+03
2.344053e+03,1.432087e+03
2.346946e+03,1.435240e+03
2.349839e+03,1.405233e+03
2.352731e+03,1.376220e+03
2.355624e+03,1.396312e+03
2.358517e+03,1.392170e+03
2.361409e+03,1.393044e+03
2.364302e+03,1.392312e+03
2.367195e+03,1.375709e+03
2.370087e+03,1.383154e+03
2.372980e+03,1.370313e+03
2.375873e+03,1.372066e+03
2.378766e+03,1.353242e+03
2.381658e+03,1.355270e+03
2.384551e+03,1.366923e+03
2.387444e+03,1.387733e+03
2.390336e+03,1.355313e+03
2.393229e+03,1.354582e+03
2.396122e+03,1.355883e+03
2.399014e+03,1.308902e+03
2.401907e+03,1.319676e+03
2.404800e+03,1.326973e+03
2.407693e+03,1.319404e+03
2.410585e+03,1.317506e+03
2.413478e+03,1.307848e+03
2.416371e+03,1.316835e+03
2.419263e+03,1.310915e+03
2.422156e+03,1.306515e+03
2.425049e+03,1.299805e+03
2.427941e+03,1.283403e+03
2.430834e+03,1.284435e+03
2.433727e+03,1.276649e+03
2.436620e+03,1.284480e+03
2.439512e+03,1.284313e+03
2.442405e+03,1.263071e+03
2.445298e+03,1.258997e+03
2.448190e+03,1.260514e+03
2.451083e+03,1.266769e+03
2.453976e+03,1.254563e+03
2.456868e+03,1.253823e+03
2.459761e+03,1.240383e+03
2.462654e+03,1.237986e+03
2.465547e+03,1.227699e+03
2.468439e+03,1.241738e+03
2.471332e+03,1.240325e+03
2.474225e+03,1.220153e+03
2.477117e+03,1.227363e+03
2.480010e+03,1.220009e+03
2.482903e+03,1.213588e+03
2.485795e+03,1.205041e+03
2.488688e+03,1.198286e+03
2.491581e+03,1.205938e+03
2.494474e+03,1.199566e+03
2.497366e+03,1.210514e+03
2.500259e+03,1.196722e+03
2.503152e+03,1.190696e+03
2.506044e+03,1.196987e+03
2.508937e+03,1.180281e+03
2.511830e+03,1.185907e+03
2.514722e+03,1.188002e+03
2.517615e+03,1.162010e+03
2.520508e+03,1.172167e+03
2.523401e+03,1.161946e+03
2.526293e+03,1.163833e+03
2.529186e+03,1.162491e+03
2.532079e+03,1.153004e+03
2.534971e+03,1.169672e+03
2.537864e+03,1.143822e+03
2.540757e+03,1.148602e+03
2.543649e+03,1.156300e+03
2.546542e+03,1.138078e+03
2.549435e+03,1.136603e+03
2.552328e+03,1.141286e+03
2.555220e+03,1.133845e+03
2.558113e+03,1.124832e+03
2.561006e+03,1.129672e+03
2.563898e+03,1.131720e+03
2.566791e+03,1.133467e+03
2.569684e+03,1.109771e+03
2.572576e+03,1.101765e+03
2.575469e+03,1.112936e+03
2.578362e+03,1.096986e+03
2.581255e+03,1.104440e+03
2.584147e+03,1.101828e+03
2.587040e+03,1.076079e+03
2.589933e+03,1.081039e+03
2.592825e+03,1.079626e+03
2.595718e+03,1.065517e+03
2.598611e+03,1.072800e+03
2.601503e+03,1.067714e+03
2.604396e+03,1.060520e+03
2.607289e+03,1.072595e+03
2.610182e+03,1.058533e+03
2.613074e+03,1.058826e+03
2.615967e+03,1.059439e+03
2.618860e+03,1.056740e+03
2.621752e+03,1.036013e+03
2.624645e+03,1.076060e+03
2.627538e+03,1.053681e+03
2.630430e+03,1.052631e+03
2.633323e+03,1.051656e+03
2.636216e+03,1.035936e+03
2.639109e+03,1.051768e+03
2.642001e+03,1.029638e+03
2.644894e+03,1.020744e+03
2.647787e+03,1.027505e+03
2.650679e+03,1.016543e+03
2.653572e+03,1.023421e+03
2.656465e+03,1.033659e+03
2.659357e+03,1.021663e+03
2.662250e+03,1.010795e+03
2.665143e+03,1.016431e+03
2.668036e+03,1.031206e+03
2.670928e+03,1.026710e+03
2.673821e+03,1.004709e+03
2.676714e+03,1.023508e+03
2.679606e+03,9.897852e+02
2.682499e+03,9.928111e+02
2.685392e+03,9.969463e+02
2.688284e+03,1.000952e+03
2.691177e+03,9.706399e+02
2.694070e+03,9.898279e+02
2.696963e+03,9.781878e+02
2.699855e+03,9.806661e+02
2.702748e+03,9.885829e+02
2.705641e+03,9.735912e+02
2.708533e+03,9.747548e+02
2.711426e+03,9.739108e+02
2.714319e+03,9.600949e+02
2.717211e+03,9.565081e+02
2.720104e+03,9.584244e+02
2.722997e+03,9.592484e+02
2.725890e+03,9.464453e+02
2.728782e+03,9.660357e+02
2.731675e+03,9.534557e+02
2.734568e+03,9.553643e+02
2.737460e+03,9.433433e+02
2.740353e+03,9.485800e+02
2.743246e+03,9.305602e+02
2.746138e+03,9.454469e+02
2.749031e+03,9.298461e+02
2.751924e+03,9.409496e+02
2.754817e+03,9.238875e+02
2.757709e+03,9.186664e+02
2.760602e+03,9.312907e+02
2.763495e+03,9.246042e+02
2.766387e+03,9.166058e+02
2.769280e+03,9.007300e+02
2.772173e+03,9.260178e+02
2.775065e+03,9.034280e+02
2.777958e+03,9.217007e+02
2.780851e+03,9.127110e+02
2.783744e+03,9.137334e+02
2.786636e+03,9.067321e+02
2.789529e+03,9.073890e+02
2.792422e+03,9.108724e+02
2.795314e+03,8.731247e+02
2.798207e+03,9.011660e+02
2.801100e+03,9.062354e+02
2.803992e+03,8.948427e+02
2.806885e+03,8.996776e+02
2.809778e+03,8.731727e+02
2.812671e+03,8.876359e+02
2.815563e+03,8.912791e+02
2.818456e+03,9.032780e+02
2.821349e+03,8.677410e+02
2.824241e+03,8.768994e+02
2.827134e+03,8.561667e+02
2.830027e+03,8.658041e+02
2.832919e+03,8.830833e+02
2.835812e+03,8.754589e+02
2.838705e+03,8.612128e+02
2.841598e+03,8.674404e+02
2.844490e+03,8.778516e+02
2.847383e+03,8.778932e+02
2.850276e+03,8.519294e+02
2.853168e+03,8.665578e+02
2.856061e+03,8.539474e+02
2.858954e+03,8.713497e+02
2.861846e+03,8.694539e+02
2.864739e+03,8.690534e+02
2.867632e+03,8.579699e+02
2.870525e+03,8.782270e+02
2.873417e+03,8.654899e+02
2.876310e+03,8.775366e+02
2.879203e+03,8.585214e+02
2.882095e+03,8.784548e+02
2.884988e+03,8.620818e+02
2.887881e+03,8.605325e+02
2.890773e+03,8.782432e+02
2.893666e+03,8.793802e+02
2.896559e+03,8.655902e+02
2.899452e+03,8.788250e+02
2.902344e+03,8.645552e+02
2.905237e+03,8.616531e+02
2.908130e+03,8.511843e+02
2.911022e+03,8.429086e+02
2.913915e+03,8.367840e+02
2.916808e+03,8.614774e+02
2.919700e+03,8.541371e+02
2.922593e+03,8.539500e+02
2.925486e+03,8.326667e+02
2.928379e+03,8.223783e+02
2.931271e+03,8.448870e+02
2.934164e+03,8.101385e+02
2.937057e+03,8.163704e+02
2.939949e+03,8.206614e+02
2.942842e+03,8.173028e+02
2.945735e+03,8.211826e+02
2.948627e+03,8.048613e+02
2.951520e+03,8.123840e+02
2.954413e+03,8.299606e+02
2.957306e+03,8.493466e+02
2.960198e+03,8.100138e+02
2.963091e+03,7.952875e+02
2.965984e+03,7.705173e+02
2.968876e+03,7.697383e+02
2.971769e+03,7.735313e+02
2.974662e+03,8.118649e+02
2.977554e+03,8.151540e+02
2.980447e+03,8.016426e+02
2.983340e+03,7.805029e+02
2.986233e+03,7.790403e+02
2.989125e+03,7.942178e+02
2.992018e+03,7.686615e+02
2.994911e+03,7.625684e+02
2.997803e+03,7.830060e+02
3.000696e+03,7.416780e+02
3.003589e+03,7.531270e+02
3.006481e+03,7.577374e+02
3.009374e+03,7.750833e+02
3.012267e+03,7.621050e+02
3.015160e+03,7.662969e+02
3.018052e+03,7.568606e+02
3.020945e+03,7.421561e+02
3.023838e+03,7.677687e+02
3.026730e+03,7.458859e+02
3.029623e+03,7.409523e+02
3.032516e+03,7.831361e+02
3.035408e+03,7.678031e+02
3.038301e+03,7.598911e+02
3.041194e+03,7.703282e+02
3.044087e+03,7.664246e+02
3.046979e+03,7.616413e+02
3.049872e+03,7.142052e+02
3.052765e+03,7.471949e+02
3.055657e+03,7.720665e+02
3.058550e+03,7.552713e+02
3.061443e+03,7.900582e+02
3.064335e+03,7.598556e+02
3.067228e+03,7.584033e+02
3.070121e+03,7.432309e+02
3.073014e+03,7.420540e+02
3.075906e+03,7.382912e+02
3.078799e+03,7.275540e+02
3.081692e+03,7.264505e+02
3.084584e+03,7.583371e+02
3.087477e+03,7.447234e+02
3.090370e+03,7.484479e+02
3.093262e+03,7.656684e+02
3.096155e+03,7.216537e+02
3.099048e+03,7.494352e+02
3.101941e+03,7.683635e+02
3.104833e+03,7.424929e+02
3.107726e+03,7.025919e+02
3.110619e+03,7.457537e+02
3.113511e+03,7.363726e+02
3.116404e+03,7.570746e+02
3.119297e+03,7.313179e+02
3.122189e+03,7.488115e+02
3.125082e+03,7.214694e+02
3.127975e+03,7.592097e+02
3.130868e+03,7.493224e+02
3.133760e+03,7.481532e+02
3.136653e+03,7.273221e+02
3.139546e+03,7.840075e+02
3.142438e+03,7.681659e+02
3.145331e+03,7.437920e+02
3.148224e+03,7.566581e+02
3.151116e+03,7.411465e+02
3.154009e+03,7.142218e+02
3.156902e+03,7.368751e+02
3.159795e+03,7.289979e+02
3.162687e+03,7.615025e+02
3.165580e+03,7.171879e+02
3.168473e+03,7.569163e+02
3.171365e+03,7.116900e+02
3.174258e+03,7.747664e+02
3.177151e+03,7.313876e+02
3.180043e+03,7.321443e+02
3.182936e+03,7.568903e+02
3.185829e+03,7.424539e+02
3.188722e+03,7.248175e+02
3.191614e+03,7.491641e+02
3.194507e+03,7.260511e+02
3.197400e+03,7.365844e+02
3.200292e+03,7.623682e+02
3.203185e+03,0.000000e+00
3.206078e+03,0.000000e+00
3.208970e+03,0.000000e+00
3.211863e+03,0.000000e+00
3.214756e+03,0.000000e+00
3.217649e+03,0.000000e+00
3.220541e+03,0.000000e+00
3.223434e+03,0.000000e+00
3.226327e+03,0.000000e+00
3.229219e+03,0.000000e+00
3.232112e+03,0.000000e+00
3.235005e+03,0.000000e+00
3.237897e+03,0.000000e+00
3.240790e+03,0.000000e+00
3.243683e+03,0.000000e+00
3.246576e+03,0.000000e+00
3.249468e+03,0.000000e+00
3.252361e+03,0.000000e+00
3.255254e+03,0.000000e+00
3.258146e+03,0.000000e+00
3.261039e+03,0.000000e+00
3.263932e+03,0.000000e+00
3.266824e+03,0.000000e+00
3.269717e+03,0.000000e+00
3.272610e+03,0.000000e+00
3.275503e+03,0.000000e+00
3.278395e+03,0.000000e+00
3.281288e+03,0.000000e+00
3.284181e+03,0.000000e+00
3.287073e+03,0.000000e+00
3.289966e+03,0.000000e+00
3.292859e+03,0.000000e+00
3.295751e+03,0.000000e+00
3.298644e+03,0.000000e+00
3.301537e+03,0.000000e+00
3.304430e+03,0.000000e+00
3.307322e+03,0.000000e+00
3.310215e+03,0.000000e+00
3.313108e+03,0.000000e+00
3.316000e+03,0.000000e+00
3.318893e+03,0.000000e+00
3.321786e+03,0.000000e+00
3.324678e+03,0.000000e+00
3.327571e+03,0.000000e+00
3.330464e+03,0.000000e+00
3.333357e+03,0.000000e+00
3.336249e+03,0.000000e+00
3.339142e+03,0.000000e+00
3.342035e+03,0.000000e+00
3.344927e+03,0.000000e+00
3.347820e+03,0.000000e+00
3.350713e+03,0.000000e+00
3.353605e+03,0.000000e+00
3.356498e+03,0.000000e+00
3.359391e+03,0.000000e+00
3.362284e+03,0.000000e+00
3.365176e+03,0.000000e+00
3.368069e+03,0.000000e+00
3.370962e+03,0.000000e+00
3.373854e+03,0.000000e+00
3.376747e+03,0.000000e+00
3.379640e+03,0.000000e+00
3.382532e+03,0.000000e+00
3.385425e+03,0.000000e+00
3.388318e+03,0.000000e+00
3.391211e+03,0.000000e+00
3.394103e+03,0.000000e+00
3.396996e+03,0.000000e+00
3.399889e+03,0.000000e+00
3.402781e+03,0.000000e+00
3.405674e+03,0.000000e+00
3.408567e+03,0.000000e+00
3.411459e+03,0.000000e+00
3.414352e+03,0.000000e+00
3.417245e+03,0.000000e+00
3.420138e+03,0.000000e+00
3.423030e+03,0.000000e+00
3.425923e+03,0.000000e+00
3.428816e+03,0.000000e+00
3.431708e+03,0.000000e+00
3.434601e+03,0.000000e+00
3.437494e+03,0.000000e+00
3.440386e+03,0.000000e+00
3.443279e+03,0.000000e+00
3.446172e+03,0.000000e+00
3.449065e+03,0.000000e+00
3.451957e+03,0.000000e+00
3.454850e+03,0.000000e+00
3.457743e+03,0.000000e+00
3.460635e+03,0.000000e+00
3.463528e+03,0.000000e+00
3.466421e+03,0.000000e+00
3.469313e+03,0.000000e+00
3.472206e+03,0.000000e+00
3.475099e+03,0.000000e+00
3.477992e+03,0.000000e+00
3.480884e+03,0.000000e+00
3.483777e+03,0.000000e+00
3.486670e+03,0.000000e+00
3.489563e+03,0.000000e+00
3.492455e+03,0.000000e+00
3.495348e+03,0.000000e+00
3.498240e+03,0.000000e+00
3.500169e+03,0.000000e+00