File: RAMAN_data/23052023_r3/blue fibre17.CSV
9.931763e+01,0.000000e+00
1.022103e+02,0.000000e+00
1.051030e+02,0.000000e+00
1.079957e+02,0.000000e+00
1.108884e+02,0.000000e+00
1.137811e+02,0.000000e+00
1.166738e+02,0.000000e+00
1.195665e+02,0.000000e+00
1.224592e+02,0.000000e+00
1.253519e+02,0.000000e+00
1.282446e+02,0.000000e+00
1.311373e+02,0.000000e+00
1.340300e+02,0.000000e+00
1.369227e+02,0.000000e+00
1.398154e+02,0.000000e+00
1.427081e+02,0.000000e+00
1.456008e+02,0.000000e+00
1.484935e+02,0.000000e+00
1.513862e+02,0.000000e+00
1.542789e+02,0.000000e+00
1.571716e+02,0.000000e+00
1.600643e+02,0.000000e+00
1.629570e+02,0.000000e+00
1.658497e+02,0.000000e+00
1.687424e+02,0.000000e+00
1.716351e+02,0.000000e+00
1.745278e+02,0.000000e+00
1.774205e+02,0.000000e+00
1.803132e+02,0.000000e+00
1.832059e+02,0.000000e+00
1.860986e+02,0.000000e+00
1.889913e+02,0.000000e+00
1.918840e+02,0.000000e+00
1.947767e+02,0.000000e+00
1.976694e+02,0.000000e+00
2.005621e+02,3.243062e+03
2.034548e+02,3.260167e+03
2.063475e+02,3.261910e+03
2.092402e+02,3.278701e+03
2.121329e+02,3.267265e+03
2.150256e+02,3.277048e+03
2.179183e+02,3.286518e+03
2.208110e+02,3.310462e+03
2.237037e+02,3.317981e+03
2.265964e+02,3.314598e+03
2.294892e+02,3.330252e+03
2.323819e+02,3.339247e+03
2.352746e+02,3.377859e+03
2.381673e+02,3.368684e+03
2.410600e+02,3.375370e+03
2.439527e+02,3.399041e+03
2.468454e+02,3.402669e+03
2.497381e+02,3.426677e+03
2.526308e+02,3.442444e+03
2.555235e+02,3.441695e+03
2.584161e+02,3.428469e+03
2.613088e+02,3.438543e+03
2.642015e+02,3.477016e+03
2.670942e+02,3.488491e+03
2.699869e+02,3.492932e+03
2.728796e+02,3.505729e+03
2.757723e+02,3.538869e+03
2.786650e+02,3.549937e+03
2.815577e+02,3.555519e+03
2.844504e+02,3.549046e+03
2.873431e+02,3.542823e+03
2.902358e+02,3.524787e+03
2.931285e+02,3.533194e+03
2.960212e+02,3.550411e+03
2.989139e+02,3.556424e+03
3.018066e+02,3.554243e+03
3.046993e+02,3.551517e+03
3.075920e+02,3.548264e+03
3.104847e+02,3.565856e+03
3.133774e+02,3.565398e+03
3.162701e+02,3.558188e+03
3.191628e+02,3.592953e+03
3.220555e+02,3.600146e+03
3.249482e+02,3.595387e+03
3.278409e+02,3.606048e+03
3.307336e+02,3.624510e+03
3.336263e+02,3.617494e+03
3.365190e+02,3.589175e+03
3.394117e+02,3.622063e+03
3.423044e+02,3.623440e+03
3.451971e+02,3.633490e+03
3.480898e+02,3.639556e+03
3.509825e+02,3.621642e+03
3.538752e+02,3.636608e+03
3.567680e+02,3.657184e+03
3.596607e+02,3.670480e+03
3.625534e+02,3.673804e+03
3.654461e+02,3.654050e+03
3.683388e+02,3.652383e+03
3.712315e+02,3.670998e+03
3.741242e+02,3.687070e+03
3.770169e+02,3.703553e+03
3.799096e+02,3.686381e+03
3.828023e+02,3.684466e+03
3.856950e+02,3.692839e+03
3.885877e+02,3.682717e+03
3.914804e+02,3.698047e+03
3.943731e+02,3.699025e+03
3.972658e+02,3.705018e+03
4.001585e+02,3.707865e+03
4.030512e+02,3.698239e+03
4.059439e+02,3.695866e+03
4.088366e+02,3.700807e+03
4.117293e+02,3.703248e+03
4.146220e+02,3.713411e+03
4.175147e+02,3.724337e+03
4.204074e+02,3.729827e+03
4.233001e+02,3.730632e+03
4.261928e+02,3.739503e+03
4.290855e+02,3.732197e+03
4.319782e+02,3.731108e+03
4.348709e+02,3.741446e+03
4.377636e+02,3.738692e+03
4.406563e+02,3.714077e+03
4.435490e+02,3.743646e+03
4.464417e+02,3.750583e+03
4.493344e+02,3.740863e+03
4.522271e+02,3.754757e+03
4.551198e+02,3.753111e+03
4.580125e+02,3.754476e+03
4.609052e+02,3.747001e+03
4.637979e+02,3.751159e+03
4.666906e+02,3.749054e+03
4.695833e+02,3.739381e+03
4.724760e+02,3.748078e+03
4.753687e+02,3.756528e+03
4.782614e+02,3.747553e+03
4.811541e+02,3.761827e+03
4.840468e+02,3.772174e+03
4.869395e+02,3.780396e+03
4.898322e+02,3.753073e+03
4.927249e+02,3.758154e+03
4.956176e+02,3.737356e+03
4.985103e+02,3.758870e+03
5.014030e+02,3.757315e+03
5.042957e+02,3.771382e+03
5.071884e+02,3.766418e+03
5.100811e+02,3.775778e+03
5.129738e+02,3.772927e+03
5.158665e+02,3.773450e+03
5.187592e+02,3.793966e+03
5.216519e+02,3.768612e+03
5.245446e+02,3.761247e+03
5.274373e+02,3.769357e+03
5.303300e+02,3.783963e+03
5.332227e+02,3.770613e+03
5.361154e+02,3.786640e+03
5.390081e+02,3.768936e+03
5.419008e+02,3.797031e+03
5.447935e+02,3.802114e+03
5.476862e+02,3.810391e+03
5.505789e+02,3.825575e+03
5.534716e+02,3.820308e+03
5.563643e+02,3.851522e+03
5.592570e+02,3.839133e+03
5.621497e+02,3.808605e+03
5.650424e+02,3.797282e+03
5.679351e+02,3.778829e+03
5.708278e+02,3.760890e+03
5.737205e+02,3.761805e+03
5.766132e+02,3.748949e+03
5.795059e+02,3.767928e+03
5.823986e+02,3.747831e+03
5.852913e+02,3.732946e+03
5.881840e+02,3.757247e+03
5.910767e+02,3.756816e+03
5.939694e+02,3.767083e+03
5.968621e+02,3.781669e+03
5.997548e+02,3.752327e+03
6.026475e+02,3.770229e+03
6.055402e+02,3.772247e+03
6.084329e+02,3.792862e+03
6.113256e+02,3.778502e+03
6.142183e+02,3.750626e+03
6.171110e+02,3.732885e+03
6.200037e+02,3.718949e+03
6.228964e+02,3.717822e+03
6.257891e+02,3.732301e+03
6.286818e+02,3.706618e+03
6.315745e+02,3.720626e+03
6.344672e+02,3.714353e+03
6.373599e+02,3.710198e+03
6.402526e+02,3.697475e+03
6.431453e+02,3.703343e+03
6.460380e+02,3.700917e+03
6.489307e+02,3.714991e+03
6.518234e+02,3.701252e+03
6.547161e+02,3.680610e+03
6.576088e+02,3.682390e+03
6.605015e+02,3.659752e+03
6.633942e+02,3.660602e+03
6.662869e+02,3.676799e+03
6.691796e+02,3.664837e+03
6.720723e+02,3.648450e+03
6.749650e+02,3.661622e+03
6.778577e+02,3.636268e+03
6.807504e+02,3.653880e+03
6.836431e+02,3.661935e+03
6.865358e+02,3.645665e+03
6.894285e+02,3.630841e+03
6.923212e+02,3.631842e+03
6.952139e+02,3.626311e+03
6.981066e+02,3.624059e+03
7.009993e+02,3.619349e+03
7.038920e+02,3.600108e+03
7.067847e+02,3.594333e+03
7.096774e+02,3.595838e+03
7.125701e+02,3.589982e+03
7.154628e+02,3.588808e+03
7.183555e+02,3.596652e+03
7.212482e+02,3.569493e+03
7.241409e+02,3.569791e+03
7.270336e+02,3.577231e+03
7.299263e+02,3.572360e+03
7.328190e+02,3.551942e+03
7.357117e+02,3.562632e+03
7.386044e+02,3.564361e+03
7.414971e+02,3.544137e+03
7.443898e+02,3.541484e+03
7.472825e+02,3.555592e+03
7.501752e+02,3.544306e+03
7.530679e+02,3.529818e+03
7.559606e+02,3.534120e+03
7.588533e+02,3.529874e+03
7.617460e+02,3.525385e+03
7.646387e+02,3.497262e+03
7.675314e+02,3.515902e+03
7.704241e+02,3.507105e+03
7.733168e+02,3.501931e+03
7.762095e+02,3.540182e+03
7.791022e+02,3.531284e+03
7.819949e+02,3.472876e+03
7.848876e+02,3.499688e+03
7.877803e+02,3.514420e+03
7.906730e+02,3.497616e+03
7.935657e+02,3.485068e+03
7.964584e+02,3.466747e+03
7.993511e+02,3.450903e+03
8.022438e+02,3.453978e+03
8.051365e+02,3.442673e+03
8.080292e+02,3.434337e+03
8.109219e+02,3.412638e+03
8.138146e+02,3.427128e+03
8.167073e+02,3.406822e+03
8.196000e+02,3.401036e+03
8.224927e+02,3.414953e+03
8.253854e+02,3.413178e+03
8.282781e+02,3.411295e+03
8.311708e+02,3.389338e+03
8.340635e+02,3.402923e+03
8.369562e+02,3.381022e+03
8.398489e+02,3.386451e+03
8.427416e+02,3.384407e+03
8.456343e+02,3.350164e+03
8.485270e+02,3.358062e+03
8.514197e+02,3.343523e+03
8.543124e+02,3.354752e+03
8.572051e+02,3.333650e+03
8.600978e+02,3.334353e+03
8.629905e+02,3.324917e+03
8.658832e+02,3.326805e+03
8.687759e+02,3.321724e+03
8.716686e+02,3.314558e+03
8.745613e+02,3.325029e+03
8.774540e+02,3.308121e+03
8.803467e+02,3.307848e+03
8.832394e+02,3.313418e+03
8.861321e+02,3.283208e+03
8.890248e+02,3.277616e+03
8.919175e+02,3.282961e+03
8.948102e+02,3.262840e+03
8.977029e+02,3.267445e+03
9.005956e+02,3.273046e+03
9.034883e+02,3.246619e+03
9.063810e+02,3.225843e+03
9.092737e+02,3.221352e+03
9.121664e+02,3.222099e+03
9.150591e+02,3.210441e+03
9.179518e+02,3.205222e+03
9.208445e+02,3.192291e+03
9.237372e+02,3.184972e+03
9.266299e+02,3.192936e+03
9.295226e+02,3.186875e+03
9.324153e+02,3.184155e+03
9.353080e+02,3.188121e+03
9.382007e+02,3.167634e+03
9.410934e+02,3.150824e+03
9.439861e+02,3.136268e+03
9.468788e+02,3.149462e+03
9.497715e+02,3.135118e+03
9.526642e+02,3.117793e+03
9.555569e+02,3.122026e+03
9.584496e+02,3.110589e+03
9.613423e+02,3.099725e+03
9.642350e+02,3.107417e+03
9.671277e+02,3.101912e+03
9.700204e+02,3.074524e+03
9.729131e+02,3.051341e+03
9.758058e+02,3.072766e+03
9.786985e+02,3.060358e+03
9.815912e+02,3.052552e+03
9.844839e+02,3.032287e+03
9.873766e+02,3.046548e+03
9.902693e+02,3.027129e+03
9.931620e+02,3.039014e+03
9.960547e+02,3.032908e+03
9.989474e+02,3.027887e+03
1.001840e+03,2.995347e+03
1.004733e+03,2.995552e+03
1.007626e+03,3.001026e+03
1.010518e+03,3.011981e+03
1.013411e+03,2.980742e+03
1.016304e+03,2.974020e+03
1.019196e+03,2.981429e+03
1.022089e+03,2.955318e+03
1.024982e+03,2.960129e+03
1.027875e+03,2.954811e+03
1.030767e+03,2.943095e+03
1.033660e+03,2.939388e+03
1.036552e+03,2.934322e+03
1.039445e+03,2.919441e+03
1.042338e+03,2.928459e+03
1.045231e+03,2.931345e+03
1.048123e+03,2.914297e+03
1.051016e+03,2.915706e+03
1.053909e+03,2.911521e+03
1.056802e+03,2.906698e+03
1.059694e+03,2.890961e+03
1.062587e+03,2.908902e+03
1.065479e+03,2.876704e+03
1.068372e+03,2.874057e+03
1.071265e+03,2.887467e+03
1.074158e+03,2.890089e+03
1.077050e+03,2.879057e+03
1.079943e+03,2.883251e+03
1.082836e+03,2.891530e+03
1.085729e+03,2.886617e+03
1.088621e+03,2.857902e+03
1.091514e+03,2.853450e+03
1.094406e+03,2.838335e+03
1.097299e+03,2.828525e+03
1.100192e+03,2.832302e+03
1.103085e+03,2.815790e+03
1.105977e+03,2.820365e+03
1.108870e+03,2.798557e+03
1.111763e+03,2.801918e+03
1.114656e+03,2.801254e+03
1.117548e+03,2.804395e+03
1.120441e+03,2.789514e+03
1.123334e+03,2.775967e+03
1.126226e+03,2.747922e+03
1.129119e+03,2.750479e+03
1.132012e+03,2.740430e+03
1.134904e+03,2.730303e+03
1.137797e+03,2.723019e+03
1.140690e+03,2.718776e+03
1.143583e+03,2.699398e+03
1.146475e+03,2.716152e+03
1.149368e+03,2.710024e+03
1.152261e+03,2.706137e+03
1.155153e+03,2.685672e+03
1.158046e+03,2.663615e+03
1.160939e+03,2.662878e+03
1.163831e+03,2.672590e+03
1.166724e+03,2.665817e+03
1.169617e+03,2.645417e+03
1.172510e+03,2.653492e+03
1.175402e+03,2.638480e+03
1.178295e+03,2.621059e+03
1.181188e+03,2.642934e+03
1.184080e+03,2.624184e+03
1.186973e+03,2.628230e+03
1.189866e+03,2.609150e+03
1.192758e+03,2.601230e+03
1.195651e+03,2.606705e+03
1.198544e+03,2.604005e+03
1.201437e+03,2.580196e+03
1.204329e+03,2.580115e+03
1.207222e+03,2.569972e+03
1.210115e+03,2.577554e+03
1.213007e+03,2.571685e+03
1.215900e+03,2.560247e+03
1.218793e+03,2.547726e+03
1.221685e+03,2.557014e+03
1.224578e+03,2.547391e+03
1.227471e+03,2.541702e+03
1.230364e+03,2.561021e+03
1.233256e+03,2.524726e+03
1.236149e+03,2.504184e+03
1.239042e+03,2.513184e+03
1.241934e+03,2.506442e+03
1.244827e+03,2.516329e+03
1.247720e+03,2.489944e+03
1.250612e+03,2.479474e+03
1.253505e+03,2.477148e+03
1.256398e+03,2.471143e+03
1.259291e+03,2.471718e+03
1.262183e+03,2.457540e+03
1.265076e+03,2.460632e+03
1.267969e+03,2.446783e+03
1.270861e+03,2.443407e+03
1.273754e+03,2.452136e+03
1.276647e+03,2.453351e+03
1.279539e+03,2.425282e+03
1.282432e+03,2.417495e+03
1.285325e+03,2.430288e+03
1.288218e+03,2.418484e+03
1.291110e+03,2.414044e+03
1.294003e+03,2.419300e+03
1.296896e+03,2.388397e+03
1.299788e+03,2.389918e+03
1.302681e+03,2.398919e+03
1.305574e+03,2.390407e+03
1.308466e+03,2.387223e+03
1.311359e+03,2.378275e+03
1.314252e+03,2.381497e+03
1.317145e+03,2.370099e+03
1.320037e+03,2.387089e+03
1.322930e+03,2.362273e+03
1.325823e+03,2.355084e+03
1.328715e+03,2.355802e+03
1.331608e+03,2.361683e+03
1.334501e+03,2.366567e+03
1.337393e+03,2.364683e+03
1.340286e+03,2.336873e+03
1.343179e+03,2.345072e+03
1.346072e+03,2.328929e+03
1.348964e+03,2.322333e+03
1.351857e+03,2.321279e+03
1.354750e+03,2.314792e+03
1.357642e+03,2.305019e+03
1.360535e+03,2.300363e+03
1.363428e+03,2.308668e+03
1.366320e+03,2.307208e+03
1.369213e+03,2.312578e+03
1.372106e+03,2.294505e+03
1.374999e+03,2.283370e+03
1.377891e+03,2.287055e+03
1.380784e+03,2.271536e+03
1.383677e+03,2.283593e+03
1.386569e+03,2.256757e+03
1.389462e+03,2.240531e+03
1.392355e+03,2.238267e+03
1.395247e+03,2.239475e+03
1.398140e+03,2.234789e+03
1.401033e+03,2.241154e+03
1.403926e+03,2.236684e+03
1.406818e+03,2.212024e+03
1.409711e+03,2.208822e+03
1.412604e+03,2.210189e+03
1.415496e+03,2.206180e+03
1.418389e+03,2.198857e+03
1.421282e+03,2.193153e+03
1.424174e+03,2.197051e+03
1.427067e+03,2.190227e+03
1.429960e+03,2.194298e+03
1.432853e+03,2.172744e+03
1.435745e+03,2.160516e+03
1.438638e+03,2.174616e+03
1.441531e+03,2.160290e+03
1.444423e+03,2.172969e+03
1.447316e+03,2.165390e+03
1.450209e+03,2.150058e+03
1.453101e+03,2.162253e+03
1.455994e+03,2.155530e+03
1.458887e+03,2.158532e+03
1.461780e+03,2.147182e+03
1.464672e+03,2.131347e+03
1.467565e+03,2.127258e+03
1.470458e+03,2.132223e+03
1.473350e+03,2.122822e+03
1.476243e+03,2.117443e+03
1.479136e+03,2.117051e+03
1.482028e+03,2.097735e+03
1.484921e+03,2.101601e+03
1.487814e+03,2.084051e+03
1.490707e+03,2.105187e+03
1.493599e+03,2.087100e+03
1.496492e+03,2.077348e+03
1.499385e+03,2.084525e+03
1.502277e+03,2.070672e+03
1.505170e+03,2.082946e+03
1.508063e+03,2.066897e+03
1.510955e+03,2.052119e+03
1.513848e+03,2.066935e+03
1.516741e+03,2.044499e+03
1.519634e+03,2.049641e+03
1.522526e+03,2.056644e+03
1.525419e+03,2.045250e+03
1.528312e+03,2.033233e+03
1.531204e+03,2.030402e+03
1.534097e+03,2.026156e+03
1.536990e+03,2.022460e+03
1.539882e+03,2.009585e+03
1.542775e+03,2.000435e+03
1.545668e+03,2.000022e+03
1.548561e+03,2.013839e+03
1.551453e+03,2.016164e+03
1.554346e+03,1.997250e+03
1.557239e+03,1.996651e+03
1.560131e+03,1.989098e+03
1.563024e+03,2.008443e+03
1.565917e+03,2.030845e+03
1.568809e+03,2.052995e+03
1.571702e+03,2.038856e+03
1.574595e+03,2.025429e+03
1.577488e+03,2.002759e+03
1.580380e+03,2.011362e+03
1.583273e+03,1.996575e+03
1.586166e+03,1.990379e+03
1.589058e+03,1.964204e+03
1.591951e+03,1.968408e+03
1.594844e+03,1.945992e+03
1.597736e+03,1.939964e+03
1.600629e+03,1.943233e+03
1.603522e+03,1.944001e+03
1.606415e+03,1.943525e+03
1.609307e+03,1.942947e+03
1.612200e+03,1.928544e+03
1.615093e+03,1.921410e+03
1.617985e+03,1.937799e+03
1.620878e+03,1.928031e+03
1.623771e+03,1.917868e+03
1.626663e+03,1.912408e+03
1.629556e+03,1.922142e+03
1.632449e+03,1.914933e+03
1.635342e+03,1.912775e+03
1.638234e+03,1.897399e+03
1.641127e+03,1.887662e+03
1.644020e+03,1.880813e+03
1.646912e+03,1.876998e+03
1.649805e+03,1.878584e+03
1.652698e+03,1.875169e+03
1.655590e+03,1.862758e+03
1.658483e+03,1.858379e+03
1.661376e+03,1.861702e+03
1.664269e+03,1.852056e+03
1.667161e+03,1.867686e+03
1.670054e+03,1.857895e+03
1.672947e+03,1.856461e+03
1.675839e+03,1.858173e+03
1.678732e+03,1.846796e+03
1.681625e+03,1.826058e+03
1.684517e+03,1.830785e+03
1.687410e+03,1.840125e+03
1.690303e+03,1.826574e+03
1.693196e+03,1.822232e+03
1.696088e+03,1.823406e+03
1.698981e+03,1.798217e+03
1.701874e+03,1.814838e+03
1.704766e+03,1.803040e+03
1.707659e+03,1.795500e+03
1.710552e+03,1.802621e+03
1.713444e+03,1.774470e+03
1.716337e+03,1.777612e+03
1.719230e+03,1.768374e+03
1.722123e+03,1.796146e+03
1.725015e+03,1.775359e+03
1.727908e+03,1.777986e+03
1.730801e+03,1.767642e+03
1.733693e+03,1.771778e+03
1.736586e+03,1.762906e+03
1.739479e+03,1.754022e+03
1.742371e+03,1.750575e+03
1.745264e+03,1.752681e+03
1.748157e+03,1.734887e+03
1.751050e+03,1.738069e+03
1.753942e+03,1.733777e+03
1.756835e+03,1.741889e+03
1.759728e+03,1.732094e+03
1.762620e+03,1.717137e+03
1.765513e+03,1.731473e+03
1.768406e+03,1.721911e+03
1.771298e+03,1.716491e+03
1.774191e+03,1.719966e+03
1.777084e+03,1.707626e+03
1.779977e+03,1.692458e+03
1.782869e+03,1.697983e+03
1.785762e+03,1.678070e+03
1.788655e+03,1.684844e+03
1.791547e+03,1.680957e+03
1.794440e+03,1.668418e+03
1.797333e+03,1.683609e+03
1.800225e+03,1.690348e+03
1.803118e+03,1.669507e+03
1.806011e+03,1.658349e+03
1.808904e+03,1.659254e+03
1.811796e+03,1.654209e+03
1.814689e+03,1.654710e+03
1.817582e+03,1.650003e+03
1.820474e+03,1.646839e+03
1.823367e+03,1.633376e+03
1.826260e+03,1.638744e+03
1.829152e+03,1.646940e+03
1.832045e+03,1.636446e+03
1.834938e+03,1.639281e+03
1.837831e+03,1.631823e+03
1.840723e+03,1.603004e+03
1.843616e+03,1.632008e+03
1.846509e+03,1.609879e+03
1.849401e+03,1.604654e+03
1.852294e+03,1.601405e+03
1.855187e+03,1.580167e+03
1.858079e+03,1.607358e+03
1.860972e+03,1.581862e+03
1.863865e+03,1.582705e+03
1.866758e+03,1.577317e+03
1.869650e+03,1.578116e+03
1.872543e+03,1.577227e+03
1.875436e+03,1.552651e+03
1.878328e+03,1.578734e+03
1.881221e+03,1.562722e+03
1.884114e+03,1.555843e+03
1.887006e+03,1.558271e+03
1.889899e+03,1.557438e+03
1.892792e+03,1.535321e+03
1.895685e+03,1.558016e+03
1.898577e+03,1.537923e+03
1.901470e+03,1.542114e+03
1.904363e+03,1.528106e+03
1.907255e+03,1.539155e+03
1.910148e+03,1.530672e+03
1.913041e+03,1.533226e+03
1.915933e+03,1.519795e+03
1.918826e+03,1.506352e+03
1.921719e+03,1.507538e+03
1.924612e+03,1.502478e+03
1.927504e+03,1.510939e+03
1.930397e+03,1.498287e+03
1.933290e+03,1.494877e+03
1.936182e+03,1.498654e+03
1.939075e+03,1.483611e+03
1.941968e+03,1.494731e+03
1.944860e+03,1.480585e+03
1.947753e+03,1.470507e+03
1.950646e+03,1.461333e+03
1.953539e+03,1.474135e+03
1.956431e+03,1.487520e+03
1.959324e+03,1.452792e+03
1.962217e+03,1.460443e+03
1.965109e+03,1.457070e+03
1.968002e+03,1.459453e+03
1.970895e+03,1.463349e+03
1.973787e+03,1.442897e+03
1.976680e+03,1.444953e+03
1.979573e+03,1.435719e+03
1.982466e+03,1.429732e+03
1.985358e+03,1.428338e+03
1.988251e+03,1.436205e+03
1.991144e+03,1.429099e+03
1.994036e+03,1.417110e+03
1.996929e+03,1.407517e+03
1.999822e+03,1.419981e+03
2.002714e+03,1.415569e+03
2.005607e+03,1.407379e+03
2.008500e+03,1.402209e+03
2.011393e+03,1.392474e+03
2.014285e+03,1.400391e+03
2.017178e+03,1.381025e+03
2.020071e+03,1.386745e+03
2.022963e+03,1.374328e+03
2.025856e+03,1.382450e+03
2.028749e+03,1.373240e+03
2.031641e+03,1.378012e+03
2.034534e+03,1.365666e+03
2.037427e+03,1.367272e+03
2.040320e+03,1.347914e+03
2.043212e+03,1.351050e+03
2.046105e+03,1.359178e+03
2.048998e+03,1.343504e+03
2.051890e+03,1.341740e+03
2.054783e+03,1.330684e+03
2.057676e+03,1.334723e+03
2.060568e+03,1.331313e+03
2.063461e+03,1.335786e+03
2.066354e+03,1.331377e+03
2.069247e+03,1.301560e+03
2.072139e+03,1.311606e+03
2.075032e+03,1.293397e+03
2.077925e+03,1.304699e+03
2.080817e+03,1.321588e+03
2.083710e+03,1.312955e+03
2.086603e+03,1.294949e+03
2.089496e+03,1.304709e+03
2.092388e+03,1.303308e+03
2.095281e+03,1.287967e+03
2.098174e+03,1.288806e+03
2.101066e+03,1.271235e+03
2.103959e+03,1.273182e+03
2.106852e+03,1.264641e+03
2.109744e+03,1.265906e+03
2.112637e+03,1.265664e+03
2.115530e+03,1.252930e+03
2.118422e+03,1.235980e+03
2.121315e+03,1.261493e+03
2.124208e+03,1.256124e+03
2.127101e+03,1.260009e+03
2.129993e+03,1.225954e+03
2.132886e+03,1.247530e+03
2.135779e+03,1.229564e+03
2.138671e+03,1.240974e+03
2.141564e+03,1.222697e+03
2.144457e+03,1.214827e+03
2.147350e+03,1.206708e+03
2.150242e+03,1.213326e+03
2.153135e+03,1.207007e+03
2.156028e+03,1.195822e+03
2.158920e+03,1.204848e+03
2.161813e+03,1.196224e+03
2.164706e+03,1.191806e+03
2.167598e+03,1.173336e+03
2.170491e+03,1.191969e+03
2.173384e+03,1.195144e+03
2.176277e+03,1.163668e+03
2.179169e+03,1.169425e+03
2.182062e+03,1.167002e+03
2.184955e+03,1.162509e+03
2.187847e+03,1.169933e+03
2.190740e+03,1.159974e+03
2.193633e+03,1.145798e+03
2.196525e+03,1.151874e+03
2.199418e+03,1.151520e+03
2.202311e+03,1.140408e+03
2.205204e+03,1.154572e+03
2.208096e+03,1.132480e+03
2.210989e+03,1.118595e+03
2.213882e+03,1.139158e+03
2.216774e+03,1.121814e+03
2.219667e+03,1.119368e+03
2.222560e+03,1.104434e+03
2.225452e+03,1.097054e+03
2.228345e+03,1.110726e+03
2.231238e+03,1.105427e+03
2.234131e+03,1.098524e+03
2.237023e+03,1.094686e+03
2.239916e+03,1.079055e+03
2.242809e+03,1.092625e+03
2.245701e+03,1.065189e+03
2.248594e+03,1.085340e+03
2.251487e+03,1.096938e+03
2.254379e+03,1.073486e+03
2.257272e+03,1.071070e+03
2.260165e+03,1.064080e+03
2.263058e+03,1.069885e+03
2.265950e+03,1.069624e+03
2.268843e+03,1.048594e+03
2.271736e+03,1.040765e+03
2.274628e+03,1.036628e+03
2.277521e+03,1.043626e+03
2.280414e+03,1.034315e+03
2.283306e+03,1.041036e+03
2.286199e+03,1.026145e+03
2.289092e+03,1.031761e+03
2.291985e+03,1.035128e+03
2.294877e+03,1.041791e+03
2.297770e+03,1.029237e+03
2.300663e+03,1.015940e+03
2.303555e+03,1.021816e+03
2.306448e+03,1.013061e+03
2.309341e+03,1.002300e+03
2.312233e+03,9.993759e+02
2.315126e+03,1.006500e+03
2.318019e+03,1.001367e+03
2.320912e+03,1.002648e+03
2.323804e+03,9.881559e+02
2.326697e+03,9.840637e+02
2.329590e+03,9.902342e+02
2.332482e+03,9.800002e+02
2.335375e+03,9.770004e+02
2.338268e+03,9.722079e+02
2.341160e+03,9.630575e+02
2.344053e+03,9.735217e+02
2.346946e+03,9.801893e+02
2.349839e+03,9.675372e+02
2.352731e+03,9.495172e+02
2.355624e+03,9.689154e+02
2.358517e+03,9.636031e+02
2.361409e+03,9.407526e+02
2.364302e+03,9.487492e+02
2.367195e+03,9.570203e+02
2.370087e+03,9.454108e+02
2.372980e+03,9.319302e+02
2.375873e+03,9.237635e+02
2.378766e+03,9.210674e+02
2.381658e+03,9.157291e+02
2.384551e+03,9.226444e+02
2.387444e+03,9.165969e+02
2.390336e+03,9.171968e+02
2.393229e+03,9.194452e+02
2.396122e+03,9.005059e+02
2.399014e+03,9.076810e+02
2.401907e+03,9.177706e+02
2.404800e+03,8.971945e+02
2.407693e+03,8.975165e+02
2.410585e+03,9.057347e+02
2.413478e+03,9.013453e+02
2.416371e+03,9.000192e+02
2.419263e+03,8.916839e+02
2.422156e+03,8.867603e+02
2.425049e+03,8.806171e+02
2.427941e+03,8.824045e+02
2.430834e+03,8.775193e+02
2.433727e+03,8.900472e+02
2.436620e+03,8.849556e+02
2.439512e+03,8.743417e+02
2.442405e+03,8.650784e+02
2.445298e+03,8.599012e+02
2.448190e+03,8.582355e+02
2.451083e+03,8.828438e+02
2.453976e+03,8.572912e+02
2.456868e+03,8.586466e+02
2.459761e+03,8.432896e+02
2.462654e+03,8.486329e+02
2.465547e+03,8.586576e+02
2.468439e+03,8.475799e+02
2.471332e+03,8.440066e+02
2.474225e+03,8.410107e+02
2.477117e+03,8.411317e+02
2.480010e+03,8.288699e+02
2.482903e+03,8.310126e+02
2.485795e+03,8.211929e+02
2.488688e+03,8.197524e+02
2.491581e+03,8.199225e+02
2.494474e+03,8.229860e+02
2.497366e+03,8.208453e+02
2.500259e+03,8.262010e+02
2.503152e+03,8.040977e+02
2.506044e+03,8.106837e+02
2.508937e+03,8.082488e+02
2.511830e+03,8.178541e+02
2.514722e+03,7.978090e+02
2.517615e+03,7.986689e+02
2.520508e+03,7.909854e+02
2.523401e+03,7.861238e+02
2.526293e+03,7.934935e+02
2.529186e+03,7.758287e+02
2.532079e+03,7.887386e+02
2.534971e+03,7.890274e+02
2.537864e+03,7.790170e+02
2.540757e+03,7.722867e+02
2.543649e+03,7.780724e+02
2.546542e+03,7.913525e+02
2.549435e+03,7.784086e+02
2.552328e+03,7.830652e+02
2.555220e+03,7.867175e+02
2.558113e+03,7.596899e+02
2.561006e+03,7.670245e+02
2.563898e+03,7.613009e+02
2.566791e+03,7.807170e+02
2.569684e+03,7.586255e+02
2.572576e+03,7.486697e+02
2.575469e+03,7.574977e+02
2.578362e+03,7.513430e+02
2.581255e+03,7.492148e+02
2.584147e+03,7.525722e+02
2.587040e+03,7.502928e+02
2.589933e+03,7.499023e+02
2.592825e+03,7.382446e+02
2.595718e+03,7.446547e+02
2.598611e+03,7.379391e+02
2.601503e+03,7.277868e+02
2.604396e+03,7.188818e+02
2.607289e+03,7.382628e+02
2.610182e+03,7.250253e+02
2.613074e+03,7.119127e+02
2.615967e+03,7.336534e+02
2.618860e+03,7.255175e+02
2.621752e+03,7.170639e+02
2.624645e+03,7.411647e+02
2.627538e+03,7.263351e+02
2.630430e+03,7.060657e+02
2.633323e+03,6.972335e+02
2.636216e+03,7.097443e+02
2.639109e+03,6.915596e+02
2.642001e+03,6.935195e+02
2.644894e+03,7.087894e+02
2.647787e+03,7.080553e+02
2.650679e+03,6.980572e+02
2.653572e+03,7.061976e+02
2.656465e+03,6.963124e+02
2.659357e+03,6.884179e+02
2.662250e+03,6.939578e+02
2.665143e+03,6.932350e+02
2.668036e+03,6.865384e+02
2.670928e+03,6.803593e+02
2.673821e+03,6.906930e+02
2.676714e+03,6.677176e+02
2.679606e+03,6.638281e+02
2.682499e+03,6.872563e+02
2.685392e+03,6.796796e+02
2.688284e+03,6.737172e+02
2.691177e+03,6.748775e+02
2.694070e+03,6.694708e+02
2.696963e+03,6.824131e+02
2.699855e+03,6.682714e+02
2.702748e+03,6.810096e+02
2.705641e+03,6.509150e+02
2.708533e+03,6.725440e+02
2.711426e+03,6.634617e+02
2.714319e+03,6.450652e+02
2.717211e+03,6.657215e+02
2.720104e+03,6.592397e+02
2.722997e+03,6.426931e+02
2.725890e+03,6.647948e+02
2.728782e+03,6.533732e+02
2.731675e+03,6.478436e+02
2.734568e+03,6.632373e+02
2.737460e+03,6.485914e+02
2.740353e+03,6.363723e+02
2.743246e+03,6.421349e+02
2.746138e+03,6.343092e+02
2.749031e+03,6.354524e+02
2.751924e+03,6.383589e+02
2.754817e+03,6.272836e+02
2.757709e+03,6.377219e+02
2.760602e+03,6.385500e+02
2.763495e+03,6.226119e+02
2.766387e+03,6.236378e+02
2.769280e+03,6.332644e+02
2.772173e+03,6.265612e+02
2.775065e+03,6.055846e+02
2.777958e+03,6.240400e+02
2.780851e+03,6.248460e+02
2.783744e+03,6.213351e+02
2.786636e+03,6.113405e+02
2.789529e+03,6.199255e+02
2.792422e+03,6.144288e+02
2.795314e+03,6.164537e+02
2.798207e+03,6.225775e+02
2.801100e+03,6.132335e+02
2.803992e+03,6.258139e+02
2.806885e+03,6.116232e+02
2.809778e+03,6.080169e+02
2.812671e+03,6.027303e+02
2.815563e+03,6.139345e+02
2.818456e+03,6.108717e+02
2.821349e+03,5.926356e+02
2.824241e+03,5.958342e+02
2.827134e+03,6.119232e+02
2.830027e+03,6.245880e+02
2.832919e+03,6.095450e+02
2.835812e+03,6.204091e+02
2.838705e+03,6.057657e+02
2.841598e+03,5.861747e+02
2.844490e+03,6.058536e+02
2.847383e+03,5.756569e+02
2.850276e+03,5.994490e+02
2.853168e+03,6.026058e+02
2.856061e+03,5.988844e+02
2.858954e+03,6.187156e+02
2.861846e+03,6.068767e+02
2.864739e+03,5.853273e+02
2.867632e+03,6.175717e+02
2.870525e+03,6.013802e+02
2.873417e+03,6.048611e+02
2.876310e+03,5.891078e+02
2.879203e+03,6.141871e+02
2.882095e+03,6.057003e+02
2.884988e+03,6.107509e+02
2.887881e+03,6.086279e+02
2.890773e+03,6.033817e+02
2.893666e+03,6.019202e+02
2.896559e+03,6.226640e+02
2.899452e+03,6.002504e+02
2.902344e+03,6.145167e+02
2.905237e+03,5.995994e+02
2.908130e+03,5.847526e+02
2.911022e+03,5.936047e+02
2.913915e+03,5.942578e+02
2.916808e+03,5.737171e+02
2.919700e+03,5.886570e+02
2.922593e+03,5.615129e+02
2.925486e+03,5.773168e+02
2.928379e+03,5.893419e+02
2.931271e+03,5.563573e+02
2.934164e+03,5.852382e+02
2.937057e+03,5.872100e+02
2.939949e+03,5.856995e+02
2.942842e+03,5.753860e+02
2.945735e+03,5.711116e+02
2.948627e+03,5.484241e+02
2.951520e+03,5.754792e+02
2.954413e+03,5.853400e+02
2.957306e+03,6.149218e+02
2.960198e+03,5.586357e+02
2.963091e+03,5.657120e+02
2.965984e+03,5.656912e+02
2.968876e+03,5.683815e+02
2.971769e+03,5.505368e+02
2.974662e+03,5.293110e+02
2.977554e+03,5.578009e+02
2.980447e+03,5.340828e+02
2.983340e+03,5.464113e+02
2.986233e+03,5.414388e+02
2.989125e+03,5.369785e+02
2.992018e+03,5.340778e+02
2.994911e+03,5.393137e+02
2.997803e+03,5.447424e+02
3.000696e+03,5.262901e+02
3.003589e+03,5.420020e+02
3.006481e+03,5.507893e+02
3.009374e+03,5.478946e+02
3.012267e+03,5.382374e+02
3.015160e+03,5.395693e+02
3.018052e+03,5.496724e+02
3.020945e+03,5.282931e+02
3.023838e+03,5.382421e+02
3.026730e+03,5.119619e+02
3.029623e+03,5.297206e+02
3.032516e+03,5.015224e+02
3.035408e+03,5.160693e+02
3.038301e+03,5.243915e+02
3.041194e+03,5.016930e+02
3.044087e+03,5.088450e+02
3.046979e+03,5.262721e+02
3.049872e+03,4.970240e+02
3.052765e+03,5.321669e+02
3.055657e+03,5.209786e+02
3.058550e+03,5.408458e+02
3.061443e+03,5.154088e+02
3.064335e+03,5.373058e+02
3.067228e+03,5.229399e+02
3.070121e+03,5.162747e+02
3.073014e+03,5.263943e+02
3.075906e+03,5.104625e+02
3.078799e+03,5.024126e+02
3.081692e+03,5.097377e+02
3.084584e+03,5.067225e+02
3.087477e+03,5.020489e+02
3.090370e+03,5.401786e+02
3.093262e+03,4.914534e+02
3.096155e+03,5.019739e+02
3.099048e+03,5.044215e+02
3.101941e+03,5.135732e+02
3.104833e+03,5.237078e+02
3.107726e+03,4.951342e+02
3.110619e+03,5.243806e+02
3.113511e+03,5.121443e+02
3.116404e+03,5.386852e+02
3.119297e+03,5.010052e+02
3.122189e+03,5.456092e+02
3.125082e+03,5.385074e+02
3.127975e+03,5.230474e+02
3.130868e+03,5.195272e+02
3.133760e+03,5.316829e+02
3.136653e+03,5.366337e+02
3.139546e+03,5.134503e+02
3.142438e+03,5.402405e+02
3.145331e+03,5.258583e+02
3.148224e+03,5.003785e+02
3.151116e+03,5.141362e+02
3.154009e+03,5.044857e+02
3.156902e+03,4.942436e+02
3.159795e+03,5.365347e+02
3.162687e+03,5.399913e+02
3.165580e+03,5.205995e+02
3.168473e+03,5.362553e+02
3.171365e+03,4.933429e+02
3.174258e+03,5.628152e+02
3.177151e+03,5.217615e+02
3.180043e+03,5.402238e+02
3.182936e+03,5.200378e+02
3.185829e+03,5.218139e+02
3.188722e+03,5.302131e+02
3.191614e+03,5.275480e+02
3.194507e+03,5.261391e+02
3.197400e+03,5.301093e+02
3.200292e+03,5.567350e+02
3.203185e+03,0.000000e+00
3.206078e+03,0.000000e+00
3.208970e+03,0.000000e+00
3.211863e+03,0.000000e+00
3.214756e+03,0.000000e+00
3.217649e+03,0.000000e+00
3.220541e+03,0.000000e+00
3.223434e+03,0.000000e+00
3.226327e+03,0.000000e+00
3.229219e+03,0.000000e+00
3.232112e+03,0.000000e+00
3.235005e+03,0.000000e+00
3.237897e+03,0.000000e+00
3.240790e+03,0.000000e+00
3.243683e+03,0.000000e+00
3.246576e+03,0.000000e+00
3.249468e+03,0.000000e+00
3.252361e+03,0.000000e+00
3.255254e+03,0.000000e+00
3.258146e+03,0.000000e+00
3.261039e+03,0.000000e+00
3.263932e+03,0.000000e+00
3.266824e+03,0.000000e+00
3.269717e+03,0.000000e+00
3.272610e+03,0.000000e+00
3.275503e+03,0.000000e+00
3.278395e+03,0.000000e+00
3.281288e+03,0.000000e+00
3.284181e+03,0.000000e+00
3.287073e+03,0.000000e+00
3.289966e+03,0.000000e+00
3.292859e+03,0.000000e+00
3.295751e+03,0.000000e+00
3.298644e+03,0.000000e+00
3.301537e+03,0.000000e+00
3.304430e+03,0.000000e+00
3.307322e+03,0.000000e+00
3.310215e+03,0.000000e+00
3.313108e+03,0.000000e+00
3.316000e+03,0.000000e+00
3.318893e+03,0.000000e+00
3.321786e+03,0.000000e+00
3.324678e+03,0.000000e+00
3.327571e+03,0.000000e+00
3.330464e+03,0.000000e+00
3.333357e+03,0.000000e+00
3.336249e+03,0.000000e+00
3.339142e+03,0.000000e+00
3.342035e+03,0.000000e+00
3.344927e+03,0.000000e+00
3.347820e+03,0.000000e+00
3.350713e+03,0.000000e+00
3.353605e+03,0.000000e+00
3.356498e+03,0.000000e+00
3.359391e+03,0.000000e+00
3.362284e+03,0.000000e+00
3.365176e+03,0.000000e+00
3.368069e+03,0.000000e+00
3.370962e+03,0.000000e+00
3.373854e+03,0.000000e+00
3.376747e+03,0.000000e+00
3.379640e+03,0.000000e+00
3.382532e+03,0.000000e+00
3.385425e+03,0.000000e+00
3.388318e+03,0.000000e+00
3.391211e+03,0.000000e+00
3.394103e+03,0.000000e+00
3.396996e+03,0.000000e+00
3.399889e+03,0.000000e+00
3.402781e+03,0.000000e+00
3.405674e+03,0.000000e+00
3.408567e+03,0.000000e+00
3.411459e+03,0.000000e+00
3.414352e+03,0.000000e+00
3.417245e+03,0.000000e+00
3.420138e+03,0.000000e+00
3.423030e+03,0.000000e+00
3.425923e+03,0.000000e+00
3.428816e+03,0.000000e+00
3.431708e+03,0.000000e+00
3.434601e+03,0.000000e+00
3.437494e+03,0.000000e+00
3.440386e+03,0.000000e+00
3.443279e+03,0.000000e+00
3.446172e+03,0.000000e+00
3.449065e+03,0.000000e+00
3.451957e+03,0.000000e+00
3.454850e+03,0.000000e+00
3.457743e+03,0.000000e+00
3.460635e+03,0.000000e+00
3.463528e+03,0.000000e+00
3.466421e+03,0.000000e+00
3.469313e+03,0.000000e+00
3.472206e+03,0.000000e+00
3.475099e+03,0.000000e+00
3.477992e+03,0.000000e+00
3.480884e+03,0.000000e+00
3.483777e+03,0.000000e+00
3.486670e+03,0.000000e+00
3.489563e+03,0.000000e+00
3.492455e+03,0.000000e+00
3.495348e+03,0.000000e+00
3.498240e+03,0.000000e+00
3.500169e+03,0.000000e+00