File: RAMAN_data/23052023_r3/blue fibre6.CSV
9.931763e+01,0.000000e+00
1.022103e+02,0.000000e+00
1.051030e+02,0.000000e+00
1.079957e+02,0.000000e+00
1.108884e+02,0.000000e+00
1.137811e+02,0.000000e+00
1.166738e+02,0.000000e+00
1.195665e+02,0.000000e+00
1.224592e+02,0.000000e+00
1.253519e+02,0.000000e+00
1.282446e+02,0.000000e+00
1.311373e+02,0.000000e+00
1.340300e+02,0.000000e+00
1.369227e+02,0.000000e+00
1.398154e+02,0.000000e+00
1.427081e+02,0.000000e+00
1.456008e+02,0.000000e+00
1.484935e+02,0.000000e+00
1.513862e+02,0.000000e+00
1.542789e+02,0.000000e+00
1.571716e+02,0.000000e+00
1.600643e+02,0.000000e+00
1.629570e+02,0.000000e+00
1.658497e+02,0.000000e+00
1.687424e+02,0.000000e+00
1.716351e+02,0.000000e+00
1.745278e+02,0.000000e+00
1.774205e+02,0.000000e+00
1.803132e+02,0.000000e+00
1.832059e+02,0.000000e+00
1.860986e+02,0.000000e+00
1.889913e+02,0.000000e+00
1.918840e+02,0.000000e+00
1.947767e+02,0.000000e+00
1.976694e+02,0.000000e+00
2.005621e+02,1.047981e+04
2.034548e+02,1.052034e+04
2.063475e+02,1.054905e+04
2.092402e+02,1.055023e+04
2.121329e+02,1.055114e+04
2.150256e+02,1.057994e+04
2.179183e+02,1.060919e+04
2.208110e+02,1.066058e+04
2.237037e+02,1.067718e+04
2.265964e+02,1.068749e+04
2.294892e+02,1.071674e+04
2.323819e+02,1.076485e+04
2.352746e+02,1.080180e+04
2.381673e+02,1.083688e+04
2.410600e+02,1.083374e+04
2.439527e+02,1.085114e+04
2.468454e+02,1.088743e+04
2.497381e+02,1.092293e+04
2.526308e+02,1.095972e+04
2.555235e+02,1.097477e+04
2.584161e+02,1.097703e+04
2.613088e+02,1.102010e+04
2.642015e+02,1.107264e+04
2.670942e+02,1.109793e+04
2.699869e+02,1.113241e+04
2.728796e+02,1.114520e+04
2.757723e+02,1.118599e+04
2.786650e+02,1.122956e+04
2.815577e+02,1.125743e+04
2.844504e+02,1.128402e+04
2.873431e+02,1.129060e+04
2.902358e+02,1.131700e+04
2.931285e+02,1.134644e+04
2.960212e+02,1.139113e+04
2.989139e+02,1.141448e+04
3.018066e+02,1.143413e+04
3.046993e+02,1.146692e+04
3.075920e+02,1.148884e+04
3.104847e+02,1.152890e+04
3.133774e+02,1.157925e+04
3.162701e+02,1.159601e+04
3.191628e+02,1.160888e+04
3.220555e+02,1.164175e+04
3.249482e+02,1.168424e+04
3.278409e+02,1.172364e+04
3.307336e+02,1.175929e+04
3.336263e+02,1.178546e+04
3.365190e+02,1.179593e+04
3.394117e+02,1.184477e+04
3.423044e+02,1.189110e+04
3.451971e+02,1.195065e+04
3.480898e+02,1.197636e+04
3.509825e+02,1.198931e+04
3.538752e+02,1.203903e+04
3.567680e+02,1.208796e+04
3.596607e+02,1.212734e+04
3.625534e+02,1.216518e+04
3.654461e+02,1.215143e+04
3.683388e+02,1.217766e+04
3.712315e+02,1.224066e+04
3.741242e+02,1.227460e+04
3.770169e+02,1.231209e+04
3.799096e+02,1.235504e+04
3.828023e+02,1.237077e+04
3.856950e+02,1.241141e+04
3.885877e+02,1.246715e+04
3.914804e+02,1.251785e+04
3.943731e+02,1.254654e+04
3.972658e+02,1.257221e+04
4.001585e+02,1.259571e+04
4.030512e+02,1.265208e+04
4.059439e+02,1.268439e+04
4.088366e+02,1.272684e+04
4.117293e+02,1.274472e+04
4.146220e+02,1.277363e+04
4.175147e+02,1.281375e+04
4.204074e+02,1.285257e+04
4.233001e+02,1.288676e+04
4.261928e+02,1.290905e+04
4.290855e+02,1.294774e+04
4.319782e+02,1.298699e+04
4.348709e+02,1.304558e+04
4.377636e+02,1.309523e+04
4.406563e+02,1.313692e+04
4.435490e+02,1.317664e+04
4.464417e+02,1.321787e+04
4.493344e+02,1.326524e+04
4.522271e+02,1.329400e+04
4.551198e+02,1.332378e+04
4.580125e+02,1.333318e+04
4.609052e+02,1.337773e+04
4.637979e+02,1.340457e+04
4.666906e+02,1.342731e+04
4.695833e+02,1.347626e+04
4.724760e+02,1.351270e+04
4.753687e+02,1.353410e+04
4.782614e+02,1.356131e+04
4.811541e+02,1.360236e+04
4.840468e+02,1.364771e+04
4.869395e+02,1.368210e+04
4.898322e+02,1.370779e+04
4.927249e+02,1.374528e+04
4.956176e+02,1.378946e+04
4.985103e+02,1.383496e+04
5.014030e+02,1.385635e+04
5.042957e+02,1.387435e+04
5.071884e+02,1.389094e+04
5.100811e+02,1.391389e+04
5.129738e+02,1.394534e+04
5.158665e+02,1.399864e+04
5.187592e+02,1.401324e+04
5.216519e+02,1.400965e+04
5.245446e+02,1.405543e+04
5.274373e+02,1.410163e+04
5.303300e+02,1.412588e+04
5.332227e+02,1.412560e+04
5.361154e+02,1.414876e+04
5.390081e+02,1.417050e+04
5.419008e+02,1.421884e+04
5.447935e+02,1.426149e+04
5.476862e+02,1.428333e+04
5.505789e+02,1.428684e+04
5.534716e+02,1.427754e+04
5.563643e+02,1.432018e+04
5.592570e+02,1.435616e+04
5.621497e+02,1.439771e+04
5.650424e+02,1.440605e+04
5.679351e+02,1.440203e+04
5.708278e+02,1.441442e+04
5.737205e+02,1.446703e+04
5.766132e+02,1.451686e+04
5.795059e+02,1.454171e+04
5.823986e+02,1.455829e+04
5.852913e+02,1.457644e+04
5.881840e+02,1.461572e+04
5.910767e+02,1.465786e+04
5.939694e+02,1.469935e+04
5.968621e+02,1.471511e+04
5.997548e+02,1.472276e+04
6.026475e+02,1.474913e+04
6.055402e+02,1.479394e+04
6.084329e+02,1.480400e+04
6.113256e+02,1.479959e+04
6.142183e+02,1.479833e+04
6.171110e+02,1.480506e+04
6.200037e+02,1.484453e+04
6.228964e+02,1.487450e+04
6.257891e+02,1.491219e+04
6.286818e+02,1.490214e+04
6.315745e+02,1.490820e+04
6.344672e+02,1.494905e+04
6.373599e+02,1.498393e+04
6.402526e+02,1.499711e+04
6.431453e+02,1.500872e+04
6.460380e+02,1.501161e+04
6.489307e+02,1.505329e+04
6.518234e+02,1.509699e+04
6.547161e+02,1.510748e+04
6.576088e+02,1.509536e+04
6.605015e+02,1.509805e+04
6.633942e+02,1.510734e+04
6.662869e+02,1.514652e+04
6.691796e+02,1.518144e+04
6.720723e+02,1.518572e+04
6.749650e+02,1.516938e+04
6.778577e+02,1.514802e+04
6.807504e+02,1.516739e+04
6.836431e+02,1.520608e+04
6.865358e+02,1.520188e+04
6.894285e+02,1.519513e+04
6.923212e+02,1.519975e+04
6.952139e+02,1.521645e+04
6.981066e+02,1.526940e+04
7.009993e+02,1.527333e+04
7.038920e+02,1.526940e+04
7.067847e+02,1.525439e+04
7.096774e+02,1.526092e+04
7.125701e+02,1.527668e+04
7.154628e+02,1.527731e+04
7.183555e+02,1.528043e+04
7.212482e+02,1.524658e+04
7.241409e+02,1.522800e+04
7.270336e+02,1.523804e+04
7.299263e+02,1.522076e+04
7.328190e+02,1.520909e+04
7.357117e+02,1.519025e+04
7.386044e+02,1.517369e+04
7.414971e+02,1.514471e+04
7.443898e+02,1.517592e+04
7.472825e+02,1.522025e+04
7.501752e+02,1.515829e+04
7.530679e+02,1.514336e+04
7.559606e+02,1.514811e+04
7.588533e+02,1.512102e+04
7.617460e+02,1.513971e+04
7.646387e+02,1.509116e+04
7.675314e+02,1.509742e+04
7.704241e+02,1.505768e+04
7.733168e+02,1.504400e+04
7.762095e+02,1.505907e+04
7.791022e+02,1.505531e+04
7.819949e+02,1.504094e+04
7.848876e+02,1.501128e+04
7.877803e+02,1.499516e+04
7.906730e+02,1.493447e+04
7.935657e+02,1.495876e+04
7.964584e+02,1.488095e+04
7.993511e+02,1.483061e+04
8.022438e+02,1.482256e+04
8.051365e+02,1.480950e+04
8.080292e+02,1.479140e+04
8.109219e+02,1.478379e+04
8.138146e+02,1.472149e+04
8.167073e+02,1.471225e+04
8.196000e+02,1.472460e+04
8.224927e+02,1.470701e+04
8.253854e+02,1.466283e+04
8.282781e+02,1.464240e+04
8.311708e+02,1.461179e+04
8.340635e+02,1.460481e+04
8.369562e+02,1.460090e+04
8.398489e+02,1.457217e+04
8.427416e+02,1.456380e+04
8.456343e+02,1.451046e+04
8.485270e+02,1.448053e+04
8.514197e+02,1.445116e+04
8.543124e+02,1.442798e+04
8.572051e+02,1.447888e+04
8.600978e+02,1.438515e+04
8.629905e+02,1.436980e+04
8.658832e+02,1.436489e+04
8.687759e+02,1.429495e+04
8.716686e+02,1.432216e+04
8.745613e+02,1.422168e+04
8.774540e+02,1.423979e+04
8.803467e+02,1.422485e+04
8.832394e+02,1.418031e+04
8.861321e+02,1.419404e+04
8.890248e+02,1.409990e+04
8.919175e+02,1.407493e+04
8.948102e+02,1.407283e+04
8.977029e+02,1.403858e+04
9.005956e+02,1.402459e+04
9.034883e+02,1.400405e+04
9.063810e+02,1.388735e+04
9.092737e+02,1.388613e+04
9.121664e+02,1.387788e+04
9.150591e+02,1.380377e+04
9.179518e+02,1.384261e+04
9.208445e+02,1.374090e+04
9.237372e+02,1.372767e+04
9.266299e+02,1.372999e+04
9.295226e+02,1.366448e+04
9.324153e+02,1.366337e+04
9.353080e+02,1.364257e+04
9.382007e+02,1.359354e+04
9.410934e+02,1.359688e+04
9.439861e+02,1.353452e+04
9.468788e+02,1.349601e+04
9.497715e+02,1.351971e+04
9.526642e+02,1.343127e+04
9.555569e+02,1.337127e+04
9.584496e+02,1.338231e+04
9.613423e+02,1.336136e+04
9.642350e+02,1.332987e+04
9.671277e+02,1.328629e+04
9.700204e+02,1.321465e+04
9.729131e+02,1.319913e+04
9.758058e+02,1.314474e+04
9.786985e+02,1.318627e+04
9.815912e+02,1.311967e+04
9.844839e+02,1.304711e+04
9.873766e+02,1.304224e+04
9.902693e+02,1.301434e+04
9.931620e+02,1.301779e+04
9.960547e+02,1.295570e+04
9.989474e+02,1.292537e+04
1.001840e+03,1.288709e+04
1.004733e+03,1.286101e+04
1.007626e+03,1.288397e+04
1.010518e+03,1.287977e+04
1.013411e+03,1.281889e+04
1.016304e+03,1.274931e+04
1.019196e+03,1.269516e+04
1.022089e+03,1.273873e+04
1.024982e+03,1.270409e+04
1.027875e+03,1.261908e+04
1.030767e+03,1.261174e+04
1.033660e+03,1.263141e+04
1.036552e+03,1.259189e+04
1.039445e+03,1.257937e+04
1.042338e+03,1.253255e+04
1.045231e+03,1.247959e+04
1.048123e+03,1.247399e+04
1.051016e+03,1.243289e+04
1.053909e+03,1.244562e+04
1.056802e+03,1.238483e+04
1.059694e+03,1.234168e+04
1.062587e+03,1.232221e+04
1.065479e+03,1.231432e+04
1.068372e+03,1.233044e+04
1.071265e+03,1.233661e+04
1.074158e+03,1.229586e+04
1.077050e+03,1.223861e+04
1.079943e+03,1.224133e+04
1.082836e+03,1.221836e+04
1.085729e+03,1.217667e+04
1.088621e+03,1.213750e+04
1.091514e+03,1.209886e+04
1.094406e+03,1.203747e+04
1.097299e+03,1.200733e+04
1.100192e+03,1.198040e+04
1.103085e+03,1.193456e+04
1.105977e+03,1.190348e+04
1.108870e+03,1.186103e+04
1.111763e+03,1.189549e+04
1.114656e+03,1.180596e+04
1.117548e+03,1.182469e+04
1.120441e+03,1.177457e+04
1.123334e+03,1.177500e+04
1.126226e+03,1.169719e+04
1.129119e+03,1.165289e+04
1.132012e+03,1.165049e+04
1.134904e+03,1.164351e+04
1.137797e+03,1.160019e+04
1.140690e+03,1.159402e+04
1.143583e+03,1.155063e+04
1.146475e+03,1.154540e+04
1.149368e+03,1.149056e+04
1.152261e+03,1.145964e+04
1.155153e+03,1.138572e+04
1.158046e+03,1.136574e+04
1.160939e+03,1.134315e+04
1.163831e+03,1.134034e+04
1.166724e+03,1.131986e+04
1.169617e+03,1.126917e+04
1.172510e+03,1.124076e+04
1.175402e+03,1.119999e+04
1.178295e+03,1.122706e+04
1.181188e+03,1.116948e+04
1.184080e+03,1.119161e+04
1.186973e+03,1.110256e+04
1.189866e+03,1.111030e+04
1.192758e+03,1.108646e+04
1.195651e+03,1.106204e+04
1.198544e+03,1.102958e+04
1.201437e+03,1.096108e+04
1.204329e+03,1.093339e+04
1.207222e+03,1.088826e+04
1.210115e+03,1.090827e+04
1.213007e+03,1.091276e+04
1.215900e+03,1.087635e+04
1.218793e+03,1.086710e+04
1.221685e+03,1.086205e+04
1.224578e+03,1.086954e+04
1.227471e+03,1.083200e+04
1.230364e+03,1.076184e+04
1.233256e+03,1.070406e+04
1.236149e+03,1.067591e+04
1.239042e+03,1.069659e+04
1.241934e+03,1.068490e+04
1.244827e+03,1.060169e+04
1.247720e+03,1.056369e+04
1.250612e+03,1.051011e+04
1.253505e+03,1.050827e+04
1.256398e+03,1.047374e+04
1.259291e+03,1.044968e+04
1.262183e+03,1.040418e+04
1.265076e+03,1.038132e+04
1.267969e+03,1.037009e+04
1.270861e+03,1.035810e+04
1.273754e+03,1.034881e+04
1.276647e+03,1.033036e+04
1.279539e+03,1.027161e+04
1.282432e+03,1.021553e+04
1.285325e+03,1.024346e+04
1.288218e+03,1.022575e+04
1.291110e+03,1.017392e+04
1.294003e+03,1.015354e+04
1.296896e+03,1.010610e+04
1.299788e+03,1.011722e+04
1.302681e+03,1.008905e+04
1.305574e+03,1.010156e+04
1.308466e+03,1.011099e+04
1.311359e+03,1.003970e+04
1.314252e+03,9.987353e+03
1.317145e+03,9.995028e+03
1.320037e+03,9.994006e+03
1.322930e+03,9.924866e+03
1.325823e+03,9.866502e+03
1.328715e+03,9.877803e+03
1.331608e+03,9.845825e+03
1.334501e+03,9.870946e+03
1.337393e+03,9.833907e+03
1.340286e+03,9.823801e+03
1.343179e+03,9.764899e+03
1.346072e+03,9.716342e+03
1.348964e+03,9.749748e+03
1.351857e+03,9.717721e+03
1.354750e+03,9.682354e+03
1.357642e+03,9.659597e+03
1.360535e+03,9.653672e+03
1.363428e+03,9.627452e+03
1.366320e+03,9.634453e+03
1.369213e+03,9.588142e+03
1.372106e+03,9.534357e+03
1.374999e+03,9.502959e+03
1.377891e+03,9.486641e+03
1.380784e+03,9.429094e+03
1.383677e+03,9.413094e+03
1.386569e+03,9.424027e+03
1.389462e+03,9.358893e+03
1.392355e+03,9.347301e+03
1.395247e+03,9.325108e+03
1.398140e+03,9.371011e+03
1.401033e+03,9.315300e+03
1.403926e+03,9.274640e+03
1.406818e+03,9.234382e+03
1.409711e+03,9.227986e+03
1.412604e+03,9.253934e+03
1.415496e+03,9.208622e+03
1.418389e+03,9.194335e+03
1.421282e+03,9.126384e+03
1.424174e+03,9.106428e+03
1.427067e+03,9.132844e+03
1.429960e+03,9.088754e+03
1.432853e+03,9.064221e+03
1.435745e+03,9.061513e+03
1.438638e+03,9.034052e+03
1.441531e+03,8.989025e+03
1.444423e+03,8.997932e+03
1.447316e+03,9.011609e+03
1.450209e+03,8.987354e+03
1.453101e+03,9.008176e+03
1.455994e+03,9.005385e+03
1.458887e+03,8.959475e+03
1.461780e+03,8.957610e+03
1.464672e+03,8.854991e+03
1.467565e+03,8.830482e+03
1.470458e+03,8.806201e+03
1.473350e+03,8.835197e+03
1.476243e+03,8.817112e+03
1.479136e+03,8.772321e+03
1.482028e+03,8.744821e+03
1.484921e+03,8.711841e+03
1.487814e+03,8.692585e+03
1.490707e+03,8.669847e+03
1.493599e+03,8.669705e+03
1.496492e+03,8.643813e+03
1.499385e+03,8.641139e+03
1.502277e+03,8.607133e+03
1.505170e+03,8.602577e+03
1.508063e+03,8.597891e+03
1.510955e+03,8.585337e+03
1.513848e+03,8.547240e+03
1.516741e+03,8.550219e+03
1.519634e+03,8.536240e+03
1.522526e+03,8.488481e+03
1.525419e+03,8.476607e+03
1.528312e+03,8.440885e+03
1.531204e+03,8.431747e+03
1.534097e+03,8.401866e+03
1.536990e+03,8.399863e+03
1.539882e+03,8.387998e+03
1.542775e+03,8.323923e+03
1.545668e+03,8.320535e+03
1.548561e+03,8.335146e+03
1.551453e+03,8.341425e+03
1.554346e+03,8.315177e+03
1.557239e+03,8.336927e+03
1.560131e+03,8.327396e+03
1.563024e+03,8.437620e+03
1.565917e+03,8.560929e+03
1.568809e+03,8.665220e+03
1.571702e+03,8.638705e+03
1.574595e+03,8.484778e+03
1.577488e+03,8.424979e+03
1.580380e+03,8.374320e+03
1.583273e+03,8.339136e+03
1.586166e+03,8.254332e+03
1.589058e+03,8.149127e+03
1.591951e+03,8.100074e+03
1.594844e+03,8.053149e+03
1.597736e+03,8.050251e+03
1.600629e+03,8.035537e+03
1.603522e+03,7.996373e+03
1.606415e+03,7.951184e+03
1.609307e+03,7.952735e+03
1.612200e+03,7.942053e+03
1.615093e+03,7.953083e+03
1.617985e+03,7.909069e+03
1.620878e+03,7.899804e+03
1.623771e+03,7.884951e+03
1.626663e+03,7.891842e+03
1.629556e+03,7.883217e+03
1.632449e+03,7.818674e+03
1.635342e+03,7.774480e+03
1.638234e+03,7.790553e+03
1.641127e+03,7.748163e+03
1.644020e+03,7.712607e+03
1.646912e+03,7.701078e+03
1.649805e+03,7.678067e+03
1.652698e+03,7.652461e+03
1.655590e+03,7.639776e+03
1.658483e+03,7.602224e+03
1.661376e+03,7.636245e+03
1.664269e+03,7.597292e+03
1.667161e+03,7.555990e+03
1.670054e+03,7.580470e+03
1.672947e+03,7.549753e+03
1.675839e+03,7.559662e+03
1.678732e+03,7.544076e+03
1.681625e+03,7.478907e+03
1.684517e+03,7.466700e+03
1.687410e+03,7.448411e+03
1.690303e+03,7.432577e+03
1.693196e+03,7.407471e+03
1.696088e+03,7.409930e+03
1.698981e+03,7.406379e+03
1.701874e+03,7.397077e+03
1.704766e+03,7.371846e+03
1.707659e+03,7.354433e+03
1.710552e+03,7.320985e+03
1.713444e+03,7.325476e+03
1.716337e+03,7.258872e+03
1.719230e+03,7.236411e+03
1.722123e+03,7.251505e+03
1.725015e+03,7.240313e+03
1.727908e+03,7.181540e+03
1.730801e+03,7.215634e+03
1.733693e+03,7.187257e+03
1.736586e+03,7.180349e+03
1.739479e+03,7.155885e+03
1.742371e+03,7.124462e+03
1.745264e+03,7.089088e+03
1.748157e+03,7.073023e+03
1.751050e+03,7.035042e+03
1.753942e+03,7.036732e+03
1.756835e+03,7.065015e+03
1.759728e+03,7.035440e+03
1.762620e+03,6.991628e+03
1.765513e+03,7.006400e+03
1.768406e+03,6.966033e+03
1.771298e+03,6.951978e+03
1.774191e+03,6.930942e+03
1.777084e+03,6.916943e+03
1.779977e+03,6.872477e+03
1.782869e+03,6.900325e+03
1.785762e+03,6.902873e+03
1.788655e+03,6.862226e+03
1.791547e+03,6.822535e+03
1.794440e+03,6.803583e+03
1.797333e+03,6.786431e+03
1.800225e+03,6.780509e+03
1.803118e+03,6.758049e+03
1.806011e+03,6.748446e+03
1.808904e+03,6.752689e+03
1.811796e+03,6.715700e+03
1.814689e+03,6.699795e+03
1.817582e+03,6.707302e+03
1.820474e+03,6.672888e+03
1.823367e+03,6.643783e+03
1.826260e+03,6.647331e+03
1.829152e+03,6.619820e+03
1.832045e+03,6.640990e+03
1.834938e+03,6.605312e+03
1.837831e+03,6.573523e+03
1.840723e+03,6.553514e+03
1.843616e+03,6.532819e+03
1.846509e+03,6.535611e+03
1.849401e+03,6.491704e+03
1.852294e+03,6.432065e+03
1.855187e+03,6.468354e+03
1.858079e+03,6.437102e+03
1.860972e+03,6.432304e+03
1.863865e+03,6.448528e+03
1.866758e+03,6.396133e+03
1.869650e+03,6.375603e+03
1.872543e+03,6.367367e+03
1.875436e+03,6.360159e+03
1.878328e+03,6.345369e+03
1.881221e+03,6.342944e+03
1.884114e+03,6.290979e+03
1.887006e+03,6.275950e+03
1.889899e+03,6.286361e+03
1.892792e+03,6.278098e+03
1.895685e+03,6.208934e+03
1.898577e+03,6.221675e+03
1.901470e+03,6.187184e+03
1.904363e+03,6.198596e+03
1.907255e+03,6.203557e+03
1.910148e+03,6.192550e+03
1.913041e+03,6.110052e+03
1.915933e+03,6.141694e+03
1.918826e+03,6.086558e+03
1.921719e+03,6.095822e+03
1.924612e+03,6.080746e+03
1.927504e+03,6.054055e+03
1.930397e+03,6.038739e+03
1.933290e+03,6.019445e+03
1.936182e+03,6.017759e+03
1.939075e+03,6.004224e+03
1.941968e+03,6.004889e+03
1.944860e+03,5.935525e+03
1.947753e+03,5.945359e+03
1.950646e+03,5.949484e+03
1.953539e+03,5.891517e+03
1.956431e+03,5.890578e+03
1.959324e+03,5.870670e+03
1.962217e+03,5.922614e+03
1.965109e+03,5.858179e+03
1.968002e+03,5.845972e+03
1.970895e+03,5.870252e+03
1.973787e+03,5.800103e+03
1.976680e+03,5.771896e+03
1.979573e+03,5.767578e+03
1.982466e+03,5.759580e+03
1.985358e+03,5.752228e+03
1.988251e+03,5.784279e+03
1.991144e+03,5.702269e+03
1.994036e+03,5.666733e+03
1.996929e+03,5.686745e+03
1.999822e+03,5.660478e+03
2.002714e+03,5.665437e+03
2.005607e+03,5.624578e+03
2.008500e+03,5.634589e+03
2.011393e+03,5.576686e+03
2.014285e+03,5.589529e+03
2.017178e+03,5.592140e+03
2.020071e+03,5.545175e+03
2.022963e+03,5.551422e+03
2.025856e+03,5.477695e+03
2.028749e+03,5.509509e+03
2.031641e+03,5.472540e+03
2.034534e+03,5.488201e+03
2.037427e+03,5.433313e+03
2.040320e+03,5.391296e+03
2.043212e+03,5.404231e+03
2.046105e+03,5.406986e+03
2.048998e+03,5.356127e+03
2.051890e+03,5.361103e+03
2.054783e+03,5.358445e+03
2.057676e+03,5.328521e+03
2.060568e+03,5.341995e+03
2.063461e+03,5.314959e+03
2.066354e+03,5.300098e+03
2.069247e+03,5.257778e+03
2.072139e+03,5.265001e+03
2.075032e+03,5.234391e+03
2.077925e+03,5.250502e+03
2.080817e+03,5.268086e+03
2.083710e+03,5.166692e+03
2.086603e+03,5.183406e+03
2.089496e+03,5.215848e+03
2.092388e+03,5.143597e+03
2.095281e+03,5.156646e+03
2.098174e+03,5.149708e+03
2.101066e+03,5.101624e+03
2.103959e+03,5.098442e+03
2.106852e+03,5.096250e+03
2.109744e+03,5.093315e+03
2.112637e+03,5.054068e+03
2.115530e+03,5.028490e+03
2.118422e+03,5.010025e+03
2.121315e+03,5.020184e+03
2.124208e+03,5.012260e+03
2.127101e+03,4.978065e+03
2.129993e+03,4.967734e+03
2.132886e+03,4.940741e+03
2.135779e+03,4.923034e+03
2.138671e+03,4.927581e+03
2.141564e+03,4.868735e+03
2.144457e+03,4.858347e+03
2.147350e+03,4.881547e+03
2.150242e+03,4.838302e+03
2.153135e+03,4.831391e+03
2.156028e+03,4.813662e+03
2.158920e+03,4.801024e+03
2.161813e+03,4.791179e+03
2.164706e+03,4.751837e+03
2.167598e+03,4.755780e+03
2.170491e+03,4.749934e+03
2.173384e+03,4.734755e+03
2.176277e+03,4.709213e+03
2.179169e+03,4.685040e+03
2.182062e+03,4.687154e+03
2.184955e+03,4.689292e+03
2.187847e+03,4.629036e+03
2.190740e+03,4.646834e+03
2.193633e+03,4.603091e+03
2.196525e+03,4.621913e+03
2.199418e+03,4.590874e+03
2.202311e+03,4.569679e+03
2.205204e+03,4.574562e+03
2.208096e+03,4.559251e+03
2.210989e+03,4.501787e+03
2.213882e+03,4.493761e+03
2.216774e+03,4.512780e+03
2.219667e+03,4.483194e+03
2.222560e+03,4.472183e+03
2.225452e+03,4.418717e+03
2.228345e+03,4.422106e+03
2.231238e+03,4.438116e+03
2.234131e+03,4.399196e+03
2.237023e+03,4.414704e+03
2.239916e+03,4.374798e+03
2.242809e+03,4.341403e+03
2.245701e+03,4.326363e+03
2.248594e+03,4.340569e+03
2.251487e+03,4.339718e+03
2.254379e+03,4.286140e+03
2.257272e+03,4.244338e+03
2.260165e+03,4.233328e+03
2.263058e+03,4.243404e+03
2.265950e+03,4.254341e+03
2.268843e+03,4.223628e+03
2.271736e+03,4.168886e+03
2.274628e+03,4.175745e+03
2.277521e+03,4.174625e+03
2.280414e+03,4.160416e+03
2.283306e+03,4.137995e+03
2.286199e+03,4.095390e+03
2.289092e+03,4.090717e+03
2.291985e+03,4.107600e+03
2.294877e+03,4.094207e+03
2.297770e+03,4.128477e+03
2.300663e+03,4.050967e+03
2.303555e+03,4.067412e+03
2.306448e+03,4.004999e+03
2.309341e+03,4.026681e+03
2.312233e+03,4.019257e+03
2.315126e+03,4.005305e+03
2.318019e+03,3.987362e+03
2.320912e+03,3.963669e+03
2.323804e+03,3.980062e+03
2.326697e+03,3.959899e+03
2.329590e+03,3.975794e+03
2.332482e+03,3.888429e+03
2.335375e+03,3.908024e+03
2.338268e+03,3.891180e+03
2.341160e+03,3.848155e+03
2.344053e+03,3.893570e+03
2.346946e+03,3.853358e+03
2.349839e+03,3.847005e+03
2.352731e+03,3.841922e+03
2.355624e+03,3.825410e+03
2.358517e+03,3.820528e+03
2.361409e+03,3.800623e+03
2.364302e+03,3.769825e+03
2.367195e+03,3.766701e+03
2.370087e+03,3.764505e+03
2.372980e+03,3.746578e+03
2.375873e+03,3.725496e+03
2.378766e+03,3.716952e+03
2.381658e+03,3.676937e+03
2.384551e+03,3.699613e+03
2.387444e+03,3.677144e+03
2.390336e+03,3.646192e+03
2.393229e+03,3.621666e+03
2.396122e+03,3.631009e+03
2.399014e+03,3.617261e+03
2.401907e+03,3.618179e+03
2.404800e+03,3.613750e+03
2.407693e+03,3.613384e+03
2.410585e+03,3.566517e+03
2.413478e+03,3.564725e+03
2.416371e+03,3.536716e+03
2.419263e+03,3.530362e+03
2.422156e+03,3.560380e+03
2.425049e+03,3.537077e+03
2.427941e+03,3.485195e+03
2.430834e+03,3.491472e+03
2.433727e+03,3.503678e+03
2.436620e+03,3.461091e+03
2.439512e+03,3.457854e+03
2.442405e+03,3.458118e+03
2.445298e+03,3.431553e+03
2.448190e+03,3.431857e+03
2.451083e+03,3.416211e+03
2.453976e+03,3.406427e+03
2.456868e+03,3.393776e+03
2.459761e+03,3.363992e+03
2.462654e+03,3.362550e+03
2.465547e+03,3.350256e+03
2.468439e+03,3.339645e+03
2.471332e+03,3.329869e+03
2.474225e+03,3.346656e+03
2.477117e+03,3.281962e+03
2.480010e+03,3.294577e+03
2.482903e+03,3.293569e+03
2.485795e+03,3.242266e+03
2.488688e+03,3.258420e+03
2.491581e+03,3.252752e+03
2.494474e+03,3.229499e+03
2.497366e+03,3.252331e+03
2.500259e+03,3.199057e+03
2.503152e+03,3.224921e+03
2.506044e+03,3.201130e+03
2.508937e+03,3.193262e+03
2.511830e+03,3.190738e+03
2.514722e+03,3.173308e+03
2.517615e+03,3.173993e+03
2.520508e+03,3.171052e+03
2.523401e+03,3.134444e+03
2.526293e+03,3.150846e+03
2.529186e+03,3.122941e+03
2.532079e+03,3.118579e+03
2.534971e+03,3.120621e+03
2.537864e+03,3.087802e+03
2.540757e+03,3.087570e+03
2.543649e+03,3.071179e+03
2.546542e+03,3.051934e+03
2.549435e+03,3.081261e+03
2.552328e+03,3.043611e+03
2.555220e+03,3.046676e+03
2.558113e+03,3.035873e+03
2.561006e+03,3.017993e+03
2.563898e+03,2.996866e+03
2.566791e+03,3.001002e+03
2.569684e+03,2.989706e+03
2.572576e+03,2.967847e+03
2.575469e+03,2.982660e+03
2.578362e+03,2.964513e+03
2.581255e+03,2.961373e+03
2.584147e+03,2.954652e+03
2.587040e+03,2.925792e+03
2.589933e+03,2.917974e+03
2.592825e+03,2.941610e+03
2.595718e+03,2.900237e+03
2.598611e+03,2.894203e+03
2.601503e+03,2.895298e+03
2.604396e+03,2.878132e+03
2.607289e+03,2.866362e+03
2.610182e+03,2.851519e+03
2.613074e+03,2.850504e+03
2.615967e+03,2.845472e+03
2.618860e+03,2.833032e+03
2.621752e+03,2.835723e+03
2.624645e+03,2.796893e+03
2.627538e+03,2.796105e+03
2.630430e+03,2.808282e+03
2.633323e+03,2.803400e+03
2.636216e+03,2.796094e+03
2.639109e+03,2.785015e+03
2.642001e+03,2.782984e+03
2.644894e+03,2.731077e+03
2.647787e+03,2.748241e+03
2.650679e+03,2.726670e+03
2.653572e+03,2.735519e+03
2.656465e+03,2.746327e+03
2.659357e+03,2.715075e+03
2.662250e+03,2.707069e+03
2.665143e+03,2.688532e+03
2.668036e+03,2.734740e+03
2.670928e+03,2.682391e+03
2.673821e+03,2.671383e+03
2.676714e+03,2.644088e+03
2.679606e+03,2.655581e+03
2.682499e+03,2.648600e+03
2.685392e+03,2.675481e+03
2.688284e+03,2.618849e+03
2.691177e+03,2.636120e+03
2.694070e+03,2.591635e+03
2.696963e+03,2.634875e+03
2.699855e+03,2.600492e+03
2.702748e+03,2.629031e+03
2.705641e+03,2.583870e+03
2.708533e+03,2.602147e+03
2.711426e+03,2.582901e+03
2.714319e+03,2.577890e+03
2.717211e+03,2.592130e+03
2.720104e+03,2.554758e+03
2.722997e+03,2.563157e+03
2.725890e+03,2.528152e+03
2.728782e+03,2.513730e+03
2.731675e+03,2.565286e+03
2.734568e+03,2.544555e+03
2.737460e+03,2.539228e+03
2.740353e+03,2.528817e+03
2.743246e+03,2.490060e+03
2.746138e+03,2.498648e+03
2.749031e+03,2.488476e+03
2.751924e+03,2.473985e+03
2.754817e+03,2.455914e+03
2.757709e+03,2.458340e+03
2.760602e+03,2.459143e+03
2.763495e+03,2.477422e+03
2.766387e+03,2.456249e+03
2.769280e+03,2.430669e+03
2.772173e+03,2.417277e+03
2.775065e+03,2.441199e+03
2.777958e+03,2.422658e+03
2.780851e+03,2.412047e+03
2.783744e+03,2.407858e+03
2.786636e+03,2.393663e+03
2.789529e+03,2.389334e+03
2.792422e+03,2.398465e+03
2.795314e+03,2.345073e+03
2.798207e+03,2.397304e+03
2.801100e+03,2.361001e+03
2.803992e+03,2.336840e+03
2.806885e+03,2.378951e+03
2.809778e+03,2.349161e+03
2.812671e+03,2.353188e+03
2.815563e+03,2.345805e+03
2.818456e+03,2.339285e+03
2.821349e+03,2.292714e+03
2.824241e+03,2.337679e+03
2.827134e+03,2.310797e+03
2.830027e+03,2.336831e+03
2.832919e+03,2.299834e+03
2.835812e+03,2.326020e+03
2.838705e+03,2.294856e+03
2.841598e+03,2.280651e+03
2.844490e+03,2.282538e+03
2.847383e+03,2.268961e+03
2.850276e+03,2.268559e+03
2.853168e+03,2.303968e+03
2.856061e+03,2.284333e+03
2.858954e+03,2.270436e+03
2.861846e+03,2.232146e+03
2.864739e+03,2.278609e+03
2.867632e+03,2.272041e+03
2.870525e+03,2.255451e+03
2.873417e+03,2.243510e+03
2.876310e+03,2.233683e+03
2.879203e+03,2.224594e+03
2.882095e+03,2.249073e+03
2.884988e+03,2.236219e+03
2.887881e+03,2.217119e+03
2.890773e+03,2.252631e+03
2.893666e+03,2.224728e+03
2.896559e+03,2.238290e+03
2.899452e+03,2.213459e+03
2.902344e+03,2.217004e+03
2.905237e+03,2.223405e+03
2.908130e+03,2.173756e+03
2.911022e+03,2.153320e+03
2.913915e+03,2.205114e+03
2.916808e+03,2.209943e+03
2.919700e+03,2.154019e+03
2.922593e+03,2.142523e+03
2.925486e+03,2.104481e+03
2.928379e+03,2.152026e+03
2.931271e+03,2.138702e+03
2.934164e+03,2.140279e+03
2.937057e+03,2.108010e+03
2.939949e+03,2.133082e+03
2.942842e+03,2.103075e+03
2.945735e+03,2.096669e+03
2.948627e+03,2.108361e+03
2.951520e+03,2.095282e+03
2.954413e+03,2.101552e+03
2.957306e+03,2.159923e+03
2.960198e+03,2.086848e+03
2.963091e+03,2.081726e+03
2.965984e+03,2.113724e+03
2.968876e+03,2.060774e+03
2.971769e+03,2.099005e+03
2.974662e+03,2.034637e+03
2.977554e+03,2.105592e+03
2.980447e+03,2.056068e+03
2.983340e+03,1.991758e+03
2.986233e+03,2.377117e+03
2.989125e+03,2.055625e+03
2.992018e+03,2.014353e+03
2.994911e+03,2.010500e+03
2.997803e+03,2.031307e+03
3.000696e+03,1.984058e+03
3.003589e+03,1.997818e+03
3.006481e+03,1.981163e+03
3.009374e+03,2.020570e+03
3.012267e+03,2.004210e+03
3.015160e+03,1.996684e+03
3.018052e+03,2.010079e+03
3.020945e+03,2.022818e+03
3.023838e+03,1.993604e+03
3.026730e+03,1.981398e+03
3.029623e+03,2.006491e+03
3.032516e+03,1.971021e+03
3.035408e+03,1.975426e+03
3.038301e+03,1.960335e+03
3.041194e+03,1.990171e+03
3.044087e+03,2.013598e+03
3.046979e+03,1.922765e+03
3.049872e+03,1.990161e+03
3.052765e+03,1.993644e+03
3.055657e+03,2.017914e+03
3.058550e+03,1.960938e+03
3.061443e+03,1.971221e+03
3.064335e+03,1.962167e+03
3.067228e+03,1.981203e+03
3.070121e+03,1.911645e+03
3.073014e+03,1.974340e+03
3.075906e+03,1.917818e+03
3.078799e+03,1.945012e+03
3.081692e+03,1.964318e+03
3.084584e+03,1.936204e+03
3.087477e+03,1.930714e+03
3.090370e+03,1.968762e+03
3.093262e+03,1.924808e+03
3.096155e+03,1.948691e+03
3.099048e+03,1.904418e+03
3.101941e+03,1.969566e+03
3.104833e+03,1.916750e+03
3.107726e+03,1.875694e+03
3.110619e+03,1.913006e+03
3.113511e+03,1.928121e+03
3.116404e+03,1.895870e+03
3.119297e+03,1.911366e+03
3.122189e+03,1.956868e+03
3.125082e+03,1.931783e+03
3.127975e+03,1.897051e+03
3.130868e+03,1.932686e+03
3.133760e+03,1.914391e+03
3.136653e+03,1.929037e+03
3.139546e+03,1.966248e+03
3.142438e+03,1.913997e+03
3.145331e+03,1.950427e+03
3.148224e+03,1.907348e+03
3.151116e+03,1.909031e+03
3.154009e+03,1.964094e+03
3.156902e+03,1.948729e+03
3.159795e+03,1.925518e+03
3.162687e+03,1.962387e+03
3.165580e+03,1.972195e+03
3.168473e+03,1.903648e+03
3.171365e+03,1.924273e+03
3.174258e+03,1.974330e+03
3.177151e+03,1.894025e+03
3.180043e+03,1.898760e+03
3.182936e+03,1.917869e+03
3.185829e+03,1.909572e+03
3.188722e+03,1.884628e+03
3.191614e+03,1.927051e+03
3.194507e+03,1.985696e+03
3.197400e+03,1.924003e+03
3.200292e+03,1.939989e+03
3.203185e+03,0.000000e+00
3.206078e+03,0.000000e+00
3.208970e+03,0.000000e+00
3.211863e+03,0.000000e+00
3.214756e+03,0.000000e+00
3.217649e+03,0.000000e+00
3.220541e+03,0.000000e+00
3.223434e+03,0.000000e+00
3.226327e+03,0.000000e+00
3.229219e+03,0.000000e+00
3.232112e+03,0.000000e+00
3.235005e+03,0.000000e+00
3.237897e+03,0.000000e+00
3.240790e+03,0.000000e+00
3.243683e+03,0.000000e+00
3.246576e+03,0.000000e+00
3.249468e+03,0.000000e+00
3.252361e+03,0.000000e+00
3.255254e+03,0.000000e+00
3.258146e+03,0.000000e+00
3.261039e+03,0.000000e+00
3.263932e+03,0.000000e+00
3.266824e+03,0.000000e+00
3.269717e+03,0.000000e+00
3.272610e+03,0.000000e+00
3.275503e+03,0.000000e+00
3.278395e+03,0.000000e+00
3.281288e+03,0.000000e+00
3.284181e+03,0.000000e+00
3.287073e+03,0.000000e+00
3.289966e+03,0.000000e+00
3.292859e+03,0.000000e+00
3.295751e+03,0.000000e+00
3.298644e+03,0.000000e+00
3.301537e+03,0.000000e+00
3.304430e+03,0.000000e+00
3.307322e+03,0.000000e+00
3.310215e+03,0.000000e+00
3.313108e+03,0.000000e+00
3.316000e+03,0.000000e+00
3.318893e+03,0.000000e+00
3.321786e+03,0.000000e+00
3.324678e+03,0.000000e+00
3.327571e+03,0.000000e+00
3.330464e+03,0.000000e+00
3.333357e+03,0.000000e+00
3.336249e+03,0.000000e+00
3.339142e+03,0.000000e+00
3.342035e+03,0.000000e+00
3.344927e+03,0.000000e+00
3.347820e+03,0.000000e+00
3.350713e+03,0.000000e+00
3.353605e+03,0.000000e+00
3.356498e+03,0.000000e+00
3.359391e+03,0.000000e+00
3.362284e+03,0.000000e+00
3.365176e+03,0.000000e+00
3.368069e+03,0.000000e+00
3.370962e+03,0.000000e+00
3.373854e+03,0.000000e+00
3.376747e+03,0.000000e+00
3.379640e+03,0.000000e+00
3.382532e+03,0.000000e+00
3.385425e+03,0.000000e+00
3.388318e+03,0.000000e+00
3.391211e+03,0.000000e+00
3.394103e+03,0.000000e+00
3.396996e+03,0.000000e+00
3.399889e+03,0.000000e+00
3.402781e+03,0.000000e+00
3.405674e+03,0.000000e+00
3.408567e+03,0.000000e+00
3.411459e+03,0.000000e+00
3.414352e+03,0.000000e+00
3.417245e+03,0.000000e+00
3.420138e+03,0.000000e+00
3.423030e+03,0.000000e+00
3.425923e+03,0.000000e+00
3.428816e+03,0.000000e+00
3.431708e+03,0.000000e+00
3.434601e+03,0.000000e+00
3.437494e+03,0.000000e+00
3.440386e+03,0.000000e+00
3.443279e+03,0.000000e+00
3.446172e+03,0.000000e+00
3.449065e+03,0.000000e+00
3.451957e+03,0.000000e+00
3.454850e+03,0.000000e+00
3.457743e+03,0.000000e+00
3.460635e+03,0.000000e+00
3.463528e+03,0.000000e+00
3.466421e+03,0.000000e+00
3.469313e+03,0.000000e+00
3.472206e+03,0.000000e+00
3.475099e+03,0.000000e+00
3.477992e+03,0.000000e+00
3.480884e+03,0.000000e+00
3.483777e+03,0.000000e+00
3.486670e+03,0.000000e+00
3.489563e+03,0.000000e+00
3.492455e+03,0.000000e+00
3.495348e+03,0.000000e+00
3.498240e+03,0.000000e+00
3.500169e+03,0.000000e+00