File: RAMAN_data/23052023_r3/blue fibre15.CSV
9.931763e+01,0.000000e+00
1.022103e+02,0.000000e+00
1.051030e+02,0.000000e+00
1.079957e+02,0.000000e+00
1.108884e+02,0.000000e+00
1.137811e+02,0.000000e+00
1.166738e+02,0.000000e+00
1.195665e+02,0.000000e+00
1.224592e+02,0.000000e+00
1.253519e+02,0.000000e+00
1.282446e+02,0.000000e+00
1.311373e+02,0.000000e+00
1.340300e+02,0.000000e+00
1.369227e+02,0.000000e+00
1.398154e+02,0.000000e+00
1.427081e+02,0.000000e+00
1.456008e+02,0.000000e+00
1.484935e+02,0.000000e+00
1.513862e+02,0.000000e+00
1.542789e+02,0.000000e+00
1.571716e+02,0.000000e+00
1.600643e+02,0.000000e+00
1.629570e+02,0.000000e+00
1.658497e+02,0.000000e+00
1.687424e+02,0.000000e+00
1.716351e+02,0.000000e+00
1.745278e+02,0.000000e+00
1.774205e+02,0.000000e+00
1.803132e+02,0.000000e+00
1.832059e+02,0.000000e+00
1.860986e+02,0.000000e+00
1.889913e+02,0.000000e+00
1.918840e+02,0.000000e+00
1.947767e+02,0.000000e+00
1.976694e+02,0.000000e+00
2.005621e+02,3.784203e+03
2.034548e+02,3.797431e+03
2.063475e+02,3.806325e+03
2.092402e+02,3.814522e+03
2.121329e+02,3.821319e+03
2.150256e+02,3.818136e+03
2.179183e+02,3.837561e+03
2.208110e+02,3.849113e+03
2.237037e+02,3.851914e+03
2.265964e+02,3.851778e+03
2.294892e+02,3.871733e+03
2.323819e+02,3.884108e+03
2.352746e+02,3.911846e+03
2.381673e+02,3.911789e+03
2.410600e+02,3.907382e+03
2.439527e+02,3.934320e+03
2.468454e+02,3.955871e+03
2.497381e+02,3.961969e+03
2.526308e+02,3.963407e+03
2.555235e+02,3.980520e+03
2.584161e+02,3.977446e+03
2.613088e+02,4.006958e+03
2.642015e+02,4.013951e+03
2.670942e+02,4.024925e+03
2.699869e+02,4.045759e+03
2.728796e+02,4.053903e+03
2.757723e+02,4.081282e+03
2.786650e+02,4.098313e+03
2.815577e+02,4.106612e+03
2.844504e+02,4.100211e+03
2.873431e+02,4.097969e+03
2.902358e+02,4.075911e+03
2.931285e+02,4.072136e+03
2.960212e+02,4.090153e+03
2.989139e+02,4.105207e+03
3.018066e+02,4.099431e+03
3.046993e+02,4.084754e+03
3.075920e+02,4.103236e+03
3.104847e+02,4.113377e+03
3.133774e+02,4.120930e+03
3.162701e+02,4.116905e+03
3.191628e+02,4.125270e+03
3.220555e+02,4.127519e+03
3.249482e+02,4.131274e+03
3.278409e+02,4.138971e+03
3.307336e+02,4.158766e+03
3.336263e+02,4.155486e+03
3.365190e+02,4.145269e+03
3.394117e+02,4.140567e+03
3.423044e+02,4.171765e+03
3.451971e+02,4.159717e+03
3.480898e+02,4.168856e+03
3.509825e+02,4.173625e+03
3.538752e+02,4.179024e+03
3.567680e+02,4.200659e+03
3.596607e+02,4.197736e+03
3.625534e+02,4.199545e+03
3.654461e+02,4.197926e+03
3.683388e+02,4.207300e+03
3.712315e+02,4.225688e+03
3.741242e+02,4.222970e+03
3.770169e+02,4.238443e+03
3.799096e+02,4.243508e+03
3.828023e+02,4.222843e+03
3.856950e+02,4.238604e+03
3.885877e+02,4.237375e+03
3.914804e+02,4.236021e+03
3.943731e+02,4.249446e+03
3.972658e+02,4.247594e+03
4.001585e+02,4.233692e+03
4.030512e+02,4.243107e+03
4.059439e+02,4.243936e+03
4.088366e+02,4.245825e+03
4.117293e+02,4.238077e+03
4.146220e+02,4.264210e+03
4.175147e+02,4.270452e+03
4.204074e+02,4.256435e+03
4.233001e+02,4.253558e+03
4.261928e+02,4.245374e+03
4.290855e+02,4.243896e+03
4.319782e+02,4.272594e+03
4.348709e+02,4.265188e+03
4.377636e+02,4.249677e+03
4.406563e+02,4.272619e+03
4.435490e+02,4.280546e+03
4.464417e+02,4.259161e+03
4.493344e+02,4.270511e+03
4.522271e+02,4.295360e+03
4.551198e+02,4.278825e+03
4.580125e+02,4.267403e+03
4.609052e+02,4.275218e+03
4.637979e+02,4.271651e+03
4.666906e+02,4.297024e+03
4.695833e+02,4.272315e+03
4.724760e+02,4.278373e+03
4.753687e+02,4.275583e+03
4.782614e+02,4.260634e+03
4.811541e+02,4.279011e+03
4.840468e+02,4.278441e+03
4.869395e+02,4.287108e+03
4.898322e+02,4.287097e+03
4.927249e+02,4.304085e+03
4.956176e+02,4.297207e+03
4.985103e+02,4.303607e+03
5.014030e+02,4.289302e+03
5.042957e+02,4.289396e+03
5.071884e+02,4.279245e+03
5.100811e+02,4.278890e+03
5.129738e+02,4.274371e+03
5.158665e+02,4.297372e+03
5.187592e+02,4.312897e+03
5.216519e+02,4.299160e+03
5.245446e+02,4.278768e+03
5.274373e+02,4.309996e+03
5.303300e+02,4.296138e+03
5.332227e+02,4.298782e+03
5.361154e+02,4.320521e+03
5.390081e+02,4.334088e+03
5.419008e+02,4.355231e+03
5.447935e+02,4.316717e+03
5.476862e+02,4.340457e+03
5.505789e+02,4.365943e+03
5.534716e+02,4.357011e+03
5.563643e+02,4.375268e+03
5.592570e+02,4.364015e+03
5.621497e+02,4.357816e+03
5.650424e+02,4.329906e+03
5.679351e+02,4.305306e+03
5.708278e+02,4.285714e+03
5.737205e+02,4.265156e+03
5.766132e+02,4.264878e+03
5.795059e+02,4.253062e+03
5.823986e+02,4.264146e+03
5.852913e+02,4.251708e+03
5.881840e+02,4.260348e+03
5.910767e+02,4.270927e+03
5.939694e+02,4.275818e+03
5.968621e+02,4.286890e+03
5.997548e+02,4.282137e+03
6.026475e+02,4.260874e+03
6.055402e+02,4.290836e+03
6.084329e+02,4.323231e+03
6.113256e+02,4.337491e+03
6.142183e+02,4.282616e+03
6.171110e+02,4.238459e+03
6.200037e+02,4.244191e+03
6.228964e+02,4.237590e+03
6.257891e+02,4.229326e+03
6.286818e+02,4.229904e+03
6.315745e+02,4.223898e+03
6.344672e+02,4.213062e+03
6.373599e+02,4.211847e+03
6.402526e+02,4.202303e+03
6.431453e+02,4.190314e+03
6.460380e+02,4.186123e+03
6.489307e+02,4.189520e+03
6.518234e+02,4.207625e+03
6.547161e+02,4.199122e+03
6.576088e+02,4.193754e+03
6.605015e+02,4.184072e+03
6.633942e+02,4.159265e+03
6.662869e+02,4.173752e+03
6.691796e+02,4.190936e+03
6.720723e+02,4.184107e+03
6.749650e+02,4.174386e+03
6.778577e+02,4.172683e+03
6.807504e+02,4.144723e+03
6.836431e+02,4.134474e+03
6.865358e+02,4.149918e+03
6.894285e+02,4.137310e+03
6.923212e+02,4.105286e+03
6.952139e+02,4.106360e+03
6.981066e+02,4.130797e+03
7.009993e+02,4.095575e+03
7.038920e+02,4.079720e+03
7.067847e+02,4.083990e+03
7.096774e+02,4.107152e+03
7.125701e+02,4.094018e+03
7.154628e+02,4.082530e+03
7.183555e+02,4.083443e+03
7.212482e+02,4.078441e+03
7.241409e+02,4.064067e+03
7.270336e+02,4.056338e+03
7.299263e+02,4.056992e+03
7.328190e+02,4.053875e+03
7.357117e+02,4.039805e+03
7.386044e+02,4.034459e+03
7.414971e+02,4.023084e+03
7.443898e+02,4.018635e+03
7.472825e+02,4.029446e+03
7.501752e+02,4.016949e+03
7.530679e+02,4.036931e+03
7.559606e+02,4.029623e+03
7.588533e+02,4.026326e+03
7.617460e+02,4.007509e+03
7.646387e+02,4.005805e+03
7.675314e+02,4.008470e+03
7.704241e+02,3.984986e+03
7.733168e+02,3.974083e+03
7.762095e+02,3.997145e+03
7.791022e+02,3.986114e+03
7.819949e+02,3.995316e+03
7.848876e+02,3.987430e+03
7.877803e+02,3.975071e+03
7.906730e+02,3.953555e+03
7.935657e+02,3.961939e+03
7.964584e+02,3.940573e+03
7.993511e+02,3.947733e+03
8.022438e+02,3.919688e+03
8.051365e+02,3.911434e+03
8.080292e+02,3.925272e+03
8.109219e+02,3.904750e+03
8.138146e+02,3.904590e+03
8.167073e+02,3.891140e+03
8.196000e+02,3.878981e+03
8.224927e+02,3.878807e+03
8.253854e+02,3.877406e+03
8.282781e+02,3.839820e+03
8.311708e+02,3.849938e+03
8.340635e+02,3.860349e+03
8.369562e+02,3.864412e+03
8.398489e+02,3.856138e+03
8.427416e+02,3.843706e+03
8.456343e+02,3.820846e+03
8.485270e+02,3.811383e+03
8.514197e+02,3.819260e+03
8.543124e+02,3.827516e+03
8.572051e+02,3.783979e+03
8.600978e+02,3.818753e+03
8.629905e+02,3.797082e+03
8.658832e+02,3.775827e+03
8.687759e+02,3.769832e+03
8.716686e+02,3.774191e+03
8.745613e+02,3.761964e+03
8.774540e+02,3.757592e+03
8.803467e+02,3.746476e+03
8.832394e+02,3.752740e+03
8.861321e+02,3.741320e+03
8.890248e+02,3.738316e+03
8.919175e+02,3.727826e+03
8.948102e+02,3.713492e+03
8.977029e+02,3.736678e+03
9.005956e+02,3.710729e+03
9.034883e+02,3.704013e+03
9.063810e+02,3.684018e+03
9.092737e+02,3.670079e+03
9.121664e+02,3.664146e+03
9.150591e+02,3.652755e+03
9.179518e+02,3.661772e+03
9.208445e+02,3.638215e+03
9.237372e+02,3.633491e+03
9.266299e+02,3.631999e+03
9.295226e+02,3.608165e+03
9.324153e+02,3.606982e+03
9.353080e+02,3.617184e+03
9.382007e+02,3.612272e+03
9.410934e+02,3.580246e+03
9.439861e+02,3.577647e+03
9.468788e+02,3.584167e+03
9.497715e+02,3.593285e+03
9.526642e+02,3.564895e+03
9.555569e+02,3.547147e+03
9.584496e+02,3.548692e+03
9.613423e+02,3.527679e+03
9.642350e+02,3.537872e+03
9.671277e+02,3.515052e+03
9.700204e+02,3.510153e+03
9.729131e+02,3.511938e+03
9.758058e+02,3.487603e+03
9.786985e+02,3.501322e+03
9.815912e+02,3.492106e+03
9.844839e+02,3.489869e+03
9.873766e+02,3.458858e+03
9.902693e+02,3.463223e+03
9.931620e+02,3.464432e+03
9.960547e+02,3.456192e+03
9.989474e+02,3.452918e+03
1.001840e+03,3.438270e+03
1.004733e+03,3.433424e+03
1.007626e+03,3.420997e+03
1.010518e+03,3.421969e+03
1.013411e+03,3.398981e+03
1.016304e+03,3.405034e+03
1.019196e+03,3.384091e+03
1.022089e+03,3.391621e+03
1.024982e+03,3.371257e+03
1.027875e+03,3.374655e+03
1.030767e+03,3.367614e+03
1.033660e+03,3.358213e+03
1.036552e+03,3.357215e+03
1.039445e+03,3.360614e+03
1.042338e+03,3.350320e+03
1.045231e+03,3.322088e+03
1.048123e+03,3.316439e+03
1.051016e+03,3.307828e+03
1.053909e+03,3.314844e+03
1.056802e+03,3.315945e+03
1.059694e+03,3.311083e+03
1.062587e+03,3.312323e+03
1.065479e+03,3.291223e+03
1.068372e+03,3.277017e+03
1.071265e+03,3.305596e+03
1.074158e+03,3.308282e+03
1.077050e+03,3.300285e+03
1.079943e+03,3.278487e+03
1.082836e+03,3.297431e+03
1.085729e+03,3.288389e+03
1.088621e+03,3.291219e+03
1.091514e+03,3.276610e+03
1.094406e+03,3.246285e+03
1.097299e+03,3.226981e+03
1.100192e+03,3.233099e+03
1.103085e+03,3.219846e+03
1.105977e+03,3.204853e+03
1.108870e+03,3.197588e+03
1.111763e+03,3.211781e+03
1.114656e+03,3.177042e+03
1.117548e+03,3.191185e+03
1.120441e+03,3.203977e+03
1.123334e+03,3.173003e+03
1.126226e+03,3.163229e+03
1.129119e+03,3.144070e+03
1.132012e+03,3.163496e+03
1.134904e+03,3.129864e+03
1.137797e+03,3.114207e+03
1.140690e+03,3.115869e+03
1.143583e+03,3.136284e+03
1.146475e+03,3.113363e+03
1.149368e+03,3.100382e+03
1.152261e+03,3.101238e+03
1.155153e+03,3.082928e+03
1.158046e+03,3.060698e+03
1.160939e+03,3.081278e+03
1.163831e+03,3.072927e+03
1.166724e+03,3.071122e+03
1.169617e+03,3.045626e+03
1.172510e+03,3.036089e+03
1.175402e+03,3.031976e+03
1.178295e+03,3.043189e+03
1.181188e+03,3.037093e+03
1.184080e+03,3.026063e+03
1.186973e+03,3.016784e+03
1.189866e+03,3.025081e+03
1.192758e+03,3.000657e+03
1.195651e+03,2.996218e+03
1.198544e+03,2.996109e+03
1.201437e+03,2.962660e+03
1.204329e+03,2.966049e+03
1.207222e+03,2.964998e+03
1.210115e+03,2.963034e+03
1.213007e+03,2.955336e+03
1.215900e+03,2.952185e+03
1.218793e+03,2.951255e+03
1.221685e+03,2.952581e+03
1.224578e+03,2.945620e+03
1.227471e+03,2.953876e+03
1.230364e+03,2.933091e+03
1.233256e+03,2.905665e+03
1.236149e+03,2.895161e+03
1.239042e+03,2.899613e+03
1.241934e+03,2.906989e+03
1.244827e+03,2.899652e+03
1.247720e+03,2.879525e+03
1.250612e+03,2.868649e+03
1.253505e+03,2.859266e+03
1.256398e+03,2.865315e+03
1.259291e+03,2.843121e+03
1.262183e+03,2.831003e+03
1.265076e+03,2.845146e+03
1.267969e+03,2.833353e+03
1.270861e+03,2.831601e+03
1.273754e+03,2.822810e+03
1.276647e+03,2.815459e+03
1.279539e+03,2.806461e+03
1.282432e+03,2.796763e+03
1.285325e+03,2.803505e+03
1.288218e+03,2.805551e+03
1.291110e+03,2.779580e+03
1.294003e+03,2.789850e+03
1.296896e+03,2.756421e+03
1.299788e+03,2.761670e+03
1.302681e+03,2.746739e+03
1.305574e+03,2.763597e+03
1.308466e+03,2.767136e+03
1.311359e+03,2.751023e+03
1.314252e+03,2.737163e+03
1.317145e+03,2.741767e+03
1.320037e+03,2.745991e+03
1.322930e+03,2.749591e+03
1.325823e+03,2.743878e+03
1.328715e+03,2.724796e+03
1.331608e+03,2.724123e+03
1.334501e+03,2.718009e+03
1.337393e+03,2.729072e+03
1.340286e+03,2.699621e+03
1.343179e+03,2.698468e+03
1.346072e+03,2.690699e+03
1.348964e+03,2.685755e+03
1.351857e+03,2.684678e+03
1.354750e+03,2.675208e+03
1.357642e+03,2.681399e+03
1.360535e+03,2.660731e+03
1.363428e+03,2.666185e+03
1.366320e+03,2.657277e+03
1.369213e+03,2.646879e+03
1.372106e+03,2.640385e+03
1.374999e+03,2.616152e+03
1.377891e+03,2.632028e+03
1.380784e+03,2.627352e+03
1.383677e+03,2.618490e+03
1.386569e+03,2.610934e+03
1.389462e+03,2.611597e+03
1.392355e+03,2.586527e+03
1.395247e+03,2.594353e+03
1.398140e+03,2.599651e+03
1.401033e+03,2.594299e+03
1.403926e+03,2.577684e+03
1.406818e+03,2.569147e+03
1.409711e+03,2.559737e+03
1.412604e+03,2.553807e+03
1.415496e+03,2.559574e+03
1.418389e+03,2.546604e+03
1.421282e+03,2.555885e+03
1.424174e+03,2.537753e+03
1.427067e+03,2.545769e+03
1.429960e+03,2.537084e+03
1.432853e+03,2.512176e+03
1.435745e+03,2.518111e+03
1.438638e+03,2.506832e+03
1.441531e+03,2.515108e+03
1.444423e+03,2.504554e+03
1.447316e+03,2.522206e+03
1.450209e+03,2.518220e+03
1.453101e+03,2.512194e+03
1.455994e+03,2.506381e+03
1.458887e+03,2.499301e+03
1.461780e+03,2.496008e+03
1.464672e+03,2.470815e+03
1.467565e+03,2.453710e+03
1.470458e+03,2.469153e+03
1.473350e+03,2.449778e+03
1.476243e+03,2.461334e+03
1.479136e+03,2.467003e+03
1.482028e+03,2.454321e+03
1.484921e+03,2.442814e+03
1.487814e+03,2.424087e+03
1.490707e+03,2.433065e+03
1.493599e+03,2.435786e+03
1.496492e+03,2.415118e+03
1.499385e+03,2.427665e+03
1.502277e+03,2.410436e+03
1.505170e+03,2.419038e+03
1.508063e+03,2.414158e+03
1.510955e+03,2.408573e+03
1.513848e+03,2.379355e+03
1.516741e+03,2.391247e+03
1.519634e+03,2.397751e+03
1.522526e+03,2.373679e+03
1.525419e+03,2.379419e+03
1.528312e+03,2.368882e+03
1.531204e+03,2.346458e+03
1.534097e+03,2.356043e+03
1.536990e+03,2.350093e+03
1.539882e+03,2.329857e+03
1.542775e+03,2.319677e+03
1.545668e+03,2.338542e+03
1.548561e+03,2.339075e+03
1.551453e+03,2.333983e+03
1.554346e+03,2.329301e+03
1.557239e+03,2.345118e+03
1.560131e+03,2.321917e+03
1.563024e+03,2.340516e+03
1.565917e+03,2.371583e+03
1.568809e+03,2.404661e+03
1.571702e+03,2.391317e+03
1.574595e+03,2.384340e+03
1.577488e+03,2.352571e+03
1.580380e+03,2.342967e+03
1.583273e+03,2.330163e+03
1.586166e+03,2.308945e+03
1.589058e+03,2.288260e+03
1.591951e+03,2.270692e+03
1.594844e+03,2.284780e+03
1.597736e+03,2.270196e+03
1.600629e+03,2.257332e+03
1.603522e+03,2.274510e+03
1.606415e+03,2.247099e+03
1.609307e+03,2.243914e+03
1.612200e+03,2.236147e+03
1.615093e+03,2.235059e+03
1.617985e+03,2.261199e+03
1.620878e+03,2.222892e+03
1.623771e+03,2.228720e+03
1.626663e+03,2.233358e+03
1.629556e+03,2.228075e+03
1.632449e+03,2.223339e+03
1.635342e+03,2.202833e+03
1.638234e+03,2.194228e+03
1.641127e+03,2.183323e+03
1.644020e+03,2.174750e+03
1.646912e+03,2.171327e+03
1.649805e+03,2.164228e+03
1.652698e+03,2.140337e+03
1.655590e+03,2.160733e+03
1.658483e+03,2.152425e+03
1.661376e+03,2.154309e+03
1.664269e+03,2.164522e+03
1.667161e+03,2.160162e+03
1.670054e+03,2.142280e+03
1.672947e+03,2.137715e+03
1.675839e+03,2.150081e+03
1.678732e+03,2.138667e+03
1.681625e+03,2.126719e+03
1.684517e+03,2.112931e+03
1.687410e+03,2.117662e+03
1.690303e+03,2.114926e+03
1.693196e+03,2.125834e+03
1.696088e+03,2.101290e+03
1.698981e+03,2.103432e+03
1.701874e+03,2.090077e+03
1.704766e+03,2.091269e+03
1.707659e+03,2.093061e+03
1.710552e+03,2.091954e+03
1.713444e+03,2.064501e+03
1.716337e+03,2.071369e+03
1.719230e+03,2.060992e+03
1.722123e+03,2.050625e+03
1.725015e+03,2.057395e+03
1.727908e+03,2.042330e+03
1.730801e+03,2.039581e+03
1.733693e+03,2.063955e+03
1.736586e+03,2.050501e+03
1.739479e+03,2.047509e+03
1.742371e+03,2.031576e+03
1.745264e+03,2.025575e+03
1.748157e+03,2.025506e+03
1.751050e+03,2.017306e+03
1.753942e+03,2.030128e+03
1.756835e+03,2.015667e+03
1.759728e+03,1.984934e+03
1.762620e+03,2.012033e+03
1.765513e+03,1.998986e+03
1.768406e+03,1.994375e+03
1.771298e+03,1.984109e+03
1.774191e+03,1.974483e+03
1.777084e+03,1.987136e+03
1.779977e+03,1.974045e+03
1.782869e+03,1.975409e+03
1.785762e+03,1.964453e+03
1.788655e+03,1.958670e+03
1.791547e+03,1.949110e+03
1.794440e+03,1.942154e+03
1.797333e+03,1.934302e+03
1.800225e+03,1.947909e+03
1.803118e+03,1.916486e+03
1.806011e+03,1.939441e+03
1.808904e+03,1.920778e+03
1.811796e+03,1.909617e+03
1.814689e+03,1.935277e+03
1.817582e+03,1.913384e+03
1.820474e+03,1.921729e+03
1.823367e+03,1.919701e+03
1.826260e+03,1.899414e+03
1.829152e+03,1.891885e+03
1.832045e+03,1.910445e+03
1.834938e+03,1.899219e+03
1.837831e+03,1.880533e+03
1.840723e+03,1.875083e+03
1.843616e+03,1.891828e+03
1.846509e+03,1.884819e+03
1.849401e+03,1.876469e+03
1.852294e+03,1.849221e+03
1.855187e+03,1.868913e+03
1.858079e+03,1.857727e+03
1.860972e+03,1.872527e+03
1.863865e+03,1.852924e+03
1.866758e+03,1.816340e+03
1.869650e+03,1.842510e+03
1.872543e+03,1.827496e+03
1.875436e+03,1.822632e+03
1.878328e+03,1.826058e+03
1.881221e+03,1.813575e+03
1.884114e+03,1.801610e+03
1.887006e+03,1.796441e+03
1.889899e+03,1.814948e+03
1.892792e+03,1.790788e+03
1.895685e+03,1.789340e+03
1.898577e+03,1.778027e+03
1.901470e+03,1.790734e+03
1.904363e+03,1.783918e+03
1.907255e+03,1.771675e+03
1.910148e+03,1.785562e+03
1.913041e+03,1.768472e+03
1.915933e+03,1.760988e+03
1.918826e+03,1.739566e+03
1.921719e+03,1.751067e+03
1.924612e+03,1.765782e+03
1.927504e+03,1.747636e+03
1.930397e+03,1.740907e+03
1.933290e+03,1.719319e+03
1.936182e+03,1.727703e+03
1.939075e+03,1.721872e+03
1.941968e+03,1.722306e+03
1.944860e+03,1.727223e+03
1.947753e+03,1.712744e+03
1.950646e+03,1.704721e+03
1.953539e+03,1.707542e+03
1.956431e+03,1.702524e+03
1.959324e+03,1.695029e+03
1.962217e+03,1.697668e+03
1.965109e+03,1.693671e+03
1.968002e+03,1.699631e+03
1.970895e+03,1.671998e+03
1.973787e+03,1.673574e+03
1.976680e+03,1.678863e+03
1.979573e+03,1.657617e+03
1.982466e+03,1.659907e+03
1.985358e+03,1.644701e+03
1.988251e+03,1.649920e+03
1.991144e+03,1.645893e+03
1.994036e+03,1.644431e+03
1.996929e+03,1.639464e+03
1.999822e+03,1.640640e+03
2.002714e+03,1.629914e+03
2.005607e+03,1.631070e+03
2.008500e+03,1.629506e+03
2.011393e+03,1.609031e+03
2.014285e+03,1.618080e+03
2.017178e+03,1.612948e+03
2.020071e+03,1.594855e+03
2.022963e+03,1.592449e+03
2.025856e+03,1.580271e+03
2.028749e+03,1.593727e+03
2.031641e+03,1.589438e+03
2.034534e+03,1.574328e+03
2.037427e+03,1.561178e+03
2.040320e+03,1.569257e+03
2.043212e+03,1.557821e+03
2.046105e+03,1.557782e+03
2.048998e+03,1.560600e+03
2.051890e+03,1.558628e+03
2.054783e+03,1.539083e+03
2.057676e+03,1.534659e+03
2.060568e+03,1.552942e+03
2.063461e+03,1.539910e+03
2.066354e+03,1.536965e+03
2.069247e+03,1.525639e+03
2.072139e+03,1.513057e+03
2.075032e+03,1.519731e+03
2.077925e+03,1.506423e+03
2.080817e+03,1.525151e+03
2.083710e+03,1.499298e+03
2.086603e+03,1.503590e+03
2.089496e+03,1.506952e+03
2.092388e+03,1.489578e+03
2.095281e+03,1.479994e+03
2.098174e+03,1.485388e+03
2.101066e+03,1.493422e+03
2.103959e+03,1.471076e+03
2.106852e+03,1.465656e+03
2.109744e+03,1.476337e+03
2.112637e+03,1.457341e+03
2.115530e+03,1.464224e+03
2.118422e+03,1.444537e+03
2.121315e+03,1.470826e+03
2.124208e+03,1.458892e+03
2.127101e+03,1.441125e+03
2.129993e+03,1.434850e+03
2.132886e+03,1.438994e+03
2.135779e+03,1.435079e+03
2.138671e+03,1.446339e+03
2.141564e+03,1.407030e+03
2.144457e+03,1.401626e+03
2.147350e+03,1.394242e+03
2.150242e+03,1.420116e+03
2.153135e+03,1.400777e+03
2.156028e+03,1.397259e+03
2.158920e+03,1.387897e+03
2.161813e+03,1.389432e+03
2.164706e+03,1.387123e+03
2.167598e+03,1.361984e+03
2.170491e+03,1.394760e+03
2.173384e+03,1.375749e+03
2.176277e+03,1.368233e+03
2.179169e+03,1.360408e+03
2.182062e+03,1.348630e+03
2.184955e+03,1.353455e+03
2.187847e+03,1.353731e+03
2.190740e+03,1.331952e+03
2.193633e+03,1.334489e+03
2.196525e+03,1.326208e+03
2.199418e+03,1.334803e+03
2.202311e+03,1.329207e+03
2.205204e+03,1.334459e+03
2.208096e+03,1.330113e+03
2.210989e+03,1.293169e+03
2.213882e+03,1.320489e+03
2.216774e+03,1.311647e+03
2.219667e+03,1.308533e+03
2.222560e+03,1.289659e+03
2.225452e+03,1.298635e+03
2.228345e+03,1.304969e+03
2.231238e+03,1.291594e+03
2.234131e+03,1.274223e+03
2.237023e+03,1.286624e+03
2.239916e+03,1.276555e+03
2.242809e+03,1.274382e+03
2.245701e+03,1.271680e+03
2.248594e+03,1.259006e+03
2.251487e+03,1.254359e+03
2.254379e+03,1.254729e+03
2.257272e+03,1.239679e+03
2.260165e+03,1.248118e+03
2.263058e+03,1.255470e+03
2.265950e+03,1.214199e+03
2.268843e+03,1.231062e+03
2.271736e+03,1.210723e+03
2.274628e+03,1.218620e+03
2.277521e+03,1.222264e+03
2.280414e+03,1.220929e+03
2.283306e+03,1.216117e+03
2.286199e+03,1.180517e+03
2.289092e+03,1.191644e+03
2.291985e+03,1.205146e+03
2.294877e+03,1.195744e+03
2.297770e+03,1.200091e+03
2.300663e+03,1.189593e+03
2.303555e+03,1.165592e+03
2.306448e+03,1.166731e+03
2.309341e+03,1.185018e+03
2.312233e+03,1.153447e+03
2.315126e+03,1.171188e+03
2.318019e+03,1.176285e+03
2.320912e+03,1.149846e+03
2.323804e+03,1.148792e+03
2.326697e+03,1.147549e+03
2.329590e+03,1.150458e+03
2.332482e+03,1.151766e+03
2.335375e+03,1.130065e+03
2.338268e+03,1.132948e+03
2.341160e+03,1.130288e+03
2.344053e+03,1.141765e+03
2.346946e+03,1.137156e+03
2.349839e+03,1.112353e+03
2.352731e+03,1.113781e+03
2.355624e+03,1.103415e+03
2.358517e+03,1.106226e+03
2.361409e+03,1.101996e+03
2.364302e+03,1.094477e+03
2.367195e+03,1.093874e+03
2.370087e+03,1.094512e+03
2.372980e+03,1.090874e+03
2.375873e+03,1.105914e+03
2.378766e+03,1.093639e+03
2.381658e+03,1.094125e+03
2.384551e+03,1.086550e+03
2.387444e+03,1.076161e+03
2.390336e+03,1.075539e+03
2.393229e+03,1.070344e+03
2.396122e+03,1.070812e+03
2.399014e+03,1.062230e+03
2.401907e+03,1.054558e+03
2.404800e+03,1.063307e+03
2.407693e+03,1.057694e+03
2.410585e+03,1.045741e+03
2.413478e+03,1.051959e+03
2.416371e+03,1.040891e+03
2.419263e+03,1.042977e+03
2.422156e+03,1.034994e+03
2.425049e+03,1.022791e+03
2.427941e+03,1.027731e+03
2.430834e+03,1.027330e+03
2.433727e+03,1.017546e+03
2.436620e+03,1.023482e+03
2.439512e+03,1.017669e+03
2.442405e+03,1.008484e+03
2.445298e+03,1.006447e+03
2.448190e+03,1.010360e+03
2.451083e+03,9.968904e+02
2.453976e+03,1.000536e+03
2.456868e+03,9.861495e+02
2.459761e+03,9.996199e+02
2.462654e+03,9.906998e+02
2.465547e+03,9.888423e+02
2.468439e+03,9.794916e+02
2.471332e+03,9.724234e+02
2.474225e+03,9.808595e+02
2.477117e+03,9.733127e+02
2.480010e+03,9.682936e+02
2.482903e+03,9.693655e+02
2.485795e+03,9.602011e+02
2.488688e+03,9.595742e+02
2.491581e+03,9.595319e+02
2.494474e+03,9.399276e+02
2.497366e+03,9.420419e+02
2.500259e+03,9.621674e+02
2.503152e+03,9.507232e+02
2.506044e+03,9.411913e+02
2.508937e+03,9.482510e+02
2.511830e+03,9.455158e+02
2.514722e+03,9.409352e+02
2.517615e+03,9.371061e+02
2.520508e+03,9.142219e+02
2.523401e+03,9.286252e+02
2.526293e+03,9.145888e+02
2.529186e+03,9.147256e+02
2.532079e+03,9.192230e+02
2.534971e+03,9.078924e+02
2.537864e+03,9.174807e+02
2.540757e+03,8.950974e+02
2.543649e+03,9.177758e+02
2.546542e+03,9.312438e+02
2.549435e+03,9.005105e+02
2.552328e+03,9.056184e+02
2.555220e+03,9.210507e+02
2.558113e+03,9.088723e+02
2.561006e+03,9.062432e+02
2.563898e+03,9.055964e+02
2.566791e+03,9.066573e+02
2.569684e+03,8.940530e+02
2.572576e+03,8.854500e+02
2.575469e+03,8.784922e+02
2.578362e+03,8.893821e+02
2.581255e+03,8.744577e+02
2.584147e+03,8.750203e+02
2.587040e+03,8.609464e+02
2.589933e+03,8.727390e+02
2.592825e+03,8.653951e+02
2.595718e+03,8.492198e+02
2.598611e+03,8.662560e+02
2.601503e+03,8.529387e+02
2.604396e+03,8.470661e+02
2.607289e+03,8.579635e+02
2.610182e+03,8.574207e+02
2.613074e+03,8.430339e+02
2.615967e+03,8.568146e+02
2.618860e+03,8.386234e+02
2.621752e+03,8.404279e+02
2.624645e+03,8.437637e+02
2.627538e+03,8.476129e+02
2.630430e+03,8.436330e+02
2.633323e+03,8.257167e+02
2.636216e+03,8.184203e+02
2.639109e+03,8.316634e+02
2.642001e+03,8.294368e+02
2.644894e+03,8.314196e+02
2.647787e+03,8.378103e+02
2.650679e+03,8.048015e+02
2.653572e+03,8.111405e+02
2.656465e+03,8.118162e+02
2.659357e+03,8.163215e+02
2.662250e+03,8.178345e+02
2.665143e+03,8.176242e+02
2.668036e+03,8.127423e+02
2.670928e+03,8.066282e+02
2.673821e+03,7.931547e+02
2.676714e+03,8.134328e+02
2.679606e+03,7.844219e+02
2.682499e+03,7.877513e+02
2.685392e+03,8.054598e+02
2.688284e+03,8.104452e+02
2.691177e+03,7.870335e+02
2.694070e+03,7.840178e+02
2.696963e+03,7.828570e+02
2.699855e+03,7.850344e+02
2.702748e+03,7.650068e+02
2.705641e+03,7.856962e+02
2.708533e+03,7.741811e+02
2.711426e+03,7.763189e+02
2.714319e+03,7.724939e+02
2.717211e+03,7.710091e+02
2.720104e+03,7.678600e+02
2.722997e+03,7.657809e+02
2.725890e+03,7.782864e+02
2.728782e+03,7.531517e+02
2.731675e+03,7.827704e+02
2.734568e+03,7.706611e+02
2.737460e+03,7.495291e+02
2.740353e+03,7.566519e+02
2.743246e+03,7.572269e+02
2.746138e+03,7.528722e+02
2.749031e+03,7.477040e+02
2.751924e+03,7.469058e+02
2.754817e+03,7.504597e+02
2.757709e+03,7.410896e+02
2.760602e+03,7.454615e+02
2.763495e+03,7.293584e+02
2.766387e+03,7.389905e+02
2.769280e+03,7.309114e+02
2.772173e+03,7.387019e+02
2.775065e+03,7.295322e+02
2.777958e+03,7.252242e+02
2.780851e+03,7.282113e+02
2.783744e+03,7.284041e+02
2.786636e+03,7.239378e+02
2.789529e+03,7.173724e+02
2.792422e+03,7.186494e+02
2.795314e+03,7.332490e+02
2.798207e+03,7.194315e+02
2.801100e+03,7.140548e+02
2.803992e+03,7.187218e+02
2.806885e+03,7.207269e+02
2.809778e+03,7.111718e+02
2.812671e+03,7.080648e+02
2.815563e+03,6.996622e+02
2.818456e+03,7.199991e+02
2.821349e+03,6.899883e+02
2.824241e+03,6.978500e+02
2.827134e+03,7.019973e+02
2.830027e+03,7.109802e+02
2.832919e+03,7.150003e+02
2.835812e+03,6.921324e+02
2.838705e+03,7.118156e+02
2.841598e+03,6.897664e+02
2.844490e+03,6.929313e+02
2.847383e+03,6.894152e+02
2.850276e+03,7.113874e+02
2.853168e+03,6.893612e+02
2.856061e+03,6.883298e+02
2.858954e+03,7.103406e+02
2.861846e+03,6.924193e+02
2.864739e+03,6.870783e+02
2.867632e+03,6.939299e+02
2.870525e+03,7.095231e+02
2.873417e+03,7.038433e+02
2.876310e+03,6.814804e+02
2.879203e+03,6.903743e+02
2.882095e+03,6.930002e+02
2.884988e+03,7.154680e+02
2.887881e+03,6.926131e+02
2.890773e+03,7.145556e+02
2.893666e+03,7.014709e+02
2.896559e+03,6.960765e+02
2.899452e+03,6.910107e+02
2.902344e+03,6.762408e+02
2.905237e+03,7.050092e+02
2.908130e+03,6.671220e+02
2.911022e+03,6.832390e+02
2.913915e+03,6.811757e+02
2.916808e+03,6.868319e+02
2.919700e+03,6.634057e+02
2.922593e+03,6.570023e+02
2.925486e+03,6.793763e+02
2.928379e+03,6.692880e+02
2.931271e+03,6.688955e+02
2.934164e+03,6.823227e+02
2.937057e+03,6.701324e+02
2.939949e+03,6.612814e+02
2.942842e+03,6.424380e+02
2.945735e+03,6.478557e+02
2.948627e+03,6.527073e+02
2.951520e+03,6.640795e+02
2.954413e+03,6.605674e+02
2.957306e+03,6.981041e+02
2.960198e+03,6.477422e+02
2.963091e+03,6.540880e+02
2.965984e+03,6.541963e+02
2.968876e+03,6.418079e+02
2.971769e+03,6.536232e+02
2.974662e+03,6.288720e+02
2.977554e+03,6.367740e+02
2.980447e+03,6.483359e+02
2.983340e+03,6.589218e+02
2.986233e+03,6.304619e+02
2.989125e+03,6.228145e+02
2.992018e+03,6.265885e+02
2.994911e+03,5.944174e+02
2.997803e+03,6.622236e+02
3.000696e+03,6.153939e+02
3.003589e+03,6.114016e+02
3.006481e+03,6.132643e+02
3.009374e+03,6.285344e+02
3.012267e+03,6.024602e+02
3.015160e+03,6.270511e+02
3.018052e+03,5.979175e+02
3.020945e+03,6.190479e+02
3.023838e+03,6.250179e+02
3.026730e+03,5.988141e+02
3.029623e+03,6.395629e+02
3.032516e+03,6.146649e+02
3.035408e+03,6.355161e+02
3.038301e+03,6.198663e+02
3.041194e+03,6.220550e+02
3.044087e+03,6.274131e+02
3.046979e+03,5.988232e+02
3.049872e+03,5.864662e+02
3.052765e+03,6.069914e+02
3.055657e+03,6.105195e+02
3.058550e+03,6.367069e+02
3.061443e+03,6.108385e+02
3.064335e+03,5.907425e+02
3.067228e+03,6.003715e+02
3.070121e+03,6.060240e+02
3.073014e+03,5.983602e+02
3.075906e+03,5.955331e+02
3.078799e+03,5.972034e+02
3.081692e+03,5.953204e+02
3.084584e+03,6.078935e+02
3.087477e+03,6.226743e+02
3.090370e+03,6.013997e+02
3.093262e+03,5.963694e+02
3.096155e+03,5.769705e+02
3.099048e+03,5.976230e+02
3.101941e+03,6.041791e+02
3.104833e+03,5.973267e+02
3.107726e+03,5.786443e+02
3.110619e+03,6.035726e+02
3.113511e+03,5.884623e+02
3.116404e+03,6.123859e+02
3.119297e+03,5.963342e+02
3.122189e+03,6.155162e+02
3.125082e+03,5.852947e+02
3.127975e+03,6.054006e+02
3.130868e+03,6.196978e+02
3.133760e+03,6.256082e+02
3.136653e+03,6.020297e+02
3.139546e+03,6.289354e+02
3.142438e+03,6.349070e+02
3.145331e+03,6.035648e+02
3.148224e+03,5.908364e+02
3.151116e+03,5.884380e+02
3.154009e+03,5.934557e+02
3.156902e+03,5.824688e+02
3.159795e+03,5.791487e+02
3.162687e+03,5.840906e+02
3.165580e+03,5.932323e+02
3.168473e+03,6.083147e+02
3.171365e+03,5.851542e+02
3.174258e+03,6.435978e+02
3.177151e+03,6.270286e+02
3.180043e+03,5.648602e+02
3.182936e+03,5.928299e+02
3.185829e+03,6.574958e+02
3.188722e+03,6.105193e+02
3.191614e+03,6.242237e+02
3.194507e+03,5.950793e+02
3.197400e+03,6.278861e+02
3.200292e+03,6.380408e+02
3.203185e+03,0.000000e+00
3.206078e+03,0.000000e+00
3.208970e+03,0.000000e+00
3.211863e+03,0.000000e+00
3.214756e+03,0.000000e+00
3.217649e+03,0.000000e+00
3.220541e+03,0.000000e+00
3.223434e+03,0.000000e+00
3.226327e+03,0.000000e+00
3.229219e+03,0.000000e+00
3.232112e+03,0.000000e+00
3.235005e+03,0.000000e+00
3.237897e+03,0.000000e+00
3.240790e+03,0.000000e+00
3.243683e+03,0.000000e+00
3.246576e+03,0.000000e+00
3.249468e+03,0.000000e+00
3.252361e+03,0.000000e+00
3.255254e+03,0.000000e+00
3.258146e+03,0.000000e+00
3.261039e+03,0.000000e+00
3.263932e+03,0.000000e+00
3.266824e+03,0.000000e+00
3.269717e+03,0.000000e+00
3.272610e+03,0.000000e+00
3.275503e+03,0.000000e+00
3.278395e+03,0.000000e+00
3.281288e+03,0.000000e+00
3.284181e+03,0.000000e+00
3.287073e+03,0.000000e+00
3.289966e+03,0.000000e+00
3.292859e+03,0.000000e+00
3.295751e+03,0.000000e+00
3.298644e+03,0.000000e+00
3.301537e+03,0.000000e+00
3.304430e+03,0.000000e+00
3.307322e+03,0.000000e+00
3.310215e+03,0.000000e+00
3.313108e+03,0.000000e+00
3.316000e+03,0.000000e+00
3.318893e+03,0.000000e+00
3.321786e+03,0.000000e+00
3.324678e+03,0.000000e+00
3.327571e+03,0.000000e+00
3.330464e+03,0.000000e+00
3.333357e+03,0.000000e+00
3.336249e+03,0.000000e+00
3.339142e+03,0.000000e+00
3.342035e+03,0.000000e+00
3.344927e+03,0.000000e+00
3.347820e+03,0.000000e+00
3.350713e+03,0.000000e+00
3.353605e+03,0.000000e+00
3.356498e+03,0.000000e+00
3.359391e+03,0.000000e+00
3.362284e+03,0.000000e+00
3.365176e+03,0.000000e+00
3.368069e+03,0.000000e+00
3.370962e+03,0.000000e+00
3.373854e+03,0.000000e+00
3.376747e+03,0.000000e+00
3.379640e+03,0.000000e+00
3.382532e+03,0.000000e+00
3.385425e+03,0.000000e+00
3.388318e+03,0.000000e+00
3.391211e+03,0.000000e+00
3.394103e+03,0.000000e+00
3.396996e+03,0.000000e+00
3.399889e+03,0.000000e+00
3.402781e+03,0.000000e+00
3.405674e+03,0.000000e+00
3.408567e+03,0.000000e+00
3.411459e+03,0.000000e+00
3.414352e+03,0.000000e+00
3.417245e+03,0.000000e+00
3.420138e+03,0.000000e+00
3.423030e+03,0.000000e+00
3.425923e+03,0.000000e+00
3.428816e+03,0.000000e+00
3.431708e+03,0.000000e+00
3.434601e+03,0.000000e+00
3.437494e+03,0.000000e+00
3.440386e+03,0.000000e+00
3.443279e+03,0.000000e+00
3.446172e+03,0.000000e+00
3.449065e+03,0.000000e+00
3.451957e+03,0.000000e+00
3.454850e+03,0.000000e+00
3.457743e+03,0.000000e+00
3.460635e+03,0.000000e+00
3.463528e+03,0.000000e+00
3.466421e+03,0.000000e+00
3.469313e+03,0.000000e+00
3.472206e+03,0.000000e+00
3.475099e+03,0.000000e+00
3.477992e+03,0.000000e+00
3.480884e+03,0.000000e+00
3.483777e+03,0.000000e+00
3.486670e+03,0.000000e+00
3.489563e+03,0.000000e+00
3.492455e+03,0.000000e+00
3.495348e+03,0.000000e+00
3.498240e+03,0.000000e+00
3.500169e+03,0.000000e+00