File: RAMAN_data/23052023_r3/blue fibre10.CSV
9.931763e+01,0.000000e+00
1.022103e+02,0.000000e+00
1.051030e+02,0.000000e+00
1.079957e+02,0.000000e+00
1.108884e+02,0.000000e+00
1.137811e+02,0.000000e+00
1.166738e+02,0.000000e+00
1.195665e+02,0.000000e+00
1.224592e+02,0.000000e+00
1.253519e+02,0.000000e+00
1.282446e+02,0.000000e+00
1.311373e+02,0.000000e+00
1.340300e+02,0.000000e+00
1.369227e+02,0.000000e+00
1.398154e+02,0.000000e+00
1.427081e+02,0.000000e+00
1.456008e+02,0.000000e+00
1.484935e+02,0.000000e+00
1.513862e+02,0.000000e+00
1.542789e+02,0.000000e+00
1.571716e+02,0.000000e+00
1.600643e+02,0.000000e+00
1.629570e+02,0.000000e+00
1.658497e+02,0.000000e+00
1.687424e+02,0.000000e+00
1.716351e+02,0.000000e+00
1.745278e+02,0.000000e+00
1.774205e+02,0.000000e+00
1.803132e+02,0.000000e+00
1.832059e+02,0.000000e+00
1.860986e+02,0.000000e+00
1.889913e+02,0.000000e+00
1.918840e+02,0.000000e+00
1.947767e+02,0.000000e+00
1.976694e+02,0.000000e+00
2.005621e+02,7.536377e+03
2.034548e+02,7.591192e+03
2.063475e+02,7.608033e+03
2.092402e+02,7.636876e+03
2.121329e+02,7.640591e+03
2.150256e+02,7.688266e+03
2.179183e+02,7.701350e+03
2.208110e+02,7.734861e+03
2.237037e+02,7.794024e+03
2.265964e+02,7.798915e+03
2.294892e+02,7.835802e+03
2.323819e+02,7.859563e+03
2.352746e+02,7.903410e+03
2.381673e+02,7.936742e+03
2.410600e+02,7.937907e+03
2.439527e+02,7.989690e+03
2.468454e+02,8.063695e+03
2.497381e+02,8.109132e+03
2.526308e+02,8.088894e+03
2.555235e+02,8.123513e+03
2.584161e+02,8.141227e+03
2.613088e+02,8.198838e+03
2.642015e+02,8.239135e+03
2.670942e+02,8.268224e+03
2.699869e+02,8.305916e+03
2.728796e+02,8.369614e+03
2.757723e+02,8.418487e+03
2.786650e+02,8.481176e+03
2.815577e+02,8.480518e+03
2.844504e+02,8.490447e+03
2.873431e+02,8.449981e+03
2.902358e+02,8.455628e+03
2.931285e+02,8.456499e+03
2.960212e+02,8.488333e+03
2.989139e+02,8.514032e+03
3.018066e+02,8.521190e+03
3.046993e+02,8.514476e+03
3.075920e+02,8.575475e+03
3.104847e+02,8.567704e+03
3.133774e+02,8.623623e+03
3.162701e+02,8.629598e+03
3.191628e+02,8.651017e+03
3.220555e+02,8.648434e+03
3.249482e+02,8.687740e+03
3.278409e+02,8.722988e+03
3.307336e+02,8.734937e+03
3.336263e+02,8.746843e+03
3.365190e+02,8.741638e+03
3.394117e+02,8.761530e+03
3.423044e+02,8.796724e+03
3.451971e+02,8.826460e+03
3.480898e+02,8.845356e+03
3.509825e+02,8.871498e+03
3.538752e+02,8.887313e+03
3.567680e+02,8.892743e+03
3.596607e+02,8.917438e+03
3.625534e+02,8.935210e+03
3.654461e+02,8.943127e+03
3.683388e+02,8.965494e+03
3.712315e+02,8.968531e+03
3.741242e+02,9.011973e+03
3.770169e+02,9.048881e+03
3.799096e+02,9.038144e+03
3.828023e+02,9.034233e+03
3.856950e+02,9.069591e+03
3.885877e+02,9.084662e+03
3.914804e+02,9.123984e+03
3.943731e+02,9.088970e+03
3.972658e+02,9.115544e+03
4.001585e+02,9.107975e+03
4.030512e+02,9.134081e+03
4.059439e+02,9.148637e+03
4.088366e+02,9.156616e+03
4.117293e+02,9.162024e+03
4.146220e+02,9.165848e+03
4.175147e+02,9.204188e+03
4.204074e+02,9.216113e+03
4.233001e+02,9.219572e+03
4.261928e+02,9.240755e+03
4.290855e+02,9.215485e+03
4.319782e+02,9.213595e+03
4.348709e+02,9.257388e+03
4.377636e+02,9.287856e+03
4.406563e+02,9.276157e+03
4.435490e+02,9.265545e+03
4.464417e+02,9.288915e+03
4.493344e+02,9.285337e+03
4.522271e+02,9.309271e+03
4.551198e+02,9.322935e+03
4.580125e+02,9.294075e+03
4.609052e+02,9.313881e+03
4.637979e+02,9.313401e+03
4.666906e+02,9.342522e+03
4.695833e+02,9.334808e+03
4.724760e+02,9.346229e+03
4.753687e+02,9.359425e+03
4.782614e+02,9.337121e+03
4.811541e+02,9.368710e+03
4.840468e+02,9.369083e+03
4.869395e+02,9.364738e+03
4.898322e+02,9.382286e+03
4.927249e+02,9.387659e+03
4.956176e+02,9.405215e+03
4.985103e+02,9.417798e+03
5.014030e+02,9.412361e+03
5.042957e+02,9.409286e+03
5.071884e+02,9.423051e+03
5.100811e+02,9.407936e+03
5.129738e+02,9.403998e+03
5.158665e+02,9.426563e+03
5.187592e+02,9.459735e+03
5.216519e+02,9.430198e+03
5.245446e+02,9.451963e+03
5.274373e+02,9.479366e+03
5.303300e+02,9.481537e+03
5.332227e+02,9.474668e+03
5.361154e+02,9.506428e+03
5.390081e+02,9.535701e+03
5.419008e+02,9.579928e+03
5.447935e+02,9.577796e+03
5.476862e+02,9.606849e+03
5.505789e+02,9.576108e+03
5.534716e+02,9.570907e+03
5.563643e+02,9.615715e+03
5.592570e+02,9.640596e+03
5.621497e+02,9.623814e+03
5.650424e+02,9.533516e+03
5.679351e+02,9.481376e+03
5.708278e+02,9.448022e+03
5.737205e+02,9.479723e+03
5.766132e+02,9.463545e+03
5.795059e+02,9.465296e+03
5.823986e+02,9.463493e+03
5.852913e+02,9.418524e+03
5.881840e+02,9.437438e+03
5.910767e+02,9.474330e+03
5.939694e+02,9.510932e+03
5.968621e+02,9.547299e+03
5.997548e+02,9.465343e+03
6.026475e+02,9.496175e+03
6.055402e+02,9.504080e+03
6.084329e+02,9.555354e+03
6.113256e+02,9.557035e+03
6.142183e+02,9.495324e+03
6.171110e+02,9.443593e+03
6.200037e+02,9.438660e+03
6.228964e+02,9.426174e+03
6.257891e+02,9.439350e+03
6.286818e+02,9.415774e+03
6.315745e+02,9.405440e+03
6.344672e+02,9.419137e+03
6.373599e+02,9.409785e+03
6.402526e+02,9.387119e+03
6.431453e+02,9.352833e+03
6.460380e+02,9.345031e+03
6.489307e+02,9.349841e+03
6.518234e+02,9.350777e+03
6.547161e+02,9.347610e+03
6.576088e+02,9.335269e+03
6.605015e+02,9.307446e+03
6.633942e+02,9.284774e+03
6.662869e+02,9.321730e+03
6.691796e+02,9.337981e+03
6.720723e+02,9.324728e+03
6.749650e+02,9.294146e+03
6.778577e+02,9.252391e+03
6.807504e+02,9.269973e+03
6.836431e+02,9.250416e+03
6.865358e+02,9.276519e+03
6.894285e+02,9.207373e+03
6.923212e+02,9.203501e+03
6.952139e+02,9.168733e+03
6.981066e+02,9.211221e+03
7.009993e+02,9.188849e+03
7.038920e+02,9.138274e+03
7.067847e+02,9.144743e+03
7.096774e+02,9.137255e+03
7.125701e+02,9.158611e+03
7.154628e+02,9.167802e+03
7.183555e+02,9.121937e+03
7.212482e+02,9.080955e+03
7.241409e+02,9.090031e+03
7.270336e+02,9.047922e+03
7.299263e+02,9.042372e+03
7.328190e+02,9.010978e+03
7.357117e+02,9.049624e+03
7.386044e+02,9.010244e+03
7.414971e+02,8.974329e+03
7.443898e+02,8.977681e+03
7.472825e+02,9.010246e+03
7.501752e+02,8.942369e+03
7.530679e+02,8.935656e+03
7.559606e+02,8.955409e+03
7.588533e+02,8.966806e+03
7.617460e+02,8.955669e+03
7.646387e+02,8.927626e+03
7.675314e+02,8.904792e+03
7.704241e+02,8.892905e+03
7.733168e+02,8.886052e+03
7.762095e+02,8.900278e+03
7.791022e+02,8.875715e+03
7.819949e+02,8.885690e+03
7.848876e+02,8.876457e+03
7.877803e+02,8.861004e+03
7.906730e+02,8.819729e+03
7.935657e+02,8.838229e+03
7.964584e+02,8.750763e+03
7.993511e+02,8.732167e+03
8.022438e+02,8.731655e+03
8.051365e+02,8.744655e+03
8.080292e+02,8.696930e+03
8.109219e+02,8.715535e+03
8.138146e+02,8.715376e+03
8.167073e+02,8.628504e+03
8.196000e+02,8.630494e+03
8.224927e+02,8.636377e+03
8.253854e+02,8.651229e+03
8.282781e+02,8.592447e+03
8.311708e+02,8.587976e+03
8.340635e+02,8.598641e+03
8.369562e+02,8.586143e+03
8.398489e+02,8.567146e+03
8.427416e+02,8.561901e+03
8.456343e+02,8.480394e+03
8.485270e+02,8.494202e+03
8.514197e+02,8.474731e+03
8.543124e+02,8.474288e+03
8.572051e+02,8.472402e+03
8.600978e+02,8.426787e+03
8.629905e+02,8.422447e+03
8.658832e+02,8.424335e+03
8.687759e+02,8.397443e+03
8.716686e+02,8.379207e+03
8.745613e+02,8.385830e+03
8.774540e+02,8.355588e+03
8.803467e+02,8.337678e+03
8.832394e+02,8.336709e+03
8.861321e+02,8.312848e+03
8.890248e+02,8.300204e+03
8.919175e+02,8.257749e+03
8.948102e+02,8.252619e+03
8.977029e+02,8.240649e+03
9.005956e+02,8.228763e+03
9.034883e+02,8.224193e+03
9.063810e+02,8.180665e+03
9.092737e+02,8.149165e+03
9.121664e+02,8.135771e+03
9.150591e+02,8.111267e+03
9.179518e+02,8.123619e+03
9.208445e+02,8.080157e+03
9.237372e+02,8.060779e+03
9.266299e+02,8.016347e+03
9.295226e+02,8.049339e+03
9.324153e+02,8.033357e+03
9.353080e+02,8.020481e+03
9.382007e+02,7.967419e+03
9.410934e+02,7.932844e+03
9.439861e+02,7.905938e+03
9.468788e+02,7.931173e+03
9.497715e+02,7.924577e+03
9.526642e+02,7.894901e+03
9.555569e+02,7.830257e+03
9.584496e+02,7.841412e+03
9.613423e+02,7.841260e+03
9.642350e+02,7.834719e+03
9.671277e+02,7.784532e+03
9.700204e+02,7.793226e+03
9.729131e+02,7.748919e+03
9.758058e+02,7.737448e+03
9.786985e+02,7.753073e+03
9.815912e+02,7.693800e+03
9.844839e+02,7.675036e+03
9.873766e+02,7.638490e+03
9.902693e+02,7.632041e+03
9.931620e+02,7.659013e+03
9.960547e+02,7.631920e+03
9.989474e+02,7.600992e+03
1.001840e+03,7.529373e+03
1.004733e+03,7.549573e+03
1.007626e+03,7.542644e+03
1.010518e+03,7.529542e+03
1.013411e+03,7.509225e+03
1.016304e+03,7.487278e+03
1.019196e+03,7.472572e+03
1.022089e+03,7.457292e+03
1.024982e+03,7.455549e+03
1.027875e+03,7.443806e+03
1.030767e+03,7.411507e+03
1.033660e+03,7.397904e+03
1.036552e+03,7.371993e+03
1.039445e+03,7.373821e+03
1.042338e+03,7.345390e+03
1.045231e+03,7.353015e+03
1.048123e+03,7.299839e+03
1.051016e+03,7.312078e+03
1.053909e+03,7.315827e+03
1.056802e+03,7.282920e+03
1.059694e+03,7.245756e+03
1.062587e+03,7.258584e+03
1.065479e+03,7.225873e+03
1.068372e+03,7.225239e+03
1.071265e+03,7.220188e+03
1.074158e+03,7.241974e+03
1.077050e+03,7.205877e+03
1.079943e+03,7.184423e+03
1.082836e+03,7.194542e+03
1.085729e+03,7.194950e+03
1.088621e+03,7.178658e+03
1.091514e+03,7.135616e+03
1.094406e+03,7.078312e+03
1.097299e+03,7.065844e+03
1.100192e+03,7.054084e+03
1.103085e+03,7.026511e+03
1.105977e+03,7.013408e+03
1.108870e+03,6.989721e+03
1.111763e+03,6.988133e+03
1.114656e+03,6.965560e+03
1.117548e+03,6.971577e+03
1.120441e+03,6.942619e+03
1.123334e+03,6.920556e+03
1.126226e+03,6.874488e+03
1.129119e+03,6.871479e+03
1.132012e+03,6.874388e+03
1.134904e+03,6.862222e+03
1.137797e+03,6.829259e+03
1.140690e+03,6.834468e+03
1.143583e+03,6.796326e+03
1.146475e+03,6.785155e+03
1.149368e+03,6.781124e+03
1.152261e+03,6.749390e+03
1.155153e+03,6.701409e+03
1.158046e+03,6.697844e+03
1.160939e+03,6.689570e+03
1.163831e+03,6.691418e+03
1.166724e+03,6.659591e+03
1.169617e+03,6.653958e+03
1.172510e+03,6.619877e+03
1.175402e+03,6.597861e+03
1.178295e+03,6.599680e+03
1.181188e+03,6.597405e+03
1.184080e+03,6.580497e+03
1.186973e+03,6.556218e+03
1.189866e+03,6.554764e+03
1.192758e+03,6.524740e+03
1.195651e+03,6.534191e+03
1.198544e+03,6.522608e+03
1.201437e+03,6.497169e+03
1.204329e+03,6.459463e+03
1.207222e+03,6.447497e+03
1.210115e+03,6.452335e+03
1.213007e+03,6.465208e+03
1.215900e+03,6.433179e+03
1.218793e+03,6.424188e+03
1.221685e+03,6.427447e+03
1.224578e+03,6.443109e+03
1.227471e+03,6.395059e+03
1.230364e+03,6.391458e+03
1.233256e+03,6.333131e+03
1.236149e+03,6.328889e+03
1.239042e+03,6.306225e+03
1.241934e+03,6.315240e+03
1.244827e+03,6.291978e+03
1.247720e+03,6.282710e+03
1.250612e+03,6.249736e+03
1.253505e+03,6.229078e+03
1.256398e+03,6.241331e+03
1.259291e+03,6.215854e+03
1.262183e+03,6.182228e+03
1.265076e+03,6.163311e+03
1.267969e+03,6.162635e+03
1.270861e+03,6.141261e+03
1.273754e+03,6.137813e+03
1.276647e+03,6.119343e+03
1.279539e+03,6.081850e+03
1.282432e+03,6.072869e+03
1.285325e+03,6.084386e+03
1.288218e+03,6.088830e+03
1.291110e+03,6.061892e+03
1.294003e+03,6.048178e+03
1.296896e+03,5.984858e+03
1.299788e+03,6.022766e+03
1.302681e+03,5.979524e+03
1.305574e+03,5.990299e+03
1.308466e+03,6.004899e+03
1.311359e+03,5.979142e+03
1.314252e+03,5.935492e+03
1.317145e+03,5.919911e+03
1.320037e+03,5.934467e+03
1.322930e+03,5.929377e+03
1.325823e+03,5.899447e+03
1.328715e+03,5.884526e+03
1.331608e+03,5.889999e+03
1.334501e+03,5.883281e+03
1.337393e+03,5.870278e+03
1.340286e+03,5.829377e+03
1.343179e+03,5.814915e+03
1.346072e+03,5.830274e+03
1.348964e+03,5.834445e+03
1.351857e+03,5.785203e+03
1.354750e+03,5.799972e+03
1.357642e+03,5.799716e+03
1.360535e+03,5.791219e+03
1.363428e+03,5.766149e+03
1.366320e+03,5.795223e+03
1.369213e+03,5.741747e+03
1.372106e+03,5.712088e+03
1.374999e+03,5.690314e+03
1.377891e+03,5.673475e+03
1.380784e+03,5.672555e+03
1.383677e+03,5.678170e+03
1.386569e+03,5.655023e+03
1.389462e+03,5.621356e+03
1.392355e+03,5.625781e+03
1.395247e+03,5.610347e+03
1.398140e+03,5.604641e+03
1.401033e+03,5.593038e+03
1.403926e+03,5.579877e+03
1.406818e+03,5.582250e+03
1.409711e+03,5.553961e+03
1.412604e+03,5.563078e+03
1.415496e+03,5.545688e+03
1.418389e+03,5.514098e+03
1.421282e+03,5.515129e+03
1.424174e+03,5.498820e+03
1.427067e+03,5.511688e+03
1.429960e+03,5.503496e+03
1.432853e+03,5.460554e+03
1.435745e+03,5.468276e+03
1.438638e+03,5.450359e+03
1.441531e+03,5.440680e+03
1.444423e+03,5.437375e+03
1.447316e+03,5.452167e+03
1.450209e+03,5.457279e+03
1.453101e+03,5.440735e+03
1.455994e+03,5.434605e+03
1.458887e+03,5.426277e+03
1.461780e+03,5.408440e+03
1.464672e+03,5.392999e+03
1.467565e+03,5.358101e+03
1.470458e+03,5.347027e+03
1.473350e+03,5.358396e+03
1.476243e+03,5.324319e+03
1.479136e+03,5.337238e+03
1.482028e+03,5.302629e+03
1.484921e+03,5.306073e+03
1.487814e+03,5.305907e+03
1.490707e+03,5.284092e+03
1.493599e+03,5.285120e+03
1.496492e+03,5.249977e+03
1.499385e+03,5.223802e+03
1.502277e+03,5.241514e+03
1.505170e+03,5.247133e+03
1.508063e+03,5.246337e+03
1.510955e+03,5.234602e+03
1.513848e+03,5.208802e+03
1.516741e+03,5.202851e+03
1.519634e+03,5.196576e+03
1.522526e+03,5.180495e+03
1.525419e+03,5.157639e+03
1.528312e+03,5.144337e+03
1.531204e+03,5.116854e+03
1.534097e+03,5.127318e+03
1.536990e+03,5.103878e+03
1.539882e+03,5.092926e+03
1.542775e+03,5.098300e+03
1.545668e+03,5.048456e+03
1.548561e+03,5.055765e+03
1.551453e+03,5.070408e+03
1.554346e+03,5.050376e+03
1.557239e+03,5.062536e+03
1.560131e+03,5.084897e+03
1.563024e+03,5.100372e+03
1.565917e+03,5.177678e+03
1.568809e+03,5.268026e+03
1.571702e+03,5.274953e+03
1.574595e+03,5.172071e+03
1.577488e+03,5.120054e+03
1.580380e+03,5.108465e+03
1.583273e+03,5.097842e+03
1.586166e+03,5.040790e+03
1.589058e+03,4.989466e+03
1.591951e+03,4.934481e+03
1.594844e+03,4.904576e+03
1.597736e+03,4.922162e+03
1.600629e+03,4.901357e+03
1.603522e+03,4.917155e+03
1.606415e+03,4.893298e+03
1.609307e+03,4.850500e+03
1.612200e+03,4.854417e+03
1.615093e+03,4.854844e+03
1.617985e+03,4.838533e+03
1.620878e+03,4.852337e+03
1.623771e+03,4.829110e+03
1.626663e+03,4.821542e+03
1.629556e+03,4.836343e+03
1.632449e+03,4.830423e+03
1.635342e+03,4.757523e+03
1.638234e+03,4.749383e+03
1.641127e+03,4.726334e+03
1.644020e+03,4.721640e+03
1.646912e+03,4.700261e+03
1.649805e+03,4.690268e+03
1.652698e+03,4.677438e+03
1.655590e+03,4.664192e+03
1.658483e+03,4.646082e+03
1.661376e+03,4.647395e+03
1.664269e+03,4.640275e+03
1.667161e+03,4.629724e+03
1.670054e+03,4.637549e+03
1.672947e+03,4.640496e+03
1.675839e+03,4.634780e+03
1.678732e+03,4.598137e+03
1.681625e+03,4.591043e+03
1.684517e+03,4.562764e+03
1.687410e+03,4.556054e+03
1.690303e+03,4.558601e+03
1.693196e+03,4.552657e+03
1.696088e+03,4.559533e+03
1.698981e+03,4.529724e+03
1.701874e+03,4.511042e+03
1.704766e+03,4.493932e+03
1.707659e+03,4.504103e+03
1.710552e+03,4.480731e+03
1.713444e+03,4.468467e+03
1.716337e+03,4.434298e+03
1.719230e+03,4.451875e+03
1.722123e+03,4.425177e+03
1.725015e+03,4.410610e+03
1.727908e+03,4.409520e+03
1.730801e+03,4.401521e+03
1.733693e+03,4.392649e+03
1.736586e+03,4.381743e+03
1.739479e+03,4.383384e+03
1.742371e+03,4.385456e+03
1.745264e+03,4.347119e+03
1.748157e+03,4.336171e+03
1.751050e+03,4.317212e+03
1.753942e+03,4.333876e+03
1.756835e+03,4.316234e+03
1.759728e+03,4.289640e+03
1.762620e+03,4.283528e+03
1.765513e+03,4.249296e+03
1.768406e+03,4.246161e+03
1.771298e+03,4.254156e+03
1.774191e+03,4.241888e+03
1.777084e+03,4.210427e+03
1.779977e+03,4.205687e+03
1.782869e+03,4.199171e+03
1.785762e+03,4.189833e+03
1.788655e+03,4.159453e+03
1.791547e+03,4.147174e+03
1.794440e+03,4.166808e+03
1.797333e+03,4.147353e+03
1.800225e+03,4.147603e+03
1.803118e+03,4.119846e+03
1.806011e+03,4.116973e+03
1.808904e+03,4.121813e+03
1.811796e+03,4.099579e+03
1.814689e+03,4.109566e+03
1.817582e+03,4.071892e+03
1.820474e+03,4.090298e+03
1.823367e+03,4.053113e+03
1.826260e+03,4.041461e+03
1.829152e+03,4.050380e+03
1.832045e+03,4.030227e+03
1.834938e+03,4.022510e+03
1.837831e+03,4.021366e+03
1.840723e+03,3.984478e+03
1.843616e+03,3.989615e+03
1.846509e+03,3.999000e+03
1.849401e+03,3.971251e+03
1.852294e+03,3.946410e+03
1.855187e+03,3.942805e+03
1.858079e+03,3.932591e+03
1.860972e+03,3.922531e+03
1.863865e+03,3.929601e+03
1.866758e+03,3.897678e+03
1.869650e+03,3.914236e+03
1.872543e+03,3.893980e+03
1.875436e+03,3.870732e+03
1.878328e+03,3.880896e+03
1.881221e+03,3.858631e+03
1.884114e+03,3.837685e+03
1.887006e+03,3.818612e+03
1.889899e+03,3.821175e+03
1.892792e+03,3.818450e+03
1.895685e+03,3.797833e+03
1.898577e+03,3.800019e+03
1.901470e+03,3.777986e+03
1.904363e+03,3.756680e+03
1.907255e+03,3.775148e+03
1.910148e+03,3.750150e+03
1.913041e+03,3.737141e+03
1.915933e+03,3.715737e+03
1.918826e+03,3.700512e+03
1.921719e+03,3.712631e+03
1.924612e+03,3.681810e+03
1.927504e+03,3.673553e+03
1.930397e+03,3.691809e+03
1.933290e+03,3.664432e+03
1.936182e+03,3.668403e+03
1.939075e+03,3.653155e+03
1.941968e+03,3.630023e+03
1.944860e+03,3.633930e+03
1.947753e+03,3.594651e+03
1.950646e+03,3.581833e+03
1.953539e+03,3.630053e+03
1.956431e+03,3.622646e+03
1.959324e+03,3.582405e+03
1.962217e+03,3.551202e+03
1.965109e+03,3.572011e+03
1.968002e+03,3.567395e+03
1.970895e+03,3.533193e+03
1.973787e+03,3.516102e+03
1.976680e+03,3.512921e+03
1.979573e+03,3.490510e+03
1.982466e+03,3.493299e+03
1.985358e+03,3.466448e+03
1.988251e+03,3.470073e+03
1.991144e+03,3.462519e+03
1.994036e+03,3.446756e+03
1.996929e+03,3.426320e+03
1.999822e+03,3.426811e+03
2.002714e+03,3.399128e+03
2.005607e+03,3.395444e+03
2.008500e+03,3.385077e+03
2.011393e+03,3.382872e+03
2.014285e+03,3.373222e+03
2.017178e+03,3.379837e+03
2.020071e+03,3.341147e+03
2.022963e+03,3.340491e+03
2.025856e+03,3.329370e+03
2.028749e+03,3.315360e+03
2.031641e+03,3.307888e+03
2.034534e+03,3.300355e+03
2.037427e+03,3.288564e+03
2.040320e+03,3.269019e+03
2.043212e+03,3.270721e+03
2.046105e+03,3.247861e+03
2.048998e+03,3.242417e+03
2.051890e+03,3.229195e+03
2.054783e+03,3.202697e+03
2.057676e+03,3.215597e+03
2.060568e+03,3.228368e+03
2.063461e+03,3.204072e+03
2.066354e+03,3.171753e+03
2.069247e+03,3.162915e+03
2.072139e+03,3.180500e+03
2.075032e+03,3.153291e+03
2.077925e+03,3.164094e+03
2.080817e+03,3.128623e+03
2.083710e+03,3.110222e+03
2.086603e+03,3.107327e+03
2.089496e+03,3.124042e+03
2.092388e+03,3.090399e+03
2.095281e+03,3.086785e+03
2.098174e+03,3.115466e+03
2.101066e+03,3.069971e+03
2.103959e+03,3.037492e+03
2.106852e+03,3.047320e+03
2.109744e+03,3.061522e+03
2.112637e+03,3.040226e+03
2.115530e+03,3.013455e+03
2.118422e+03,3.009721e+03
2.121315e+03,3.036085e+03
2.124208e+03,3.008352e+03
2.127101e+03,2.948896e+03
2.129993e+03,2.963255e+03
2.132886e+03,2.968375e+03
2.135779e+03,2.954691e+03
2.138671e+03,2.960835e+03
2.141564e+03,2.926252e+03
2.144457e+03,2.917896e+03
2.147350e+03,2.892878e+03
2.150242e+03,2.911368e+03
2.153135e+03,2.893188e+03
2.156028e+03,2.909984e+03
2.158920e+03,2.880072e+03
2.161813e+03,2.878574e+03
2.164706e+03,2.871236e+03
2.167598e+03,2.860399e+03
2.170491e+03,2.860023e+03
2.173384e+03,2.834117e+03
2.176277e+03,2.827275e+03
2.179169e+03,2.810136e+03
2.182062e+03,2.824058e+03
2.184955e+03,2.799708e+03
2.187847e+03,2.816570e+03
2.190740e+03,2.779171e+03
2.193633e+03,2.766721e+03
2.196525e+03,2.772438e+03
2.199418e+03,2.763986e+03
2.202311e+03,2.754351e+03
2.205204e+03,2.774093e+03
2.208096e+03,2.733780e+03
2.210989e+03,2.712153e+03
2.213882e+03,2.700366e+03
2.216774e+03,2.746177e+03
2.219667e+03,2.716047e+03
2.222560e+03,2.692483e+03
2.225452e+03,2.656173e+03
2.228345e+03,2.659318e+03
2.231238e+03,2.686061e+03
2.234131e+03,2.659101e+03
2.237023e+03,2.650092e+03
2.239916e+03,2.630297e+03
2.242809e+03,2.625567e+03
2.245701e+03,2.602819e+03
2.248594e+03,2.597000e+03
2.251487e+03,2.594204e+03
2.254379e+03,2.601666e+03
2.257272e+03,2.572998e+03
2.260165e+03,2.546987e+03
2.263058e+03,2.569047e+03
2.265950e+03,2.533242e+03
2.268843e+03,2.539933e+03
2.271736e+03,2.506486e+03
2.274628e+03,2.521702e+03
2.277521e+03,2.509576e+03
2.280414e+03,2.498611e+03
2.283306e+03,2.495021e+03
2.286199e+03,2.464615e+03
2.289092e+03,2.494192e+03
2.291985e+03,2.458450e+03
2.294877e+03,2.433435e+03
2.297770e+03,2.461628e+03
2.300663e+03,2.444102e+03
2.303555e+03,2.444405e+03
2.306448e+03,2.414355e+03
2.309341e+03,2.438089e+03
2.312233e+03,2.402265e+03
2.315126e+03,2.407108e+03
2.318019e+03,2.387161e+03
2.320912e+03,2.390009e+03
2.323804e+03,2.397309e+03
2.326697e+03,2.388242e+03
2.329590e+03,2.386833e+03
2.332482e+03,2.361619e+03
2.335375e+03,2.341656e+03
2.338268e+03,2.346422e+03
2.341160e+03,2.324175e+03
2.344053e+03,2.337941e+03
2.346946e+03,2.331120e+03
2.349839e+03,2.313663e+03
2.352731e+03,2.318145e+03
2.355624e+03,2.318386e+03
2.358517e+03,2.289850e+03
2.361409e+03,2.288056e+03
2.364302e+03,2.271058e+03
2.367195e+03,2.284956e+03
2.370087e+03,2.269313e+03
2.372980e+03,2.259224e+03
2.375873e+03,2.267165e+03
2.378766e+03,2.243774e+03
2.381658e+03,2.238807e+03
2.384551e+03,2.241069e+03
2.387444e+03,2.217586e+03
2.390336e+03,2.202604e+03
2.393229e+03,2.224653e+03
2.396122e+03,2.195370e+03
2.399014e+03,2.202677e+03
2.401907e+03,2.202623e+03
2.404800e+03,2.183060e+03
2.407693e+03,2.174974e+03
2.410585e+03,2.167254e+03
2.413478e+03,2.160796e+03
2.416371e+03,2.149845e+03
2.419263e+03,2.153754e+03
2.422156e+03,2.114833e+03
2.425049e+03,2.127402e+03
2.427941e+03,2.119181e+03
2.430834e+03,2.134175e+03
2.433727e+03,2.123949e+03
2.436620e+03,2.111056e+03
2.439512e+03,2.099484e+03
2.442405e+03,2.100502e+03
2.445298e+03,2.088235e+03
2.448190e+03,2.082839e+03
2.451083e+03,2.058752e+03
2.453976e+03,2.067521e+03
2.456868e+03,2.046178e+03
2.459761e+03,2.081213e+03
2.462654e+03,2.046430e+03
2.465547e+03,2.038666e+03
2.468439e+03,2.017805e+03
2.471332e+03,2.028800e+03
2.474225e+03,2.016499e+03
2.477117e+03,2.008882e+03
2.480010e+03,2.037067e+03
2.482903e+03,1.987501e+03
2.485795e+03,1.997140e+03
2.488688e+03,1.982326e+03
2.491581e+03,2.002611e+03
2.494474e+03,1.979755e+03
2.497366e+03,1.955212e+03
2.500259e+03,1.979605e+03
2.503152e+03,1.965032e+03
2.506044e+03,1.946292e+03
2.508937e+03,1.953443e+03
2.511830e+03,1.939550e+03
2.514722e+03,1.929745e+03
2.517615e+03,1.919833e+03
2.520508e+03,1.913392e+03
2.523401e+03,1.903570e+03
2.526293e+03,1.910282e+03
2.529186e+03,1.901479e+03
2.532079e+03,1.895727e+03
2.534971e+03,1.895050e+03
2.537864e+03,1.891667e+03
2.540757e+03,1.856743e+03
2.543649e+03,1.863266e+03
2.546542e+03,1.886675e+03
2.549435e+03,1.887979e+03
2.552328e+03,1.851863e+03
2.555220e+03,1.850917e+03
2.558113e+03,1.826245e+03
2.561006e+03,1.843076e+03
2.563898e+03,1.845418e+03
2.566791e+03,1.833883e+03
2.569684e+03,1.814337e+03
2.572576e+03,1.834309e+03
2.575469e+03,1.811702e+03
2.578362e+03,1.805921e+03
2.581255e+03,1.816791e+03
2.584147e+03,1.796259e+03
2.587040e+03,1.779647e+03
2.589933e+03,1.790120e+03
2.592825e+03,1.795199e+03
2.595718e+03,1.787640e+03
2.598611e+03,1.746356e+03
2.601503e+03,1.759698e+03
2.604396e+03,1.761581e+03
2.607289e+03,1.754352e+03
2.610182e+03,1.756657e+03
2.613074e+03,1.737302e+03
2.615967e+03,1.745237e+03
2.618860e+03,1.712680e+03
2.621752e+03,1.737337e+03
2.624645e+03,1.719418e+03
2.627538e+03,1.726379e+03
2.630430e+03,1.692677e+03
2.633323e+03,1.700494e+03
2.636216e+03,1.722436e+03
2.639109e+03,1.718147e+03
2.642001e+03,1.675654e+03
2.644894e+03,1.676743e+03
2.647787e+03,1.676689e+03
2.650679e+03,1.684764e+03
2.653572e+03,1.679846e+03
2.656465e+03,1.661502e+03
2.659357e+03,1.641477e+03
2.662250e+03,1.643484e+03
2.665143e+03,1.670140e+03
2.668036e+03,1.657961e+03
2.670928e+03,1.636291e+03
2.673821e+03,1.641326e+03
2.676714e+03,1.602391e+03
2.679606e+03,1.632908e+03
2.682499e+03,1.616838e+03
2.685392e+03,1.621443e+03
2.688284e+03,1.600998e+03
2.691177e+03,1.625354e+03
2.694070e+03,1.609951e+03
2.696963e+03,1.596104e+03
2.699855e+03,1.607119e+03
2.702748e+03,1.624684e+03
2.705641e+03,1.567209e+03
2.708533e+03,1.585604e+03
2.711426e+03,1.583793e+03
2.714319e+03,1.569853e+03
2.717211e+03,1.570277e+03
2.720104e+03,1.565615e+03
2.722997e+03,1.564659e+03
2.725890e+03,1.558163e+03
2.728782e+03,1.545818e+03
2.731675e+03,1.537986e+03
2.734568e+03,1.544417e+03
2.737460e+03,1.518838e+03
2.740353e+03,1.536150e+03
2.743246e+03,1.541528e+03
2.746138e+03,1.525133e+03
2.749031e+03,1.517301e+03
2.751924e+03,1.530450e+03
2.754817e+03,1.507658e+03
2.757709e+03,1.526767e+03
2.760602e+03,1.492556e+03
2.763495e+03,1.490367e+03
2.766387e+03,1.488064e+03
2.769280e+03,1.486286e+03
2.772173e+03,1.458069e+03
2.775065e+03,1.468522e+03
2.777958e+03,1.479716e+03
2.780851e+03,1.453714e+03
2.783744e+03,1.485250e+03
2.786636e+03,1.449367e+03
2.789529e+03,1.445443e+03
2.792422e+03,1.463786e+03
2.795314e+03,1.452925e+03
2.798207e+03,1.441471e+03
2.801100e+03,1.441690e+03
2.803992e+03,1.445584e+03
2.806885e+03,1.434576e+03
2.809778e+03,1.410628e+03
2.812671e+03,1.435905e+03
2.815563e+03,1.442668e+03
2.818456e+03,1.405233e+03
2.821349e+03,1.421496e+03
2.824241e+03,1.439098e+03
2.827134e+03,1.401672e+03
2.830027e+03,1.414644e+03
2.832919e+03,1.386201e+03
2.835812e+03,1.413595e+03
2.838705e+03,1.408823e+03
2.841598e+03,1.382449e+03
2.844490e+03,1.397096e+03
2.847383e+03,1.369041e+03
2.850276e+03,1.384165e+03
2.853168e+03,1.399966e+03
2.856061e+03,1.395494e+03
2.858954e+03,1.395468e+03
2.861846e+03,1.358218e+03
2.864739e+03,1.362626e+03
2.867632e+03,1.397860e+03
2.870525e+03,1.391407e+03
2.873417e+03,1.374004e+03
2.876310e+03,1.356795e+03
2.879203e+03,1.353589e+03
2.882095e+03,1.362545e+03
2.884988e+03,1.380979e+03
2.887881e+03,1.361669e+03
2.890773e+03,1.353952e+03
2.893666e+03,1.342404e+03
2.896559e+03,1.338184e+03
2.899452e+03,1.358746e+03
2.902344e+03,1.340296e+03
2.905237e+03,1.320277e+03
2.908130e+03,1.358700e+03
2.911022e+03,1.323309e+03
2.913915e+03,1.316886e+03
2.916808e+03,1.331437e+03
2.919700e+03,1.308172e+03
2.922593e+03,1.315809e+03
2.925486e+03,1.303766e+03
2.928379e+03,1.304499e+03
2.931271e+03,1.307692e+03
2.934164e+03,1.302202e+03
2.937057e+03,1.276713e+03
2.939949e+03,1.284075e+03
2.942842e+03,1.298685e+03
2.945735e+03,1.283944e+03
2.948627e+03,1.274248e+03
2.951520e+03,1.276244e+03
2.954413e+03,1.270730e+03
2.957306e+03,1.319763e+03
2.960198e+03,1.255482e+03
2.963091e+03,1.299638e+03
2.965984e+03,1.239487e+03
2.968876e+03,1.247833e+03
2.971769e+03,1.235339e+03
2.974662e+03,1.236097e+03
2.977554e+03,1.252505e+03
2.980447e+03,1.240464e+03
2.983340e+03,1.233568e+03
2.986233e+03,1.296651e+03
2.989125e+03,1.247688e+03
2.992018e+03,1.260599e+03
2.994911e+03,1.230369e+03
2.997803e+03,1.236260e+03
3.000696e+03,1.246090e+03
3.003589e+03,1.232764e+03
3.006481e+03,1.215940e+03
3.009374e+03,1.202414e+03
3.012267e+03,1.192600e+03
3.015160e+03,1.213131e+03
3.018052e+03,1.179957e+03
3.020945e+03,1.224829e+03
3.023838e+03,1.207844e+03
3.026730e+03,1.176280e+03
3.029623e+03,1.219774e+03
3.032516e+03,1.194732e+03
3.035408e+03,1.195168e+03
3.038301e+03,1.188158e+03
3.041194e+03,1.201015e+03
3.044087e+03,1.226091e+03
3.046979e+03,1.174082e+03
3.049872e+03,1.186572e+03
3.052765e+03,1.191104e+03
3.055657e+03,1.201699e+03
3.058550e+03,1.172417e+03
3.061443e+03,1.179093e+03
3.064335e+03,1.202601e+03
3.067228e+03,1.192203e+03
3.070121e+03,1.160600e+03
3.073014e+03,1.175906e+03
3.075906e+03,1.165063e+03
3.078799e+03,1.159629e+03
3.081692e+03,1.169022e+03
3.084584e+03,1.168613e+03
3.087477e+03,1.195968e+03
3.090370e+03,1.198154e+03
3.093262e+03,1.210100e+03
3.096155e+03,1.156944e+03
3.099048e+03,1.140134e+03
3.101941e+03,1.212893e+03
3.104833e+03,1.152508e+03
3.107726e+03,1.134319e+03
3.110619e+03,1.192333e+03
3.113511e+03,1.193626e+03
3.116404e+03,1.165475e+03
3.119297e+03,1.182056e+03
3.122189e+03,1.144843e+03
3.125082e+03,1.191653e+03
3.127975e+03,1.163887e+03
3.130868e+03,1.159069e+03
3.133760e+03,1.209906e+03
3.136653e+03,1.193267e+03
3.139546e+03,1.205844e+03
3.142438e+03,1.186897e+03
3.145331e+03,1.174527e+03
3.148224e+03,1.181076e+03
3.151116e+03,1.164294e+03
3.154009e+03,1.151842e+03
3.156902e+03,1.183793e+03
3.159795e+03,1.197055e+03
3.162687e+03,1.168501e+03
3.165580e+03,1.201469e+03
3.168473e+03,1.151697e+03
3.171365e+03,1.163218e+03
3.174258e+03,1.139032e+03
3.177151e+03,1.158738e+03
3.180043e+03,1.190256e+03
3.182936e+03,1.182622e+03
3.185829e+03,1.234805e+03
3.188722e+03,1.197443e+03
3.191614e+03,1.203172e+03
3.194507e+03,1.155535e+03
3.197400e+03,1.201377e+03
3.200292e+03,1.223182e+03
3.203185e+03,0.000000e+00
3.206078e+03,0.000000e+00
3.208970e+03,0.000000e+00
3.211863e+03,0.000000e+00
3.214756e+03,0.000000e+00
3.217649e+03,0.000000e+00
3.220541e+03,0.000000e+00
3.223434e+03,0.000000e+00
3.226327e+03,0.000000e+00
3.229219e+03,0.000000e+00
3.232112e+03,0.000000e+00
3.235005e+03,0.000000e+00
3.237897e+03,0.000000e+00
3.240790e+03,0.000000e+00
3.243683e+03,0.000000e+00
3.246576e+03,0.000000e+00
3.249468e+03,0.000000e+00
3.252361e+03,0.000000e+00
3.255254e+03,0.000000e+00
3.258146e+03,0.000000e+00
3.261039e+03,0.000000e+00
3.263932e+03,0.000000e+00
3.266824e+03,0.000000e+00
3.269717e+03,0.000000e+00
3.272610e+03,0.000000e+00
3.275503e+03,0.000000e+00
3.278395e+03,0.000000e+00
3.281288e+03,0.000000e+00
3.284181e+03,0.000000e+00
3.287073e+03,0.000000e+00
3.289966e+03,0.000000e+00
3.292859e+03,0.000000e+00
3.295751e+03,0.000000e+00
3.298644e+03,0.000000e+00
3.301537e+03,0.000000e+00
3.304430e+03,0.000000e+00
3.307322e+03,0.000000e+00
3.310215e+03,0.000000e+00
3.313108e+03,0.000000e+00
3.316000e+03,0.000000e+00
3.318893e+03,0.000000e+00
3.321786e+03,0.000000e+00
3.324678e+03,0.000000e+00
3.327571e+03,0.000000e+00
3.330464e+03,0.000000e+00
3.333357e+03,0.000000e+00
3.336249e+03,0.000000e+00
3.339142e+03,0.000000e+00
3.342035e+03,0.000000e+00
3.344927e+03,0.000000e+00
3.347820e+03,0.000000e+00
3.350713e+03,0.000000e+00
3.353605e+03,0.000000e+00
3.356498e+03,0.000000e+00
3.359391e+03,0.000000e+00
3.362284e+03,0.000000e+00
3.365176e+03,0.000000e+00
3.368069e+03,0.000000e+00
3.370962e+03,0.000000e+00
3.373854e+03,0.000000e+00
3.376747e+03,0.000000e+00
3.379640e+03,0.000000e+00
3.382532e+03,0.000000e+00
3.385425e+03,0.000000e+00
3.388318e+03,0.000000e+00
3.391211e+03,0.000000e+00
3.394103e+03,0.000000e+00
3.396996e+03,0.000000e+00
3.399889e+03,0.000000e+00
3.402781e+03,0.000000e+00
3.405674e+03,0.000000e+00
3.408567e+03,0.000000e+00
3.411459e+03,0.000000e+00
3.414352e+03,0.000000e+00
3.417245e+03,0.000000e+00
3.420138e+03,0.000000e+00
3.423030e+03,0.000000e+00
3.425923e+03,0.000000e+00
3.428816e+03,0.000000e+00
3.431708e+03,0.000000e+00
3.434601e+03,0.000000e+00
3.437494e+03,0.000000e+00
3.440386e+03,0.000000e+00
3.443279e+03,0.000000e+00
3.446172e+03,0.000000e+00
3.449065e+03,0.000000e+00
3.451957e+03,0.000000e+00
3.454850e+03,0.000000e+00
3.457743e+03,0.000000e+00
3.460635e+03,0.000000e+00
3.463528e+03,0.000000e+00
3.466421e+03,0.000000e+00
3.469313e+03,0.000000e+00
3.472206e+03,0.000000e+00
3.475099e+03,0.000000e+00
3.477992e+03,0.000000e+00
3.480884e+03,0.000000e+00
3.483777e+03,0.000000e+00
3.486670e+03,0.000000e+00
3.489563e+03,0.000000e+00
3.492455e+03,0.000000e+00
3.495348e+03,0.000000e+00
3.498240e+03,0.000000e+00
3.500169e+03,0.000000e+00