File: RAMAN_data/23052023_r3/blue fibre37.CSV
9.931763e+01,0.000000e+00
1.022103e+02,0.000000e+00
1.051030e+02,0.000000e+00
1.079957e+02,0.000000e+00
1.108884e+02,0.000000e+00
1.137811e+02,0.000000e+00
1.166738e+02,0.000000e+00
1.195665e+02,0.000000e+00
1.224592e+02,0.000000e+00
1.253519e+02,0.000000e+00
1.282446e+02,0.000000e+00
1.311373e+02,0.000000e+00
1.340300e+02,0.000000e+00
1.369227e+02,0.000000e+00
1.398154e+02,0.000000e+00
1.427081e+02,0.000000e+00
1.456008e+02,0.000000e+00
1.484935e+02,0.000000e+00
1.513862e+02,0.000000e+00
1.542789e+02,0.000000e+00
1.571716e+02,0.000000e+00
1.600643e+02,0.000000e+00
1.629570e+02,0.000000e+00
1.658497e+02,0.000000e+00
1.687424e+02,0.000000e+00
1.716351e+02,0.000000e+00
1.745278e+02,0.000000e+00
1.774205e+02,0.000000e+00
1.803132e+02,0.000000e+00
1.832059e+02,0.000000e+00
1.860986e+02,0.000000e+00
1.889913e+02,0.000000e+00
1.918840e+02,0.000000e+00
1.947767e+02,0.000000e+00
1.976694e+02,0.000000e+00
2.005621e+02,4.097545e+03
2.034548e+02,4.100195e+03
2.063475e+02,4.126231e+03
2.092402e+02,4.145443e+03
2.121329e+02,4.133460e+03
2.150256e+02,4.129869e+03
2.179183e+02,4.164853e+03
2.208110e+02,4.160601e+03
2.237037e+02,4.175519e+03
2.265964e+02,4.180733e+03
2.294892e+02,4.195088e+03
2.323819e+02,4.213715e+03
2.352746e+02,4.226628e+03
2.381673e+02,4.236543e+03
2.410600e+02,4.232364e+03
2.439527e+02,4.250778e+03
2.468454e+02,4.283851e+03
2.497381e+02,4.295287e+03
2.526308e+02,4.295382e+03
2.555235e+02,4.289169e+03
2.584161e+02,4.297903e+03
2.613088e+02,4.307671e+03
2.642015e+02,4.334479e+03
2.670942e+02,4.361467e+03
2.699869e+02,4.364040e+03
2.728796e+02,4.373700e+03
2.757723e+02,4.404713e+03
2.786650e+02,4.419512e+03
2.815577e+02,4.416326e+03
2.844504e+02,4.418196e+03
2.873431e+02,4.413594e+03
2.902358e+02,4.418817e+03
2.931285e+02,4.409967e+03
2.960212e+02,4.407422e+03
2.989139e+02,4.429303e+03
3.018066e+02,4.437100e+03
3.046993e+02,4.426768e+03
3.075920e+02,4.421548e+03
3.104847e+02,4.435296e+03
3.133774e+02,4.436606e+03
3.162701e+02,4.464498e+03
3.191628e+02,4.446440e+03
3.220555e+02,4.467167e+03
3.249482e+02,4.478966e+03
3.278409e+02,4.492029e+03
3.307336e+02,4.481485e+03
3.336263e+02,4.481176e+03
3.365190e+02,4.471070e+03
3.394117e+02,4.493537e+03
3.423044e+02,4.499696e+03
3.451971e+02,4.500547e+03
3.480898e+02,4.517573e+03
3.509825e+02,4.500392e+03
3.538752e+02,4.522540e+03
3.567680e+02,4.521623e+03
3.596607e+02,4.546904e+03
3.625534e+02,4.538687e+03
3.654461e+02,4.529705e+03
3.683388e+02,4.531304e+03
3.712315e+02,4.585228e+03
3.741242e+02,4.585319e+03
3.770169e+02,4.577695e+03
3.799096e+02,4.571130e+03
3.828023e+02,4.552014e+03
3.856950e+02,4.576012e+03
3.885877e+02,4.590316e+03
3.914804e+02,4.569231e+03
3.943731e+02,4.563282e+03
3.972658e+02,4.570317e+03
4.001585e+02,4.586808e+03
4.030512e+02,4.591796e+03
4.059439e+02,4.580669e+03
4.088366e+02,4.577833e+03
4.117293e+02,4.600953e+03
4.146220e+02,4.581272e+03
4.175147e+02,4.596300e+03
4.204074e+02,4.602170e+03
4.233001e+02,4.598757e+03
4.261928e+02,4.581917e+03
4.290855e+02,4.592495e+03
4.319782e+02,4.585582e+03
4.348709e+02,4.604400e+03
4.377636e+02,4.597822e+03
4.406563e+02,4.606658e+03
4.435490e+02,4.603556e+03
4.464417e+02,4.638972e+03
4.493344e+02,4.644845e+03
4.522271e+02,4.625436e+03
4.551198e+02,4.633088e+03
4.580125e+02,4.616439e+03
4.609052e+02,4.610660e+03
4.637979e+02,4.616949e+03
4.666906e+02,4.617172e+03
4.695833e+02,4.600428e+03
4.724760e+02,4.611669e+03
4.753687e+02,4.619904e+03
4.782614e+02,4.608058e+03
4.811541e+02,4.629501e+03
4.840468e+02,4.622766e+03
4.869395e+02,4.609262e+03
4.898322e+02,4.610217e+03
4.927249e+02,4.605065e+03
4.956176e+02,4.606157e+03
4.985103e+02,4.596915e+03
5.014030e+02,4.600511e+03
5.042957e+02,4.606468e+03
5.071884e+02,4.607835e+03
5.100811e+02,4.590577e+03
5.129738e+02,4.578907e+03
5.158665e+02,4.603729e+03
5.187592e+02,4.630396e+03
5.216519e+02,4.593500e+03
5.245446e+02,4.594126e+03
5.274373e+02,4.604515e+03
5.303300e+02,4.601667e+03
5.332227e+02,4.609400e+03
5.361154e+02,4.597399e+03
5.390081e+02,4.620531e+03
5.419008e+02,4.648779e+03
5.447935e+02,4.624595e+03
5.476862e+02,4.634522e+03
5.505789e+02,4.633605e+03
5.534716e+02,4.633539e+03
5.563643e+02,4.645851e+03
5.592570e+02,4.648446e+03
5.621497e+02,4.634299e+03
5.650424e+02,4.616902e+03
5.679351e+02,4.587057e+03
5.708278e+02,4.557918e+03
5.737205e+02,4.581138e+03
5.766132e+02,4.550781e+03
5.795059e+02,4.566622e+03
5.823986e+02,4.569062e+03
5.852913e+02,4.539462e+03
5.881840e+02,4.554896e+03
5.910767e+02,4.557620e+03
5.939694e+02,4.571726e+03
5.968621e+02,4.574077e+03
5.997548e+02,4.541119e+03
6.026475e+02,4.563971e+03
6.055402e+02,4.584937e+03
6.084329e+02,4.587264e+03
6.113256e+02,4.614133e+03
6.142183e+02,4.574399e+03
6.171110e+02,4.525320e+03
6.200037e+02,4.509603e+03
6.228964e+02,4.513445e+03
6.257891e+02,4.522631e+03
6.286818e+02,4.510245e+03
6.315745e+02,4.509912e+03
6.344672e+02,4.481748e+03
6.373599e+02,4.496409e+03
6.402526e+02,4.482567e+03
6.431453e+02,4.485382e+03
6.460380e+02,4.471261e+03
6.489307e+02,4.480321e+03
6.518234e+02,4.462597e+03
6.547161e+02,4.472317e+03
6.576088e+02,4.462843e+03
6.605015e+02,4.454049e+03
6.633942e+02,4.442099e+03
6.662869e+02,4.453033e+03
6.691796e+02,4.445619e+03
6.720723e+02,4.443499e+03
6.749650e+02,4.430102e+03
6.778577e+02,4.442327e+03
6.807504e+02,4.434843e+03
6.836431e+02,4.417921e+03
6.865358e+02,4.404532e+03
6.894285e+02,4.401342e+03
6.923212e+02,4.379932e+03
6.952139e+02,4.389619e+03
6.981066e+02,4.390256e+03
7.009993e+02,4.395358e+03
7.038920e+02,4.365717e+03
7.067847e+02,4.360731e+03
7.096774e+02,4.369719e+03
7.125701e+02,4.348462e+03
7.154628e+02,4.354118e+03
7.183555e+02,4.325475e+03
7.212482e+02,4.330238e+03
7.241409e+02,4.326083e+03
7.270336e+02,4.317749e+03
7.299263e+02,4.302868e+03
7.328190e+02,4.292667e+03
7.357117e+02,4.288234e+03
7.386044e+02,4.295981e+03
7.414971e+02,4.276042e+03
7.443898e+02,4.278358e+03
7.472825e+02,4.275729e+03
7.501752e+02,4.268654e+03
7.530679e+02,4.244677e+03
7.559606e+02,4.246135e+03
7.588533e+02,4.224720e+03
7.617460e+02,4.263059e+03
7.646387e+02,4.237794e+03
7.675314e+02,4.223458e+03
7.704241e+02,4.198537e+03
7.733168e+02,4.207647e+03
7.762095e+02,4.215166e+03
7.791022e+02,4.212166e+03
7.819949e+02,4.200828e+03
7.848876e+02,4.193161e+03
7.877803e+02,4.190510e+03
7.906730e+02,4.181042e+03
7.935657e+02,4.165475e+03
7.964584e+02,4.157409e+03
7.993511e+02,4.159835e+03
8.022438e+02,4.126203e+03
8.051365e+02,4.127907e+03
8.080292e+02,4.112129e+03
8.109219e+02,4.122843e+03
8.138146e+02,4.095053e+03
8.167073e+02,4.080106e+03
8.196000e+02,4.098888e+03
8.224927e+02,4.105137e+03
8.253854e+02,4.068809e+03
8.282781e+02,4.066896e+03
8.311708e+02,4.062821e+03
8.340635e+02,4.063958e+03
8.369562e+02,4.050954e+03
8.398489e+02,4.059117e+03
8.427416e+02,4.050188e+03
8.456343e+02,4.027917e+03
8.485270e+02,4.016891e+03
8.514197e+02,4.008883e+03
8.543124e+02,4.029078e+03
8.572051e+02,3.989304e+03
8.600978e+02,3.987476e+03
8.629905e+02,4.001567e+03
8.658832e+02,3.990570e+03
8.687759e+02,3.971016e+03
8.716686e+02,3.979515e+03
8.745613e+02,3.949106e+03
8.774540e+02,3.962530e+03
8.803467e+02,3.950405e+03
8.832394e+02,3.938517e+03
8.861321e+02,3.949435e+03
8.890248e+02,3.938310e+03
8.919175e+02,3.934552e+03
8.948102e+02,3.917118e+03
8.977029e+02,3.917032e+03
9.005956e+02,3.898836e+03
9.034883e+02,3.894575e+03
9.063810e+02,3.880734e+03
9.092737e+02,3.864326e+03
9.121664e+02,3.861400e+03
9.150591e+02,3.863000e+03
9.179518e+02,3.839562e+03
9.208445e+02,3.842563e+03
9.237372e+02,3.821751e+03
9.266299e+02,3.807939e+03
9.295226e+02,3.842769e+03
9.324153e+02,3.814071e+03
9.353080e+02,3.805771e+03
9.382007e+02,3.795303e+03
9.410934e+02,3.786040e+03
9.439861e+02,3.771736e+03
9.468788e+02,3.770147e+03
9.497715e+02,3.773178e+03
9.526642e+02,3.744973e+03
9.555569e+02,3.720288e+03
9.584496e+02,3.728400e+03
9.613423e+02,3.725536e+03
9.642350e+02,3.716531e+03
9.671277e+02,3.699978e+03
9.700204e+02,3.681770e+03
9.729131e+02,3.675938e+03
9.758058e+02,3.666016e+03
9.786985e+02,3.680848e+03
9.815912e+02,3.671753e+03
9.844839e+02,3.651954e+03
9.873766e+02,3.635188e+03
9.902693e+02,3.633927e+03
9.931620e+02,3.636934e+03
9.960547e+02,3.627115e+03
9.989474e+02,3.608825e+03
1.001840e+03,3.582107e+03
1.004733e+03,3.590483e+03
1.007626e+03,3.587052e+03
1.010518e+03,3.583662e+03
1.013411e+03,3.563150e+03
1.016304e+03,3.564060e+03
1.019196e+03,3.558397e+03
1.022089e+03,3.548526e+03
1.024982e+03,3.538102e+03
1.027875e+03,3.529043e+03
1.030767e+03,3.513147e+03
1.033660e+03,3.525504e+03
1.036552e+03,3.506294e+03
1.039445e+03,3.511496e+03
1.042338e+03,3.493974e+03
1.045231e+03,3.503702e+03
1.048123e+03,3.467170e+03
1.051016e+03,3.495156e+03
1.053909e+03,3.482940e+03
1.056802e+03,3.460033e+03
1.059694e+03,3.469458e+03
1.062587e+03,3.457823e+03
1.065479e+03,3.452714e+03
1.068372e+03,3.453315e+03
1.071265e+03,3.454683e+03
1.074158e+03,3.442722e+03
1.077050e+03,3.443202e+03
1.079943e+03,3.443754e+03
1.082836e+03,3.442809e+03
1.085729e+03,3.445180e+03
1.088621e+03,3.435279e+03
1.091514e+03,3.390535e+03
1.094406e+03,3.379813e+03
1.097299e+03,3.392449e+03
1.100192e+03,3.354316e+03
1.103085e+03,3.363358e+03
1.105977e+03,3.359351e+03
1.108870e+03,3.350497e+03
1.111763e+03,3.352931e+03
1.114656e+03,3.349638e+03
1.117548e+03,3.349043e+03
1.120441e+03,3.344743e+03
1.123334e+03,3.337297e+03
1.126226e+03,3.308479e+03
1.129119e+03,3.301628e+03
1.132012e+03,3.313902e+03
1.134904e+03,3.298056e+03
1.137797e+03,3.277731e+03
1.140690e+03,3.273181e+03
1.143583e+03,3.265644e+03
1.146475e+03,3.263317e+03
1.149368e+03,3.258717e+03
1.152261e+03,3.245982e+03
1.155153e+03,3.236658e+03
1.158046e+03,3.209416e+03
1.160939e+03,3.218723e+03
1.163831e+03,3.215442e+03
1.166724e+03,3.220214e+03
1.169617e+03,3.187821e+03
1.172510e+03,3.188896e+03
1.175402e+03,3.188362e+03
1.178295e+03,3.189734e+03
1.181188e+03,3.176177e+03
1.184080e+03,3.173856e+03
1.186973e+03,3.158633e+03
1.189866e+03,3.164688e+03
1.192758e+03,3.144234e+03
1.195651e+03,3.150115e+03
1.198544e+03,3.138744e+03
1.201437e+03,3.101149e+03
1.204329e+03,3.108461e+03
1.207222e+03,3.116921e+03
1.210115e+03,3.114738e+03
1.213007e+03,3.104156e+03
1.215900e+03,3.088737e+03
1.218793e+03,3.081222e+03
1.221685e+03,3.079988e+03
1.224578e+03,3.105633e+03
1.227471e+03,3.074163e+03
1.230364e+03,3.056638e+03
1.233256e+03,3.056500e+03
1.236149e+03,3.045451e+03
1.239042e+03,3.035110e+03
1.241934e+03,3.034862e+03
1.244827e+03,3.043691e+03
1.247720e+03,3.021306e+03
1.250612e+03,3.007475e+03
1.253505e+03,2.996251e+03
1.256398e+03,3.005911e+03
1.259291e+03,2.982244e+03
1.262183e+03,2.976263e+03
1.265076e+03,2.972861e+03
1.267969e+03,2.968928e+03
1.270861e+03,2.986427e+03
1.273754e+03,2.972183e+03
1.276647e+03,2.954976e+03
1.279539e+03,2.945887e+03
1.282432e+03,2.936068e+03
1.285325e+03,2.944719e+03
1.288218e+03,2.944776e+03
1.291110e+03,2.930708e+03
1.294003e+03,2.909005e+03
1.296896e+03,2.884022e+03
1.299788e+03,2.908289e+03
1.302681e+03,2.907361e+03
1.305574e+03,2.915536e+03
1.308466e+03,2.879336e+03
1.311359e+03,2.878739e+03
1.314252e+03,2.869988e+03
1.317145e+03,2.880872e+03
1.320037e+03,2.877985e+03
1.322930e+03,2.875577e+03
1.325823e+03,2.865119e+03
1.328715e+03,2.874895e+03
1.331608e+03,2.861660e+03
1.334501e+03,2.867662e+03
1.337393e+03,2.856634e+03
1.340286e+03,2.857252e+03
1.343179e+03,2.836801e+03
1.346072e+03,2.840924e+03
1.348964e+03,2.831811e+03
1.351857e+03,2.814167e+03
1.354750e+03,2.831325e+03
1.357642e+03,2.829464e+03
1.360535e+03,2.807340e+03
1.363428e+03,2.815314e+03
1.366320e+03,2.813935e+03
1.369213e+03,2.803330e+03
1.372106e+03,2.797118e+03
1.374999e+03,2.786915e+03
1.377891e+03,2.787897e+03
1.380784e+03,2.769233e+03
1.383677e+03,2.769399e+03
1.386569e+03,2.757539e+03
1.389462e+03,2.760053e+03
1.392355e+03,2.745262e+03
1.395247e+03,2.748150e+03
1.398140e+03,2.741978e+03
1.401033e+03,2.742823e+03
1.403926e+03,2.724906e+03
1.406818e+03,2.721325e+03
1.409711e+03,2.714708e+03
1.412604e+03,2.705781e+03
1.415496e+03,2.720324e+03
1.418389e+03,2.697543e+03
1.421282e+03,2.697259e+03
1.424174e+03,2.706142e+03
1.427067e+03,2.687262e+03
1.429960e+03,2.690991e+03
1.432853e+03,2.675829e+03
1.435745e+03,2.671696e+03
1.438638e+03,2.657316e+03
1.441531e+03,2.662764e+03
1.444423e+03,2.664888e+03
1.447316e+03,2.669356e+03
1.450209e+03,2.656583e+03
1.453101e+03,2.660248e+03
1.455994e+03,2.663177e+03
1.458887e+03,2.634514e+03
1.461780e+03,2.643198e+03
1.464672e+03,2.632341e+03
1.467565e+03,2.605665e+03
1.470458e+03,2.603003e+03
1.473350e+03,2.629766e+03
1.476243e+03,2.612663e+03
1.479136e+03,2.609638e+03
1.482028e+03,2.598588e+03
1.484921e+03,2.582093e+03
1.487814e+03,2.578448e+03
1.490707e+03,2.582350e+03
1.493599e+03,2.572014e+03
1.496492e+03,2.570027e+03
1.499385e+03,2.553390e+03
1.502277e+03,2.559488e+03
1.505170e+03,2.561479e+03
1.508063e+03,2.552648e+03
1.510955e+03,2.546772e+03
1.513848e+03,2.541378e+03
1.516741e+03,2.523951e+03
1.519634e+03,2.527101e+03
1.522526e+03,2.521660e+03
1.525419e+03,2.510558e+03
1.528312e+03,2.504036e+03
1.531204e+03,2.498184e+03
1.534097e+03,2.489630e+03
1.536990e+03,2.492478e+03
1.539882e+03,2.490797e+03
1.542775e+03,2.481482e+03
1.545668e+03,2.481446e+03
1.548561e+03,2.480808e+03
1.551453e+03,2.471008e+03
1.554346e+03,2.484611e+03
1.557239e+03,2.477184e+03
1.560131e+03,2.474851e+03
1.563024e+03,2.490317e+03
1.565917e+03,2.494706e+03
1.568809e+03,2.498626e+03
1.571702e+03,2.500612e+03
1.574595e+03,2.473565e+03
1.577488e+03,2.473666e+03
1.580380e+03,2.473680e+03
1.583273e+03,2.457063e+03
1.586166e+03,2.428167e+03
1.589058e+03,2.424602e+03
1.591951e+03,2.404587e+03
1.594844e+03,2.397062e+03
1.597736e+03,2.419377e+03
1.600629e+03,2.400188e+03
1.603522e+03,2.397223e+03
1.606415e+03,2.388573e+03
1.609307e+03,2.382534e+03
1.612200e+03,2.377528e+03
1.615093e+03,2.384614e+03
1.617985e+03,2.369391e+03
1.620878e+03,2.367242e+03
1.623771e+03,2.364681e+03
1.626663e+03,2.367919e+03
1.629556e+03,2.360636e+03
1.632449e+03,2.356927e+03
1.635342e+03,2.341065e+03
1.638234e+03,2.334286e+03
1.641127e+03,2.325304e+03
1.644020e+03,2.339153e+03
1.646912e+03,2.307507e+03
1.649805e+03,2.309013e+03
1.652698e+03,2.316033e+03
1.655590e+03,2.320336e+03
1.658483e+03,2.286383e+03
1.661376e+03,2.301274e+03
1.664269e+03,2.285864e+03
1.667161e+03,2.271846e+03
1.670054e+03,2.276499e+03
1.672947e+03,2.274249e+03
1.675839e+03,2.278701e+03
1.678732e+03,2.261812e+03
1.681625e+03,2.263220e+03
1.684517e+03,2.235837e+03
1.687410e+03,2.241375e+03
1.690303e+03,2.235621e+03
1.693196e+03,2.227946e+03
1.696088e+03,2.233123e+03
1.698981e+03,2.231564e+03
1.701874e+03,2.222731e+03
1.704766e+03,2.217774e+03
1.707659e+03,2.206076e+03
1.710552e+03,2.214230e+03
1.713444e+03,2.194063e+03
1.716337e+03,2.182590e+03
1.719230e+03,2.164532e+03
1.722123e+03,2.187342e+03
1.725015e+03,2.163972e+03
1.727908e+03,2.155298e+03
1.730801e+03,2.151659e+03
1.733693e+03,2.147702e+03
1.736586e+03,2.153063e+03
1.739479e+03,2.146046e+03
1.742371e+03,2.147258e+03
1.745264e+03,2.123888e+03
1.748157e+03,2.119896e+03
1.751050e+03,2.129105e+03
1.753942e+03,2.108799e+03
1.756835e+03,2.111440e+03
1.759728e+03,2.114490e+03
1.762620e+03,2.097818e+03
1.765513e+03,2.090061e+03
1.768406e+03,2.099804e+03
1.771298e+03,2.084198e+03
1.774191e+03,2.097598e+03
1.777084e+03,2.066728e+03
1.779977e+03,2.065856e+03
1.782869e+03,2.069863e+03
1.785762e+03,2.071297e+03
1.788655e+03,2.032229e+03
1.791547e+03,2.070034e+03
1.794440e+03,2.051135e+03
1.797333e+03,2.043997e+03
1.800225e+03,2.044696e+03
1.803118e+03,2.052995e+03
1.806011e+03,2.035627e+03
1.808904e+03,2.044097e+03
1.811796e+03,2.013997e+03
1.814689e+03,2.018553e+03
1.817582e+03,2.034470e+03
1.820474e+03,2.012726e+03
1.823367e+03,1.985718e+03
1.826260e+03,2.010532e+03
1.829152e+03,1.997241e+03
1.832045e+03,1.992229e+03
1.834938e+03,1.995619e+03
1.837831e+03,1.977433e+03
1.840723e+03,1.958732e+03
1.843616e+03,1.979429e+03
1.846509e+03,1.981106e+03
1.849401e+03,1.950196e+03
1.852294e+03,1.944251e+03
1.855187e+03,1.953198e+03
1.858079e+03,1.945391e+03
1.860972e+03,1.942818e+03
1.863865e+03,1.941994e+03
1.866758e+03,1.926722e+03
1.869650e+03,1.922514e+03
1.872543e+03,1.906467e+03
1.875436e+03,1.925724e+03
1.878328e+03,1.928641e+03
1.881221e+03,1.894520e+03
1.884114e+03,1.893073e+03
1.887006e+03,1.895529e+03
1.889899e+03,1.913431e+03
1.892792e+03,1.887783e+03
1.895685e+03,1.874939e+03
1.898577e+03,1.884860e+03
1.901470e+03,1.880157e+03
1.904363e+03,1.860513e+03
1.907255e+03,1.862377e+03
1.910148e+03,1.875669e+03
1.913041e+03,1.848642e+03
1.915933e+03,1.844958e+03
1.918826e+03,1.839202e+03
1.921719e+03,1.835611e+03
1.924612e+03,1.861373e+03
1.927504e+03,1.826664e+03
1.930397e+03,1.807170e+03
1.933290e+03,1.810408e+03
1.936182e+03,1.801222e+03
1.939075e+03,1.808217e+03
1.941968e+03,1.809811e+03
1.944860e+03,1.804629e+03
1.947753e+03,1.803814e+03
1.950646e+03,1.776387e+03
1.953539e+03,1.775866e+03
1.956431e+03,1.779952e+03
1.959324e+03,1.769675e+03
1.962217e+03,1.758840e+03
1.965109e+03,1.747024e+03
1.968002e+03,1.755637e+03
1.970895e+03,1.763746e+03
1.973787e+03,1.736445e+03
1.976680e+03,1.737384e+03
1.979573e+03,1.741676e+03
1.982466e+03,1.749948e+03
1.985358e+03,1.720772e+03
1.988251e+03,1.719769e+03
1.991144e+03,1.717498e+03
1.994036e+03,1.705637e+03
1.996929e+03,1.696564e+03
1.999822e+03,1.702206e+03
2.002714e+03,1.679803e+03
2.005607e+03,1.688034e+03
2.008500e+03,1.700063e+03
2.011393e+03,1.697974e+03
2.014285e+03,1.683160e+03
2.017178e+03,1.662703e+03
2.020071e+03,1.663994e+03
2.022963e+03,1.661952e+03
2.025856e+03,1.645294e+03
2.028749e+03,1.660315e+03
2.031641e+03,1.638301e+03
2.034534e+03,1.637579e+03
2.037427e+03,1.629869e+03
2.040320e+03,1.625576e+03
2.043212e+03,1.642716e+03
2.046105e+03,1.616580e+03
2.048998e+03,1.602696e+03
2.051890e+03,1.601678e+03
2.054783e+03,1.596159e+03
2.057676e+03,1.587704e+03
2.060568e+03,1.602213e+03
2.063461e+03,1.588182e+03
2.066354e+03,1.572841e+03
2.069247e+03,1.584166e+03
2.072139e+03,1.592168e+03
2.075032e+03,1.564922e+03
2.077925e+03,1.558920e+03
2.080817e+03,1.567498e+03
2.083710e+03,1.560350e+03
2.086603e+03,1.552952e+03
2.089496e+03,1.557350e+03
2.092388e+03,1.561132e+03
2.095281e+03,1.555443e+03
2.098174e+03,1.530938e+03
2.101066e+03,1.548282e+03
2.103959e+03,1.533830e+03
2.106852e+03,1.523013e+03
2.109744e+03,1.531835e+03
2.112637e+03,1.506941e+03
2.115530e+03,1.496900e+03
2.118422e+03,1.512391e+03
2.121315e+03,1.510969e+03
2.124208e+03,1.514438e+03
2.127101e+03,1.484186e+03
2.129993e+03,1.491020e+03
2.132886e+03,1.470940e+03
2.135779e+03,1.474195e+03
2.138671e+03,1.479323e+03
2.141564e+03,1.462445e+03
2.144457e+03,1.460061e+03
2.147350e+03,1.450480e+03
2.150242e+03,1.461359e+03
2.153135e+03,1.457283e+03
2.156028e+03,1.444919e+03
2.158920e+03,1.422139e+03
2.161813e+03,1.443795e+03
2.164706e+03,1.431262e+03
2.167598e+03,1.423418e+03
2.170491e+03,1.418190e+03
2.173384e+03,1.429764e+03
2.176277e+03,1.424963e+03
2.179169e+03,1.391521e+03
2.182062e+03,1.416992e+03
2.184955e+03,1.391126e+03
2.187847e+03,1.393440e+03
2.190740e+03,1.390960e+03
2.193633e+03,1.367268e+03
2.196525e+03,1.371776e+03
2.199418e+03,1.375854e+03
2.202311e+03,1.364611e+03
2.205204e+03,1.360196e+03
2.208096e+03,1.371436e+03
2.210989e+03,1.338858e+03
2.213882e+03,1.364172e+03
2.216774e+03,1.362153e+03
2.219667e+03,1.338736e+03
2.222560e+03,1.337378e+03
2.225452e+03,1.330793e+03
2.228345e+03,1.335350e+03
2.231238e+03,1.331836e+03
2.234131e+03,1.325510e+03
2.237023e+03,1.304184e+03
2.239916e+03,1.308424e+03
2.242809e+03,1.302193e+03
2.245701e+03,1.302864e+03
2.248594e+03,1.303988e+03
2.251487e+03,1.293859e+03
2.254379e+03,1.277177e+03
2.257272e+03,1.285414e+03
2.260165e+03,1.271336e+03
2.263058e+03,1.278949e+03
2.265950e+03,1.260843e+03
2.268843e+03,1.274447e+03
2.271736e+03,1.257300e+03
2.274628e+03,1.265725e+03
2.277521e+03,1.254063e+03
2.280414e+03,1.255420e+03
2.283306e+03,1.251357e+03
2.286199e+03,1.239212e+03
2.289092e+03,1.237282e+03
2.291985e+03,1.236210e+03
2.294877e+03,1.236497e+03
2.297770e+03,1.228440e+03
2.300663e+03,1.215542e+03
2.303555e+03,1.215351e+03
2.306448e+03,1.204457e+03
2.309341e+03,1.198831e+03
2.312233e+03,1.192095e+03
2.315126e+03,1.201201e+03
2.318019e+03,1.182393e+03
2.320912e+03,1.194656e+03
2.323804e+03,1.207009e+03
2.326697e+03,1.199069e+03
2.329590e+03,1.193862e+03
2.332482e+03,1.178870e+03
2.335375e+03,1.176884e+03
2.338268e+03,1.169588e+03
2.341160e+03,1.161474e+03
2.344053e+03,1.177656e+03
2.346946e+03,1.156957e+03
2.349839e+03,1.166004e+03
2.352731e+03,1.144355e+03
2.355624e+03,1.145626e+03
2.358517e+03,1.143285e+03
2.361409e+03,1.141226e+03
2.364302e+03,1.137322e+03
2.367195e+03,1.127948e+03
2.370087e+03,1.137117e+03
2.372980e+03,1.136578e+03
2.375873e+03,1.119270e+03
2.378766e+03,1.128428e+03
2.381658e+03,1.109783e+03
2.384551e+03,1.105244e+03
2.387444e+03,1.119854e+03
2.390336e+03,1.103062e+03
2.393229e+03,1.099089e+03
2.396122e+03,1.111324e+03
2.399014e+03,1.101483e+03
2.401907e+03,1.083422e+03
2.404800e+03,1.080113e+03
2.407693e+03,1.105655e+03
2.410585e+03,1.075991e+03
2.413478e+03,1.078877e+03
2.416371e+03,1.071124e+03
2.419263e+03,1.069643e+03
2.422156e+03,1.077801e+03
2.425049e+03,1.059995e+03
2.427941e+03,1.057446e+03
2.430834e+03,1.058066e+03
2.433727e+03,1.049988e+03
2.436620e+03,1.055466e+03
2.439512e+03,1.052421e+03
2.442405e+03,1.032582e+03
2.445298e+03,1.041114e+03
2.448190e+03,1.040998e+03
2.451083e+03,1.026982e+03
2.453976e+03,1.029997e+03
2.456868e+03,1.021391e+03
2.459761e+03,1.009041e+03
2.462654e+03,1.012513e+03
2.465547e+03,1.004104e+03
2.468439e+03,1.010271e+03
2.471332e+03,1.015710e+03
2.474225e+03,1.020823e+03
2.477117e+03,9.968979e+02
2.480010e+03,9.900914e+02
2.482903e+03,9.837757e+02
2.485795e+03,9.980036e+02
2.488688e+03,9.990538e+02
2.491581e+03,9.791199e+02
2.494474e+03,9.959578e+02
2.497366e+03,9.886155e+02
2.500259e+03,9.868696e+02
2.503152e+03,9.739460e+02
2.506044e+03,9.768870e+02
2.508937e+03,9.691963e+02
2.511830e+03,9.666929e+02
2.514722e+03,9.688608e+02
2.517615e+03,9.524375e+02
2.520508e+03,9.639899e+02
2.523401e+03,9.423707e+02
2.526293e+03,9.355424e+02
2.529186e+03,9.439669e+02
2.532079e+03,9.512659e+02
2.534971e+03,9.401126e+02
2.537864e+03,9.397922e+02
2.540757e+03,9.429648e+02
2.543649e+03,9.418710e+02
2.546542e+03,9.329327e+02
2.549435e+03,9.193514e+02
2.552328e+03,9.228860e+02
2.555220e+03,9.287125e+02
2.558113e+03,9.398127e+02
2.561006e+03,9.185934e+02
2.563898e+03,9.306263e+02
2.566791e+03,9.316964e+02
2.569684e+03,8.892686e+02
2.572576e+03,9.115417e+02
2.575469e+03,9.026845e+02
2.578362e+03,9.059075e+02
2.581255e+03,8.996175e+02
2.584147e+03,8.963038e+02
2.587040e+03,8.970883e+02
2.589933e+03,8.855000e+02
2.592825e+03,8.929326e+02
2.595718e+03,9.095972e+02
2.598611e+03,8.775412e+02
2.601503e+03,8.719705e+02
2.604396e+03,8.787073e+02
2.607289e+03,8.621074e+02
2.610182e+03,8.841127e+02
2.613074e+03,8.752690e+02
2.615967e+03,8.630884e+02
2.618860e+03,8.689277e+02
2.621752e+03,8.803891e+02
2.624645e+03,8.598776e+02
2.627538e+03,8.646495e+02
2.630430e+03,8.762072e+02
2.633323e+03,8.501423e+02
2.636216e+03,8.471519e+02
2.639109e+03,8.525242e+02
2.642001e+03,8.504463e+02
2.644894e+03,8.461211e+02
2.647787e+03,8.501813e+02
2.650679e+03,8.540930e+02
2.653572e+03,8.392893e+02
2.656465e+03,8.379343e+02
2.659357e+03,8.177567e+02
2.662250e+03,8.328979e+02
2.665143e+03,8.366995e+02
2.668036e+03,8.181631e+02
2.670928e+03,8.114035e+02
2.673821e+03,8.128380e+02
2.676714e+03,8.160267e+02
2.679606e+03,8.398665e+02
2.682499e+03,8.182696e+02
2.685392e+03,8.034929e+02
2.688284e+03,8.105086e+02
2.691177e+03,7.988779e+02
2.694070e+03,8.031353e+02
2.696963e+03,7.949587e+02
2.699855e+03,8.064636e+02
2.702748e+03,8.022429e+02
2.705641e+03,7.998890e+02
2.708533e+03,8.077502e+02
2.711426e+03,7.956532e+02
2.714319e+03,7.879636e+02
2.717211e+03,7.887128e+02
2.720104e+03,7.762053e+02
2.722997e+03,7.991918e+02
2.725890e+03,8.010554e+02
2.728782e+03,7.816185e+02
2.731675e+03,7.772452e+02
2.734568e+03,7.981002e+02
2.737460e+03,7.674184e+02
2.740353e+03,7.728111e+02
2.743246e+03,7.633015e+02
2.746138e+03,7.671345e+02
2.749031e+03,7.561222e+02
2.751924e+03,7.584927e+02
2.754817e+03,7.605627e+02
2.757709e+03,7.578937e+02
2.760602e+03,7.655792e+02
2.763495e+03,7.480355e+02
2.766387e+03,7.668386e+02
2.769280e+03,7.546928e+02
2.772173e+03,7.467849e+02
2.775065e+03,7.371613e+02
2.777958e+03,7.288860e+02
2.780851e+03,7.436708e+02
2.783744e+03,7.413964e+02
2.786636e+03,7.219194e+02
2.789529e+03,7.292842e+02
2.792422e+03,7.313173e+02
2.795314e+03,7.362570e+02
2.798207e+03,7.425705e+02
2.801100e+03,7.411227e+02
2.803992e+03,7.424243e+02
2.806885e+03,7.341239e+02
2.809778e+03,7.208820e+02
2.812671e+03,7.265005e+02
2.815563e+03,7.168646e+02
2.818456e+03,7.310870e+02
2.821349e+03,7.053428e+02
2.824241e+03,7.303454e+02
2.827134e+03,7.162626e+02
2.830027e+03,7.313624e+02
2.832919e+03,7.120862e+02
2.835812e+03,7.347504e+02
2.838705e+03,7.264333e+02
2.841598e+03,7.013421e+02
2.844490e+03,7.075908e+02
2.847383e+03,6.926211e+02
2.850276e+03,7.103163e+02
2.853168e+03,7.107729e+02
2.856061e+03,7.107075e+02
2.858954e+03,6.911808e+02
2.861846e+03,7.085993e+02
2.864739e+03,7.192744e+02
2.867632e+03,7.059855e+02
2.870525e+03,6.999290e+02
2.873417e+03,7.071532e+02
2.876310e+03,7.066086e+02
2.879203e+03,7.046597e+02
2.882095e+03,7.324053e+02
2.884988e+03,7.093704e+02
2.887881e+03,7.023464e+02
2.890773e+03,7.134022e+02
2.893666e+03,7.223959e+02
2.896559e+03,6.973996e+02
2.899452e+03,7.083118e+02
2.902344e+03,6.910625e+02
2.905237e+03,7.098284e+02
2.908130e+03,7.023369e+02
2.911022e+03,6.907701e+02
2.913915e+03,6.961829e+02
2.916808e+03,7.059101e+02
2.919700e+03,6.944014e+02
2.922593e+03,6.708446e+02
2.925486e+03,6.581876e+02
2.928379e+03,6.880827e+02
2.931271e+03,6.763665e+02
2.934164e+03,6.541645e+02
2.937057e+03,6.814369e+02
2.939949e+03,6.569408e+02
2.942842e+03,6.885653e+02
2.945735e+03,6.728958e+02
2.948627e+03,6.723727e+02
2.951520e+03,6.744696e+02
2.954413e+03,6.727870e+02
2.957306e+03,7.197247e+02
2.960198e+03,6.497736e+02
2.963091e+03,6.486804e+02
2.965984e+03,6.540448e+02
2.968876e+03,6.414891e+02
2.971769e+03,6.410589e+02
2.974662e+03,6.211547e+02
2.977554e+03,6.506494e+02
2.980447e+03,6.605775e+02
2.983340e+03,6.325389e+02
2.986233e+03,6.542158e+02
2.989125e+03,6.360324e+02
2.992018e+03,6.377778e+02
2.994911e+03,6.336036e+02
2.997803e+03,6.210065e+02
3.000696e+03,6.368204e+02
3.003589e+03,6.211537e+02
3.006481e+03,6.514096e+02
3.009374e+03,6.114030e+02
3.012267e+03,6.215319e+02
3.015160e+03,6.090284e+02
3.018052e+03,6.186264e+02
3.020945e+03,6.247142e+02
3.023838e+03,6.362239e+02
3.026730e+03,6.099524e+02
3.029623e+03,5.920271e+02
3.032516e+03,6.225492e+02
3.035408e+03,6.385302e+02
3.038301e+03,6.143923e+02
3.041194e+03,6.356947e+02
3.044087e+03,6.530937e+02
3.046979e+03,6.053468e+02
3.049872e+03,6.113942e+02
3.052765e+03,5.935720e+02
3.055657e+03,6.051417e+02
3.058550e+03,6.148444e+02
3.061443e+03,6.312678e+02
3.064335e+03,5.968468e+02
3.067228e+03,6.282206e+02
3.070121e+03,6.174371e+02
3.073014e+03,6.053745e+02
3.075906e+03,6.092907e+02
3.078799e+03,5.557750e+02
3.081692e+03,6.276696e+02
3.084584e+03,6.141486e+02
3.087477e+03,6.231452e+02
3.090370e+03,6.216017e+02
3.093262e+03,6.126926e+02
3.096155e+03,6.018425e+02
3.099048e+03,6.188600e+02
3.101941e+03,6.166902e+02
3.104833e+03,6.044048e+02
3.107726e+03,5.934191e+02
3.110619e+03,6.050688e+02
3.113511e+03,6.289216e+02
3.116404e+03,5.981628e+02
3.119297e+03,6.333126e+02
3.122189e+03,5.996516e+02
3.125082e+03,6.073370e+02
3.127975e+03,5.888713e+02
3.130868e+03,6.408378e+02
3.133760e+03,6.087312e+02
3.136653e+03,5.993899e+02
3.139546e+03,6.032980e+02
3.142438e+03,6.285209e+02
3.145331e+03,5.663797e+02
3.148224e+03,6.096716e+02
3.151116e+03,5.954424e+02
3.154009e+03,6.110201e+02
3.156902e+03,6.202883e+02
3.159795e+03,6.202236e+02
3.162687e+03,6.284852e+02
3.165580e+03,6.142430e+02
3.168473e+03,6.514525e+02
3.171365e+03,5.722649e+02
3.174258e+03,5.883574e+02
3.177151e+03,6.116908e+02
3.180043e+03,5.860045e+02
3.182936e+03,6.299035e+02
3.185829e+03,6.246732e+02
3.188722e+03,6.270944e+02
3.191614e+03,6.074324e+02
3.194507e+03,6.137867e+02
3.197400e+03,6.363826e+02
3.200292e+03,6.676695e+02
3.203185e+03,0.000000e+00
3.206078e+03,0.000000e+00
3.208970e+03,0.000000e+00
3.211863e+03,0.000000e+00
3.214756e+03,0.000000e+00
3.217649e+03,0.000000e+00
3.220541e+03,0.000000e+00
3.223434e+03,0.000000e+00
3.226327e+03,0.000000e+00
3.229219e+03,0.000000e+00
3.232112e+03,0.000000e+00
3.235005e+03,0.000000e+00
3.237897e+03,0.000000e+00
3.240790e+03,0.000000e+00
3.243683e+03,0.000000e+00
3.246576e+03,0.000000e+00
3.249468e+03,0.000000e+00
3.252361e+03,0.000000e+00
3.255254e+03,0.000000e+00
3.258146e+03,0.000000e+00
3.261039e+03,0.000000e+00
3.263932e+03,0.000000e+00
3.266824e+03,0.000000e+00
3.269717e+03,0.000000e+00
3.272610e+03,0.000000e+00
3.275503e+03,0.000000e+00
3.278395e+03,0.000000e+00
3.281288e+03,0.000000e+00
3.284181e+03,0.000000e+00
3.287073e+03,0.000000e+00
3.289966e+03,0.000000e+00
3.292859e+03,0.000000e+00
3.295751e+03,0.000000e+00
3.298644e+03,0.000000e+00
3.301537e+03,0.000000e+00
3.304430e+03,0.000000e+00
3.307322e+03,0.000000e+00
3.310215e+03,0.000000e+00
3.313108e+03,0.000000e+00
3.316000e+03,0.000000e+00
3.318893e+03,0.000000e+00
3.321786e+03,0.000000e+00
3.324678e+03,0.000000e+00
3.327571e+03,0.000000e+00
3.330464e+03,0.000000e+00
3.333357e+03,0.000000e+00
3.336249e+03,0.000000e+00
3.339142e+03,0.000000e+00
3.342035e+03,0.000000e+00
3.344927e+03,0.000000e+00
3.347820e+03,0.000000e+00
3.350713e+03,0.000000e+00
3.353605e+03,0.000000e+00
3.356498e+03,0.000000e+00
3.359391e+03,0.000000e+00
3.362284e+03,0.000000e+00
3.365176e+03,0.000000e+00
3.368069e+03,0.000000e+00
3.370962e+03,0.000000e+00
3.373854e+03,0.000000e+00
3.376747e+03,0.000000e+00
3.379640e+03,0.000000e+00
3.382532e+03,0.000000e+00
3.385425e+03,0.000000e+00
3.388318e+03,0.000000e+00
3.391211e+03,0.000000e+00
3.394103e+03,0.000000e+00
3.396996e+03,0.000000e+00
3.399889e+03,0.000000e+00
3.402781e+03,0.000000e+00
3.405674e+03,0.000000e+00
3.408567e+03,0.000000e+00
3.411459e+03,0.000000e+00
3.414352e+03,0.000000e+00
3.417245e+03,0.000000e+00
3.420138e+03,0.000000e+00
3.423030e+03,0.000000e+00
3.425923e+03,0.000000e+00
3.428816e+03,0.000000e+00
3.431708e+03,0.000000e+00
3.434601e+03,0.000000e+00
3.437494e+03,0.000000e+00
3.440386e+03,0.000000e+00
3.443279e+03,0.000000e+00
3.446172e+03,0.000000e+00
3.449065e+03,0.000000e+00
3.451957e+03,0.000000e+00
3.454850e+03,0.000000e+00
3.457743e+03,0.000000e+00
3.460635e+03,0.000000e+00
3.463528e+03,0.000000e+00
3.466421e+03,0.000000e+00
3.469313e+03,0.000000e+00
3.472206e+03,0.000000e+00
3.475099e+03,0.000000e+00
3.477992e+03,0.000000e+00
3.480884e+03,0.000000e+00
3.483777e+03,0.000000e+00
3.486670e+03,0.000000e+00
3.489563e+03,0.000000e+00
3.492455e+03,0.000000e+00
3.495348e+03,0.000000e+00
3.498240e+03,0.000000e+00
3.500169e+03,0.000000e+00