File: RAMAN_data/23052023_r3/blue fibre18.CSV
9.931763e+01,0.000000e+00
1.022103e+02,0.000000e+00
1.051030e+02,0.000000e+00
1.079957e+02,0.000000e+00
1.108884e+02,0.000000e+00
1.137811e+02,0.000000e+00
1.166738e+02,0.000000e+00
1.195665e+02,0.000000e+00
1.224592e+02,0.000000e+00
1.253519e+02,0.000000e+00
1.282446e+02,0.000000e+00
1.311373e+02,0.000000e+00
1.340300e+02,0.000000e+00
1.369227e+02,0.000000e+00
1.398154e+02,0.000000e+00
1.427081e+02,0.000000e+00
1.456008e+02,0.000000e+00
1.484935e+02,0.000000e+00
1.513862e+02,0.000000e+00
1.542789e+02,0.000000e+00
1.571716e+02,0.000000e+00
1.600643e+02,0.000000e+00
1.629570e+02,0.000000e+00
1.658497e+02,0.000000e+00
1.687424e+02,0.000000e+00
1.716351e+02,0.000000e+00
1.745278e+02,0.000000e+00
1.774205e+02,0.000000e+00
1.803132e+02,0.000000e+00
1.832059e+02,0.000000e+00
1.860986e+02,0.000000e+00
1.889913e+02,0.000000e+00
1.918840e+02,0.000000e+00
1.947767e+02,0.000000e+00
1.976694e+02,0.000000e+00
2.005621e+02,9.712737e+03
2.034548e+02,9.755952e+03
2.063475e+02,9.793021e+03
2.092402e+02,9.799245e+03
2.121329e+02,9.786285e+03
2.150256e+02,9.801147e+03
2.179183e+02,9.846963e+03
2.208110e+02,9.885402e+03
2.237037e+02,9.869476e+03
2.265964e+02,9.853143e+03
2.294892e+02,9.878543e+03
2.323819e+02,9.934209e+03
2.352746e+02,9.968262e+03
2.381673e+02,9.986342e+03
2.410600e+02,9.971261e+03
2.439527e+02,1.002556e+04
2.468454e+02,1.010055e+04
2.497381e+02,1.012762e+04
2.526308e+02,1.011357e+04
2.555235e+02,1.008321e+04
2.584161e+02,1.008848e+04
2.613088e+02,1.016073e+04
2.642015e+02,1.019069e+04
2.670942e+02,1.019215e+04
2.699869e+02,1.025696e+04
2.728796e+02,1.028201e+04
2.757723e+02,1.028558e+04
2.786650e+02,1.033735e+04
2.815577e+02,1.032657e+04
2.844504e+02,1.033188e+04
2.873431e+02,1.030058e+04
2.902358e+02,1.028576e+04
2.931285e+02,1.030115e+04
2.960212e+02,1.030759e+04
2.989139e+02,1.029380e+04
3.018066e+02,1.029597e+04
3.046993e+02,1.029053e+04
3.075920e+02,1.028820e+04
3.104847e+02,1.030673e+04
3.133774e+02,1.035136e+04
3.162701e+02,1.033276e+04
3.191628e+02,1.033281e+04
3.220555e+02,1.034646e+04
3.249482e+02,1.036017e+04
3.278409e+02,1.036753e+04
3.307336e+02,1.038788e+04
3.336263e+02,1.038979e+04
3.365190e+02,1.035388e+04
3.394117e+02,1.036793e+04
3.423044e+02,1.039515e+04
3.451971e+02,1.040385e+04
3.480898e+02,1.042188e+04
3.509825e+02,1.040447e+04
3.538752e+02,1.043252e+04
3.567680e+02,1.045670e+04
3.596607e+02,1.048138e+04
3.625534e+02,1.046957e+04
3.654461e+02,1.043415e+04
3.683388e+02,1.044137e+04
3.712315e+02,1.047808e+04
3.741242e+02,1.051220e+04
3.770169e+02,1.048407e+04
3.799096e+02,1.051077e+04
3.828023e+02,1.046655e+04
3.856950e+02,1.050020e+04
3.885877e+02,1.055147e+04
3.914804e+02,1.057257e+04
3.943731e+02,1.058315e+04
3.972658e+02,1.052709e+04
4.001585e+02,1.054811e+04
4.030512e+02,1.059261e+04
4.059439e+02,1.058499e+04
4.088366e+02,1.058480e+04
4.117293e+02,1.053884e+04
4.146220e+02,1.056246e+04
4.175147e+02,1.061039e+04
4.204074e+02,1.058697e+04
4.233001e+02,1.054913e+04
4.261928e+02,1.056893e+04
4.290855e+02,1.057505e+04
4.319782e+02,1.059421e+04
4.348709e+02,1.060275e+04
4.377636e+02,1.060537e+04
4.406563e+02,1.058621e+04
4.435490e+02,1.057607e+04
4.464417e+02,1.062376e+04
4.493344e+02,1.063025e+04
4.522271e+02,1.060781e+04
4.551198e+02,1.061408e+04
4.580125e+02,1.062939e+04
4.609052e+02,1.059386e+04
4.637979e+02,1.062311e+04
4.666906e+02,1.064861e+04
4.695833e+02,1.063777e+04
4.724760e+02,1.062594e+04
4.753687e+02,1.059596e+04
4.782614e+02,1.059769e+04
4.811541e+02,1.060032e+04
4.840468e+02,1.061123e+04
4.869395e+02,1.065281e+04
4.898322e+02,1.061941e+04
4.927249e+02,1.060475e+04
4.956176e+02,1.063524e+04
4.985103e+02,1.066193e+04
5.014030e+02,1.063662e+04
5.042957e+02,1.066106e+04
5.071884e+02,1.066371e+04
5.100811e+02,1.062209e+04
5.129738e+02,1.065393e+04
5.158665e+02,1.065414e+04
5.187592e+02,1.064274e+04
5.216519e+02,1.065036e+04
5.245446e+02,1.066533e+04
5.274373e+02,1.070331e+04
5.303300e+02,1.073942e+04
5.332227e+02,1.073675e+04
5.361154e+02,1.078126e+04
5.390081e+02,1.082413e+04
5.419008e+02,1.087080e+04
5.447935e+02,1.087441e+04
5.476862e+02,1.086895e+04
5.505789e+02,1.085929e+04
5.534716e+02,1.087891e+04
5.563643e+02,1.089997e+04
5.592570e+02,1.090906e+04
5.621497e+02,1.084491e+04
5.650424e+02,1.077164e+04
5.679351e+02,1.068406e+04
5.708278e+02,1.063841e+04
5.737205e+02,1.066272e+04
5.766132e+02,1.064498e+04
5.795059e+02,1.065954e+04
5.823986e+02,1.065097e+04
5.852913e+02,1.064970e+04
5.881840e+02,1.064885e+04
5.910767e+02,1.068588e+04
5.939694e+02,1.074465e+04
5.968621e+02,1.070466e+04
5.997548e+02,1.072690e+04
6.026475e+02,1.066458e+04
6.055402e+02,1.071563e+04
6.084329e+02,1.079208e+04
6.113256e+02,1.079966e+04
6.142183e+02,1.070757e+04
6.171110e+02,1.064946e+04
6.200037e+02,1.061189e+04
6.228964e+02,1.063677e+04
6.257891e+02,1.060237e+04
6.286818e+02,1.062675e+04
6.315745e+02,1.058208e+04
6.344672e+02,1.059027e+04
6.373599e+02,1.053668e+04
6.402526e+02,1.057084e+04
6.431453e+02,1.055182e+04
6.460380e+02,1.052029e+04
6.489307e+02,1.054045e+04
6.518234e+02,1.054301e+04
6.547161e+02,1.052006e+04
6.576088e+02,1.048603e+04
6.605015e+02,1.050185e+04
6.633942e+02,1.051133e+04
6.662869e+02,1.050617e+04
6.691796e+02,1.054933e+04
6.720723e+02,1.054310e+04
6.749650e+02,1.050611e+04
6.778577e+02,1.048503e+04
6.807504e+02,1.044249e+04
6.836431e+02,1.047663e+04
6.865358e+02,1.044652e+04
6.894285e+02,1.042231e+04
6.923212e+02,1.038253e+04
6.952139e+02,1.036689e+04
6.981066e+02,1.039867e+04
7.009993e+02,1.037600e+04
7.038920e+02,1.038415e+04
7.067847e+02,1.035887e+04
7.096774e+02,1.034609e+04
7.125701e+02,1.034735e+04
7.154628e+02,1.034674e+04
7.183555e+02,1.033966e+04
7.212482e+02,1.029494e+04
7.241409e+02,1.028601e+04
7.270336e+02,1.026284e+04
7.299263e+02,1.028560e+04
7.328190e+02,1.030040e+04
7.357117e+02,1.026983e+04
7.386044e+02,1.021957e+04
7.414971e+02,1.027177e+04
7.443898e+02,1.026621e+04
7.472825e+02,1.027134e+04
7.501752e+02,1.026191e+04
7.530679e+02,1.026413e+04
7.559606e+02,1.024204e+04
7.588533e+02,1.024500e+04
7.617460e+02,1.027164e+04
7.646387e+02,1.020996e+04
7.675314e+02,1.021475e+04
7.704241e+02,1.016778e+04
7.733168e+02,1.016954e+04
7.762095e+02,1.018977e+04
7.791022e+02,1.020957e+04
7.819949e+02,1.019030e+04
7.848876e+02,1.018521e+04
7.877803e+02,1.016947e+04
7.906730e+02,1.016302e+04
7.935657e+02,1.012518e+04
7.964584e+02,1.007553e+04
7.993511e+02,1.005910e+04
8.022438e+02,1.005514e+04
8.051365e+02,1.006446e+04
8.080292e+02,1.005482e+04
8.109219e+02,1.001091e+04
8.138146e+02,9.989612e+03
8.167073e+02,9.988760e+03
8.196000e+02,9.972597e+03
8.224927e+02,9.984549e+03
8.253854e+02,9.987958e+03
8.282781e+02,9.978027e+03
8.311708e+02,9.940783e+03
8.340635e+02,9.945839e+03
8.369562e+02,9.942612e+03
8.398489e+02,9.964061e+03
8.427416e+02,9.959042e+03
8.456343e+02,9.886997e+03
8.485270e+02,9.895687e+03
8.514197e+02,9.868210e+03
8.543124e+02,9.861874e+03
8.572051e+02,9.852296e+03
8.600978e+02,9.830813e+03
8.629905e+02,9.803291e+03
8.658832e+02,9.811176e+03
8.687759e+02,9.805494e+03
8.716686e+02,9.824483e+03
8.745613e+02,9.746925e+03
8.774540e+02,9.773557e+03
8.803467e+02,9.727626e+03
8.832394e+02,9.737248e+03
8.861321e+02,9.751431e+03
8.890248e+02,9.742811e+03
8.919175e+02,9.730333e+03
8.948102e+02,9.714738e+03
8.977029e+02,9.672428e+03
9.005956e+02,9.695189e+03
9.034883e+02,9.679081e+03
9.063810e+02,9.629063e+03
9.092737e+02,9.590137e+03
9.121664e+02,9.597690e+03
9.150591e+02,9.608649e+03
9.179518e+02,9.587866e+03
9.208445e+02,9.550136e+03
9.237372e+02,9.538384e+03
9.266299e+02,9.534521e+03
9.295226e+02,9.539561e+03
9.324153e+02,9.502105e+03
9.353080e+02,9.506251e+03
9.382007e+02,9.480899e+03
9.410934e+02,9.479991e+03
9.439861e+02,9.467020e+03
9.468788e+02,9.465313e+03
9.497715e+02,9.460138e+03
9.526642e+02,9.411454e+03
9.555569e+02,9.376311e+03
9.584496e+02,9.372535e+03
9.613423e+02,9.364366e+03
9.642350e+02,9.353298e+03
9.671277e+02,9.340141e+03
9.700204e+02,9.308537e+03
9.729131e+02,9.272294e+03
9.758058e+02,9.294556e+03
9.786985e+02,9.303265e+03
9.815912e+02,9.284338e+03
9.844839e+02,9.260663e+03
9.873766e+02,9.208659e+03
9.902693e+02,9.226309e+03
9.931620e+02,9.212173e+03
9.960547e+02,9.222705e+03
9.989474e+02,9.194375e+03
1.001840e+03,9.138016e+03
1.004733e+03,9.141328e+03
1.007626e+03,9.154066e+03
1.010518e+03,9.165190e+03
1.013411e+03,9.116629e+03
1.016304e+03,9.125101e+03
1.019196e+03,9.085936e+03
1.022089e+03,9.102917e+03
1.024982e+03,9.083717e+03
1.027875e+03,9.071006e+03
1.030767e+03,9.035851e+03
1.033660e+03,9.030824e+03
1.036552e+03,9.007093e+03
1.039445e+03,9.031953e+03
1.042338e+03,9.005359e+03
1.045231e+03,8.986438e+03
1.048123e+03,8.957122e+03
1.051016e+03,8.940854e+03
1.053909e+03,8.989785e+03
1.056802e+03,8.967099e+03
1.059694e+03,8.940020e+03
1.062587e+03,8.911785e+03
1.065479e+03,8.883266e+03
1.068372e+03,8.904092e+03
1.071265e+03,8.945050e+03
1.074158e+03,8.933291e+03
1.077050e+03,8.910809e+03
1.079943e+03,8.892653e+03
1.082836e+03,8.917678e+03
1.085729e+03,8.862201e+03
1.088621e+03,8.861088e+03
1.091514e+03,8.795802e+03
1.094406e+03,8.774365e+03
1.097299e+03,8.760679e+03
1.100192e+03,8.754356e+03
1.103085e+03,8.746175e+03
1.105977e+03,8.717351e+03
1.108870e+03,8.686473e+03
1.111763e+03,8.675573e+03
1.114656e+03,8.644819e+03
1.117548e+03,8.684118e+03
1.120441e+03,8.670467e+03
1.123334e+03,8.635816e+03
1.126226e+03,8.577213e+03
1.129119e+03,8.599382e+03
1.132012e+03,8.604660e+03
1.134904e+03,8.602648e+03
1.137797e+03,8.546558e+03
1.140690e+03,8.575483e+03
1.143583e+03,8.573174e+03
1.146475e+03,8.582081e+03
1.149368e+03,8.527157e+03
1.152261e+03,8.528656e+03
1.155153e+03,8.480956e+03
1.158046e+03,8.456990e+03
1.160939e+03,8.426854e+03
1.163831e+03,8.446171e+03
1.166724e+03,8.438494e+03
1.169617e+03,8.419464e+03
1.172510e+03,8.376022e+03
1.175402e+03,8.417164e+03
1.178295e+03,8.405341e+03
1.181188e+03,8.384885e+03
1.184080e+03,8.399572e+03
1.186973e+03,8.364345e+03
1.189866e+03,8.371400e+03
1.192758e+03,8.359248e+03
1.195651e+03,8.355526e+03
1.198544e+03,8.345987e+03
1.201437e+03,8.257801e+03
1.204329e+03,8.274478e+03
1.207222e+03,8.262661e+03
1.210115e+03,8.291355e+03
1.213007e+03,8.255624e+03
1.215900e+03,8.245612e+03
1.218793e+03,8.236326e+03
1.221685e+03,8.269481e+03
1.224578e+03,8.265106e+03
1.227471e+03,8.227503e+03
1.230364e+03,8.195176e+03
1.233256e+03,8.162533e+03
1.236149e+03,8.155105e+03
1.239042e+03,8.148900e+03
1.241934e+03,8.133764e+03
1.244827e+03,8.115587e+03
1.247720e+03,8.088227e+03
1.250612e+03,8.053226e+03
1.253505e+03,8.059828e+03
1.256398e+03,8.044069e+03
1.259291e+03,8.002682e+03
1.262183e+03,7.981592e+03
1.265076e+03,7.956666e+03
1.267969e+03,7.957828e+03
1.270861e+03,7.968140e+03
1.273754e+03,7.973458e+03
1.276647e+03,7.947155e+03
1.279539e+03,7.912655e+03
1.282432e+03,7.919998e+03
1.285325e+03,7.919728e+03
1.288218e+03,7.880302e+03
1.291110e+03,7.853175e+03
1.294003e+03,7.868646e+03
1.296896e+03,7.825055e+03
1.299788e+03,7.826930e+03
1.302681e+03,7.837996e+03
1.305574e+03,7.875373e+03
1.308466e+03,7.860928e+03
1.311359e+03,7.829270e+03
1.314252e+03,7.811096e+03
1.317145e+03,7.788368e+03
1.320037e+03,7.792827e+03
1.322930e+03,7.772085e+03
1.325823e+03,7.731407e+03
1.328715e+03,7.716951e+03
1.331608e+03,7.751443e+03
1.334501e+03,7.749670e+03
1.337393e+03,7.737080e+03
1.340286e+03,7.698803e+03
1.343179e+03,7.679464e+03
1.346072e+03,7.647396e+03
1.348964e+03,7.658019e+03
1.351857e+03,7.649079e+03
1.354750e+03,7.605897e+03
1.357642e+03,7.624200e+03
1.360535e+03,7.618239e+03
1.363428e+03,7.568565e+03
1.366320e+03,7.568336e+03
1.369213e+03,7.540763e+03
1.372106e+03,7.515477e+03
1.374999e+03,7.487584e+03
1.377891e+03,7.488617e+03
1.380784e+03,7.469172e+03
1.383677e+03,7.445003e+03
1.386569e+03,7.447041e+03
1.389462e+03,7.418589e+03
1.392355e+03,7.413956e+03
1.395247e+03,7.383736e+03
1.398140e+03,7.404668e+03
1.401033e+03,7.390143e+03
1.403926e+03,7.353295e+03
1.406818e+03,7.363443e+03
1.409711e+03,7.344809e+03
1.412604e+03,7.329360e+03
1.415496e+03,7.308158e+03
1.418389e+03,7.316959e+03
1.421282e+03,7.302491e+03
1.424174e+03,7.275975e+03
1.427067e+03,7.293598e+03
1.429960e+03,7.262896e+03
1.432853e+03,7.275039e+03
1.435745e+03,7.224572e+03
1.438638e+03,7.228340e+03
1.441531e+03,7.223959e+03
1.444423e+03,7.235231e+03
1.447316e+03,7.243990e+03
1.450209e+03,7.226436e+03
1.453101e+03,7.232369e+03
1.455994e+03,7.197160e+03
1.458887e+03,7.204148e+03
1.461780e+03,7.174094e+03
1.464672e+03,7.120977e+03
1.467565e+03,7.123868e+03
1.470458e+03,7.089886e+03
1.473350e+03,7.080955e+03
1.476243e+03,7.081683e+03
1.479136e+03,7.086388e+03
1.482028e+03,7.057360e+03
1.484921e+03,7.017517e+03
1.487814e+03,7.019359e+03
1.490707e+03,7.019556e+03
1.493599e+03,7.018115e+03
1.496492e+03,6.987124e+03
1.499385e+03,6.973155e+03
1.502277e+03,6.990450e+03
1.505170e+03,6.984367e+03
1.508063e+03,6.996167e+03
1.510955e+03,6.977686e+03
1.513848e+03,6.956192e+03
1.516741e+03,6.980669e+03
1.519634e+03,6.988180e+03
1.522526e+03,6.961966e+03
1.525419e+03,6.895582e+03
1.528312e+03,6.898006e+03
1.531204e+03,6.843036e+03
1.534097e+03,6.867349e+03
1.536990e+03,6.831876e+03
1.539882e+03,6.826331e+03
1.542775e+03,6.820015e+03
1.545668e+03,6.791690e+03
1.548561e+03,6.822992e+03
1.551453e+03,6.816923e+03
1.554346e+03,6.821426e+03
1.557239e+03,6.839666e+03
1.560131e+03,6.840867e+03
1.563024e+03,6.926034e+03
1.565917e+03,7.039564e+03
1.568809e+03,7.097833e+03
1.571702e+03,7.091439e+03
1.574595e+03,6.990937e+03
1.577488e+03,6.939618e+03
1.580380e+03,6.919060e+03
1.583273e+03,6.860771e+03
1.586166e+03,6.779951e+03
1.589058e+03,6.706599e+03
1.591951e+03,6.651438e+03
1.594844e+03,6.641843e+03
1.597736e+03,6.633627e+03
1.600629e+03,6.594573e+03
1.603522e+03,6.613516e+03
1.606415e+03,6.581708e+03
1.609307e+03,6.560006e+03
1.612200e+03,6.525960e+03
1.615093e+03,6.551690e+03
1.617985e+03,6.539507e+03
1.620878e+03,6.510622e+03
1.623771e+03,6.508026e+03
1.626663e+03,6.549159e+03
1.629556e+03,6.511053e+03
1.632449e+03,6.474956e+03
1.635342e+03,6.430503e+03
1.638234e+03,6.407063e+03
1.641127e+03,6.377470e+03
1.644020e+03,6.364583e+03
1.646912e+03,6.368796e+03
1.649805e+03,6.352861e+03
1.652698e+03,6.320664e+03
1.655590e+03,6.325956e+03
1.658483e+03,6.326524e+03
1.661376e+03,6.285614e+03
1.664269e+03,6.276401e+03
1.667161e+03,6.287090e+03
1.670054e+03,6.262776e+03
1.672947e+03,6.287750e+03
1.675839e+03,6.250229e+03
1.678732e+03,6.231630e+03
1.681625e+03,6.214628e+03
1.684517e+03,6.200828e+03
1.687410e+03,6.205461e+03
1.690303e+03,6.173681e+03
1.693196e+03,6.197546e+03
1.696088e+03,6.161667e+03
1.698981e+03,6.130896e+03
1.701874e+03,6.145359e+03
1.704766e+03,6.114716e+03
1.707659e+03,6.094998e+03
1.710552e+03,6.077594e+03
1.713444e+03,6.084949e+03
1.716337e+03,6.071320e+03
1.719230e+03,6.071811e+03
1.722123e+03,6.031731e+03
1.725015e+03,6.014008e+03
1.727908e+03,6.012547e+03
1.730801e+03,6.002163e+03
1.733693e+03,5.991031e+03
1.736586e+03,5.975499e+03
1.739479e+03,5.972441e+03
1.742371e+03,5.940128e+03
1.745264e+03,5.950500e+03
1.748157e+03,5.905567e+03
1.751050e+03,5.928489e+03
1.753942e+03,5.911106e+03
1.756835e+03,5.921179e+03
1.759728e+03,5.876875e+03
1.762620e+03,5.855974e+03
1.765513e+03,5.891178e+03
1.768406e+03,5.852752e+03
1.771298e+03,5.838730e+03
1.774191e+03,5.837657e+03
1.777084e+03,5.810607e+03
1.779977e+03,5.796339e+03
1.782869e+03,5.805843e+03
1.785762e+03,5.788671e+03
1.788655e+03,5.780122e+03
1.791547e+03,5.733862e+03
1.794440e+03,5.739383e+03
1.797333e+03,5.731348e+03
1.800225e+03,5.745845e+03
1.803118e+03,5.695298e+03
1.806011e+03,5.696966e+03
1.808904e+03,5.710394e+03
1.811796e+03,5.702604e+03
1.814689e+03,5.675077e+03
1.817582e+03,5.628688e+03
1.820474e+03,5.665968e+03
1.823367e+03,5.619509e+03
1.826260e+03,5.602625e+03
1.829152e+03,5.647433e+03
1.832045e+03,5.629095e+03
1.834938e+03,5.579037e+03
1.837831e+03,5.563283e+03
1.840723e+03,5.554700e+03
1.843616e+03,5.597331e+03
1.846509e+03,5.554009e+03
1.849401e+03,5.524094e+03
1.852294e+03,5.536527e+03
1.855187e+03,5.526790e+03
1.858079e+03,5.491974e+03
1.860972e+03,5.474209e+03
1.863865e+03,5.513786e+03
1.866758e+03,5.433959e+03
1.869650e+03,5.459777e+03
1.872543e+03,5.444775e+03
1.875436e+03,5.435584e+03
1.878328e+03,5.410292e+03
1.881221e+03,5.381667e+03
1.884114e+03,5.413526e+03
1.887006e+03,5.369750e+03
1.889899e+03,5.371022e+03
1.892792e+03,5.369232e+03
1.895685e+03,5.365344e+03
1.898577e+03,5.326845e+03
1.901470e+03,5.315646e+03
1.904363e+03,5.334077e+03
1.907255e+03,5.285464e+03
1.910148e+03,5.312655e+03
1.913041e+03,5.266067e+03
1.915933e+03,5.224166e+03
1.918826e+03,5.217671e+03
1.921719e+03,5.226797e+03
1.924612e+03,5.217563e+03
1.927504e+03,5.218021e+03
1.930397e+03,5.178012e+03
1.933290e+03,5.201643e+03
1.936182e+03,5.223502e+03
1.939075e+03,5.149148e+03
1.941968e+03,5.154208e+03
1.944860e+03,5.148081e+03
1.947753e+03,5.103257e+03
1.950646e+03,5.114656e+03
1.953539e+03,5.109775e+03
1.956431e+03,5.080724e+03
1.959324e+03,5.086549e+03
1.962217e+03,5.075439e+03
1.965109e+03,5.048249e+03
1.968002e+03,5.053058e+03
1.970895e+03,5.034501e+03
1.973787e+03,5.015908e+03
1.976680e+03,5.009160e+03
1.979573e+03,4.974141e+03
1.982466e+03,5.000866e+03
1.985358e+03,4.977133e+03
1.988251e+03,4.989974e+03
1.991144e+03,4.918999e+03
1.994036e+03,4.938154e+03
1.996929e+03,4.901634e+03
1.999822e+03,4.944999e+03
2.002714e+03,4.878522e+03
2.005607e+03,4.883845e+03
2.008500e+03,4.868655e+03
2.011393e+03,4.878687e+03
2.014285e+03,4.878260e+03
2.017178e+03,4.820323e+03
2.020071e+03,4.819351e+03
2.022963e+03,4.827552e+03
2.025856e+03,4.770708e+03
2.028749e+03,4.800050e+03
2.031641e+03,4.805392e+03
2.034534e+03,4.793634e+03
2.037427e+03,4.755403e+03
2.040320e+03,4.740292e+03
2.043212e+03,4.718040e+03
2.046105e+03,4.734100e+03
2.048998e+03,4.725117e+03
2.051890e+03,4.712679e+03
2.054783e+03,4.650779e+03
2.057676e+03,4.657319e+03
2.060568e+03,4.664615e+03
2.063461e+03,4.669092e+03
2.066354e+03,4.643294e+03
2.069247e+03,4.630448e+03
2.072139e+03,4.606304e+03
2.075032e+03,4.600670e+03
2.077925e+03,4.583093e+03
2.080817e+03,4.579830e+03
2.083710e+03,4.590555e+03
2.086603e+03,4.558498e+03
2.089496e+03,4.592406e+03
2.092388e+03,4.545216e+03
2.095281e+03,4.537705e+03
2.098174e+03,4.508555e+03
2.101066e+03,4.502958e+03
2.103959e+03,4.492780e+03
2.106852e+03,4.482029e+03
2.109744e+03,4.493967e+03
2.112637e+03,4.473530e+03
2.115530e+03,4.401433e+03
2.118422e+03,4.449047e+03
2.121315e+03,4.436156e+03
2.124208e+03,4.437970e+03
2.127101e+03,4.349331e+03
2.129993e+03,4.377031e+03
2.132886e+03,4.387503e+03
2.135779e+03,4.403485e+03
2.138671e+03,4.348638e+03
2.141564e+03,4.347907e+03
2.144457e+03,4.325119e+03
2.147350e+03,4.269625e+03
2.150242e+03,4.315045e+03
2.153135e+03,4.306102e+03
2.156028e+03,4.280441e+03
2.158920e+03,4.257072e+03
2.161813e+03,4.285659e+03
2.164706e+03,4.240237e+03
2.167598e+03,4.216862e+03
2.170491e+03,4.228187e+03
2.173384e+03,4.201751e+03
2.176277e+03,4.192815e+03
2.179169e+03,4.184265e+03
2.182062e+03,4.182699e+03
2.184955e+03,4.164299e+03
2.187847e+03,4.153987e+03
2.190740e+03,4.149470e+03
2.193633e+03,4.141839e+03
2.196525e+03,4.124081e+03
2.199418e+03,4.103596e+03
2.202311e+03,4.117077e+03
2.205204e+03,4.127549e+03
2.208096e+03,4.069135e+03
2.210989e+03,4.044146e+03
2.213882e+03,4.061388e+03
2.216774e+03,4.070476e+03
2.219667e+03,4.042541e+03
2.222560e+03,4.033147e+03
2.225452e+03,3.993546e+03
2.228345e+03,3.999147e+03
2.231238e+03,4.016756e+03
2.234131e+03,3.967716e+03
2.237023e+03,3.967350e+03
2.239916e+03,3.932837e+03
2.242809e+03,3.946228e+03
2.245701e+03,3.940316e+03
2.248594e+03,3.917161e+03
2.251487e+03,3.926693e+03
2.254379e+03,3.897526e+03
2.257272e+03,3.872543e+03
2.260165e+03,3.868618e+03
2.263058e+03,3.865828e+03
2.265950e+03,3.856440e+03
2.268843e+03,3.810265e+03
2.271736e+03,3.809410e+03
2.274628e+03,3.812101e+03
2.277521e+03,3.819716e+03
2.280414e+03,3.787485e+03
2.283306e+03,3.764157e+03
2.286199e+03,3.769609e+03
2.289092e+03,3.753625e+03
2.291985e+03,3.764494e+03
2.294877e+03,3.743721e+03
2.297770e+03,3.755334e+03
2.300663e+03,3.727135e+03
2.303555e+03,3.734982e+03
2.306448e+03,3.671473e+03
2.309341e+03,3.676652e+03
2.312233e+03,3.683870e+03
2.315126e+03,3.678368e+03
2.318019e+03,3.666947e+03
2.320912e+03,3.645014e+03
2.323804e+03,3.657204e+03
2.326697e+03,3.656813e+03
2.329590e+03,3.610561e+03
2.332482e+03,3.630447e+03
2.335375e+03,3.618044e+03
2.338268e+03,3.552589e+03
2.341160e+03,3.585453e+03
2.344053e+03,3.607101e+03
2.346946e+03,3.577663e+03
2.349839e+03,3.567761e+03
2.352731e+03,3.521756e+03
2.355624e+03,3.570998e+03
2.358517e+03,3.530052e+03
2.361409e+03,3.484284e+03
2.364302e+03,3.485884e+03
2.367195e+03,3.505680e+03
2.370087e+03,3.459746e+03
2.372980e+03,3.470799e+03
2.375873e+03,3.471692e+03
2.378766e+03,3.433136e+03
2.381658e+03,3.434429e+03
2.384551e+03,3.438413e+03
2.387444e+03,3.426914e+03
2.390336e+03,3.418442e+03
2.393229e+03,3.417946e+03
2.396122e+03,3.384686e+03
2.399014e+03,3.369772e+03
2.401907e+03,3.369849e+03
2.404800e+03,3.391021e+03
2.407693e+03,3.366765e+03
2.410585e+03,3.351746e+03
2.413478e+03,3.330629e+03
2.416371e+03,3.351518e+03
2.419263e+03,3.300648e+03
2.422156e+03,3.317530e+03
2.425049e+03,3.313379e+03
2.427941e+03,3.278265e+03
2.430834e+03,3.273673e+03
2.433727e+03,3.260621e+03
2.436620e+03,3.250777e+03
2.439512e+03,3.269969e+03
2.442405e+03,3.249593e+03
2.445298e+03,3.237149e+03
2.448190e+03,3.181969e+03
2.451083e+03,3.234523e+03
2.453976e+03,3.224949e+03
2.456868e+03,3.183272e+03
2.459761e+03,3.182894e+03
2.462654e+03,3.171501e+03
2.465547e+03,3.164484e+03
2.468439e+03,3.145778e+03
2.471332e+03,3.180009e+03
2.474225e+03,3.139801e+03
2.477117e+03,3.114758e+03
2.480010e+03,3.129102e+03
2.482903e+03,3.108992e+03
2.485795e+03,3.112071e+03
2.488688e+03,3.123326e+03
2.491581e+03,3.085018e+03
2.494474e+03,3.092349e+03
2.497366e+03,3.096396e+03
2.500259e+03,3.074275e+03
2.503152e+03,3.072277e+03
2.506044e+03,3.048645e+03
2.508937e+03,3.030427e+03
2.511830e+03,3.036285e+03
2.514722e+03,3.030505e+03
2.517615e+03,3.015654e+03
2.520508e+03,3.011668e+03
2.523401e+03,3.003680e+03
2.526293e+03,2.983954e+03
2.529186e+03,2.974055e+03
2.532079e+03,2.990430e+03
2.534971e+03,2.968894e+03
2.537864e+03,2.956980e+03
2.540757e+03,2.952608e+03
2.543649e+03,2.961031e+03
2.546542e+03,2.958026e+03
2.549435e+03,2.960554e+03
2.552328e+03,2.938074e+03
2.555220e+03,2.926208e+03
2.558113e+03,2.923105e+03
2.561006e+03,2.889123e+03
2.563898e+03,2.885757e+03
2.566791e+03,2.901813e+03
2.569684e+03,2.875740e+03
2.572576e+03,2.879491e+03
2.575469e+03,2.864753e+03
2.578362e+03,2.860158e+03
2.581255e+03,2.840236e+03
2.584147e+03,2.861567e+03
2.587040e+03,2.847417e+03
2.589933e+03,2.823973e+03
2.592825e+03,2.834242e+03
2.595718e+03,2.813884e+03
2.598611e+03,2.815792e+03
2.601503e+03,2.814172e+03
2.604396e+03,2.797685e+03
2.607289e+03,2.801280e+03
2.610182e+03,2.784774e+03
2.613074e+03,2.762921e+03
2.615967e+03,2.743335e+03
2.618860e+03,2.753999e+03
2.621752e+03,2.773775e+03
2.624645e+03,2.740318e+03
2.627538e+03,2.752788e+03
2.630430e+03,2.725921e+03
2.633323e+03,2.740935e+03
2.636216e+03,2.722106e+03
2.639109e+03,2.717751e+03
2.642001e+03,2.706559e+03
2.644894e+03,2.712635e+03
2.647787e+03,2.697891e+03
2.650679e+03,2.679388e+03
2.653572e+03,2.694024e+03
2.656465e+03,2.676402e+03
2.659357e+03,2.657921e+03
2.662250e+03,2.682118e+03
2.665143e+03,2.659677e+03
2.668036e+03,2.653120e+03
2.670928e+03,2.656267e+03
2.673821e+03,2.658145e+03
2.676714e+03,2.644195e+03
2.679606e+03,2.616508e+03
2.682499e+03,2.599815e+03
2.685392e+03,2.603311e+03
2.688284e+03,2.605445e+03
2.691177e+03,2.609161e+03
2.694070e+03,2.603396e+03
2.696963e+03,2.582444e+03
2.699855e+03,2.594357e+03
2.702748e+03,2.551508e+03
2.705641e+03,2.574645e+03
2.708533e+03,2.577689e+03
2.711426e+03,2.547340e+03
2.714319e+03,2.534208e+03
2.717211e+03,2.539778e+03
2.720104e+03,2.526005e+03
2.722997e+03,2.536716e+03
2.725890e+03,2.542063e+03
2.728782e+03,2.502678e+03
2.731675e+03,2.536315e+03
2.734568e+03,2.498831e+03
2.737460e+03,2.508927e+03
2.740353e+03,2.493595e+03
2.743246e+03,2.476912e+03
2.746138e+03,2.495907e+03
2.749031e+03,2.450098e+03
2.751924e+03,2.485177e+03
2.754817e+03,2.465288e+03
2.757709e+03,2.461809e+03
2.760602e+03,2.443663e+03
2.763495e+03,2.464066e+03
2.766387e+03,2.432868e+03
2.769280e+03,2.426788e+03
2.772173e+03,2.425945e+03
2.775065e+03,2.431847e+03
2.777958e+03,2.403985e+03
2.780851e+03,2.423673e+03
2.783744e+03,2.398146e+03
2.786636e+03,2.417954e+03
2.789529e+03,2.399835e+03
2.792422e+03,2.391623e+03
2.795314e+03,2.422343e+03
2.798207e+03,2.362028e+03
2.801100e+03,2.384262e+03
2.803992e+03,2.357050e+03
2.806885e+03,2.373534e+03
2.809778e+03,2.357002e+03
2.812671e+03,2.400808e+03
2.815563e+03,2.368901e+03
2.818456e+03,2.374443e+03
2.821349e+03,2.335409e+03
2.824241e+03,2.365798e+03
2.827134e+03,2.327381e+03
2.830027e+03,2.327624e+03
2.832919e+03,2.315770e+03
2.835812e+03,2.291642e+03
2.838705e+03,2.314313e+03
2.841598e+03,2.315935e+03
2.844490e+03,2.302829e+03
2.847383e+03,2.318203e+03
2.850276e+03,2.293902e+03
2.853168e+03,2.281418e+03
2.856061e+03,2.287046e+03
2.858954e+03,2.270213e+03
2.861846e+03,2.255153e+03
2.864739e+03,2.272502e+03
2.867632e+03,2.299242e+03
2.870525e+03,2.279113e+03
2.873417e+03,2.253308e+03
2.876310e+03,2.265792e+03
2.879203e+03,2.229262e+03
2.882095e+03,2.242754e+03
2.884988e+03,2.253627e+03
2.887881e+03,2.196802e+03
2.890773e+03,2.248021e+03
2.893666e+03,2.222299e+03
2.896559e+03,2.262373e+03
2.899452e+03,2.188465e+03
2.902344e+03,2.211829e+03
2.905237e+03,2.198820e+03
2.908130e+03,2.197839e+03
2.911022e+03,2.154287e+03
2.913915e+03,2.202198e+03
2.916808e+03,2.217956e+03
2.919700e+03,2.209851e+03
2.922593e+03,2.163938e+03
2.925486e+03,2.158979e+03
2.928379e+03,2.152176e+03
2.931271e+03,2.180190e+03
2.934164e+03,2.152826e+03
2.937057e+03,2.127741e+03
2.939949e+03,2.156209e+03
2.942842e+03,2.121215e+03
2.945735e+03,2.169181e+03
2.948627e+03,2.145483e+03
2.951520e+03,2.159654e+03
2.954413e+03,2.156256e+03
2.957306e+03,2.170058e+03
2.960198e+03,2.119383e+03
2.963091e+03,2.137830e+03
2.965984e+03,2.091690e+03
2.968876e+03,2.129341e+03
2.971769e+03,2.097853e+03
2.974662e+03,2.086833e+03
2.977554e+03,2.133167e+03
2.980447e+03,2.081852e+03
2.983340e+03,2.078017e+03
2.986233e+03,2.053902e+03
2.989125e+03,2.086304e+03
2.992018e+03,2.104210e+03
2.994911e+03,2.048587e+03
2.997803e+03,2.097230e+03
3.000696e+03,2.022935e+03
3.003589e+03,2.028719e+03
3.006481e+03,2.041729e+03
3.009374e+03,2.051165e+03
3.012267e+03,2.060869e+03
3.015160e+03,2.049494e+03
3.018052e+03,2.079658e+03
3.020945e+03,2.036620e+03
3.023838e+03,2.067409e+03
3.026730e+03,2.061799e+03
3.029623e+03,2.048991e+03
3.032516e+03,2.014789e+03
3.035408e+03,2.018302e+03
3.038301e+03,1.988892e+03
3.041194e+03,2.058589e+03
3.044087e+03,2.023391e+03
3.046979e+03,2.009785e+03
3.049872e+03,2.045686e+03
3.052765e+03,1.987161e+03
3.055657e+03,1.995224e+03
3.058550e+03,2.023401e+03
3.061443e+03,1.993333e+03
3.064335e+03,2.009529e+03
3.067228e+03,1.963327e+03
3.070121e+03,2.011921e+03
3.073014e+03,1.988265e+03
3.075906e+03,1.996700e+03
3.078799e+03,1.998789e+03
3.081692e+03,1.981776e+03
3.084584e+03,1.960939e+03
3.087477e+03,1.969410e+03
3.090370e+03,1.954568e+03
3.093262e+03,1.979069e+03
3.096155e+03,1.957758e+03
3.099048e+03,2.009012e+03
3.101941e+03,1.964055e+03
3.104833e+03,1.969837e+03
3.107726e+03,1.977530e+03
3.110619e+03,1.994220e+03
3.113511e+03,1.990028e+03
3.116404e+03,1.938355e+03
3.119297e+03,1.986184e+03
3.122189e+03,2.023105e+03
3.125082e+03,1.958329e+03
3.127975e+03,1.938036e+03
3.130868e+03,1.970842e+03
3.133760e+03,1.991245e+03
3.136653e+03,2.005309e+03
3.139546e+03,1.957066e+03
3.142438e+03,1.968354e+03
3.145331e+03,1.927530e+03
3.148224e+03,1.928775e+03
3.151116e+03,1.940955e+03
3.154009e+03,1.951579e+03
3.156902e+03,1.947560e+03
3.159795e+03,1.939143e+03
3.162687e+03,1.992452e+03
3.165580e+03,1.987742e+03
3.168473e+03,1.998664e+03
3.171365e+03,1.921068e+03
3.174258e+03,1.980847e+03
3.177151e+03,1.943897e+03
3.180043e+03,1.958982e+03
3.182936e+03,1.971056e+03
3.185829e+03,1.988215e+03
3.188722e+03,1.970565e+03
3.191614e+03,1.979737e+03
3.194507e+03,1.892318e+03
3.197400e+03,2.000887e+03
3.200292e+03,2.042804e+03
3.203185e+03,0.000000e+00
3.206078e+03,0.000000e+00
3.208970e+03,0.000000e+00
3.211863e+03,0.000000e+00
3.214756e+03,0.000000e+00
3.217649e+03,0.000000e+00
3.220541e+03,0.000000e+00
3.223434e+03,0.000000e+00
3.226327e+03,0.000000e+00
3.229219e+03,0.000000e+00
3.232112e+03,0.000000e+00
3.235005e+03,0.000000e+00
3.237897e+03,0.000000e+00
3.240790e+03,0.000000e+00
3.243683e+03,0.000000e+00
3.246576e+03,0.000000e+00
3.249468e+03,0.000000e+00
3.252361e+03,0.000000e+00
3.255254e+03,0.000000e+00
3.258146e+03,0.000000e+00
3.261039e+03,0.000000e+00
3.263932e+03,0.000000e+00
3.266824e+03,0.000000e+00
3.269717e+03,0.000000e+00
3.272610e+03,0.000000e+00
3.275503e+03,0.000000e+00
3.278395e+03,0.000000e+00
3.281288e+03,0.000000e+00
3.284181e+03,0.000000e+00
3.287073e+03,0.000000e+00
3.289966e+03,0.000000e+00
3.292859e+03,0.000000e+00
3.295751e+03,0.000000e+00
3.298644e+03,0.000000e+00
3.301537e+03,0.000000e+00
3.304430e+03,0.000000e+00
3.307322e+03,0.000000e+00
3.310215e+03,0.000000e+00
3.313108e+03,0.000000e+00
3.316000e+03,0.000000e+00
3.318893e+03,0.000000e+00
3.321786e+03,0.000000e+00
3.324678e+03,0.000000e+00
3.327571e+03,0.000000e+00
3.330464e+03,0.000000e+00
3.333357e+03,0.000000e+00
3.336249e+03,0.000000e+00
3.339142e+03,0.000000e+00
3.342035e+03,0.000000e+00
3.344927e+03,0.000000e+00
3.347820e+03,0.000000e+00
3.350713e+03,0.000000e+00
3.353605e+03,0.000000e+00
3.356498e+03,0.000000e+00
3.359391e+03,0.000000e+00
3.362284e+03,0.000000e+00
3.365176e+03,0.000000e+00
3.368069e+03,0.000000e+00
3.370962e+03,0.000000e+00
3.373854e+03,0.000000e+00
3.376747e+03,0.000000e+00
3.379640e+03,0.000000e+00
3.382532e+03,0.000000e+00
3.385425e+03,0.000000e+00
3.388318e+03,0.000000e+00
3.391211e+03,0.000000e+00
3.394103e+03,0.000000e+00
3.396996e+03,0.000000e+00
3.399889e+03,0.000000e+00
3.402781e+03,0.000000e+00
3.405674e+03,0.000000e+00
3.408567e+03,0.000000e+00
3.411459e+03,0.000000e+00
3.414352e+03,0.000000e+00
3.417245e+03,0.000000e+00
3.420138e+03,0.000000e+00
3.423030e+03,0.000000e+00
3.425923e+03,0.000000e+00
3.428816e+03,0.000000e+00
3.431708e+03,0.000000e+00
3.434601e+03,0.000000e+00
3.437494e+03,0.000000e+00
3.440386e+03,0.000000e+00
3.443279e+03,0.000000e+00
3.446172e+03,0.000000e+00
3.449065e+03,0.000000e+00
3.451957e+03,0.000000e+00
3.454850e+03,0.000000e+00
3.457743e+03,0.000000e+00
3.460635e+03,0.000000e+00
3.463528e+03,0.000000e+00
3.466421e+03,0.000000e+00
3.469313e+03,0.000000e+00
3.472206e+03,0.000000e+00
3.475099e+03,0.000000e+00
3.477992e+03,0.000000e+00
3.480884e+03,0.000000e+00
3.483777e+03,0.000000e+00
3.486670e+03,0.000000e+00
3.489563e+03,0.000000e+00
3.492455e+03,0.000000e+00
3.495348e+03,0.000000e+00
3.498240e+03,0.000000e+00
3.500169e+03,0.000000e+00