File: RAMAN_data/23052023_r3/blue fibre8.CSV
9.931763e+01,0.000000e+00
1.022103e+02,0.000000e+00
1.051030e+02,0.000000e+00
1.079957e+02,0.000000e+00
1.108884e+02,0.000000e+00
1.137811e+02,0.000000e+00
1.166738e+02,0.000000e+00
1.195665e+02,0.000000e+00
1.224592e+02,0.000000e+00
1.253519e+02,0.000000e+00
1.282446e+02,0.000000e+00
1.311373e+02,0.000000e+00
1.340300e+02,0.000000e+00
1.369227e+02,0.000000e+00
1.398154e+02,0.000000e+00
1.427081e+02,0.000000e+00
1.456008e+02,0.000000e+00
1.484935e+02,0.000000e+00
1.513862e+02,0.000000e+00
1.542789e+02,0.000000e+00
1.571716e+02,0.000000e+00
1.600643e+02,0.000000e+00
1.629570e+02,0.000000e+00
1.658497e+02,0.000000e+00
1.687424e+02,0.000000e+00
1.716351e+02,0.000000e+00
1.745278e+02,0.000000e+00
1.774205e+02,0.000000e+00
1.803132e+02,0.000000e+00
1.832059e+02,0.000000e+00
1.860986e+02,0.000000e+00
1.889913e+02,0.000000e+00
1.918840e+02,0.000000e+00
1.947767e+02,0.000000e+00
1.976694e+02,0.000000e+00
2.005621e+02,3.551715e+03
2.034548e+02,3.557523e+03
2.063475e+02,3.582554e+03
2.092402e+02,3.578022e+03
2.121329e+02,3.577238e+03
2.150256e+02,3.599896e+03
2.179183e+02,3.609203e+03
2.208110e+02,3.622025e+03
2.237037e+02,3.625490e+03
2.265964e+02,3.647510e+03
2.294892e+02,3.650799e+03
2.323819e+02,3.666812e+03
2.352746e+02,3.673243e+03
2.381673e+02,3.678554e+03
2.410600e+02,3.698833e+03
2.439527e+02,3.685856e+03
2.468454e+02,3.736038e+03
2.497381e+02,3.756729e+03
2.526308e+02,3.725809e+03
2.555235e+02,3.758604e+03
2.584161e+02,3.755924e+03
2.613088e+02,3.784349e+03
2.642015e+02,3.804326e+03
2.670942e+02,3.815737e+03
2.699869e+02,3.833349e+03
2.728796e+02,3.840310e+03
2.757723e+02,3.860373e+03
2.786650e+02,3.881138e+03
2.815577e+02,3.870130e+03
2.844504e+02,3.882364e+03
2.873431e+02,3.874673e+03
2.902358e+02,3.861069e+03
2.931285e+02,3.872919e+03
2.960212e+02,3.895094e+03
2.989139e+02,3.898006e+03
3.018066e+02,3.893241e+03
3.046993e+02,3.892283e+03
3.075920e+02,3.899755e+03
3.104847e+02,3.922926e+03
3.133774e+02,3.930979e+03
3.162701e+02,3.928758e+03
3.191628e+02,3.934386e+03
3.220555e+02,3.933788e+03
3.249482e+02,3.938703e+03
3.278409e+02,3.952780e+03
3.307336e+02,3.970348e+03
3.336263e+02,3.976111e+03
3.365190e+02,3.969911e+03
3.394117e+02,3.989398e+03
3.423044e+02,4.003394e+03
3.451971e+02,3.990936e+03
3.480898e+02,4.011618e+03
3.509825e+02,4.003453e+03
3.538752e+02,4.007279e+03
3.567680e+02,4.012468e+03
3.596607e+02,4.040886e+03
3.625534e+02,4.055696e+03
3.654461e+02,4.031814e+03
3.683388e+02,4.044207e+03
3.712315e+02,4.057711e+03
3.741242e+02,4.058198e+03
3.770169e+02,4.085525e+03
3.799096e+02,4.085237e+03
3.828023e+02,4.077392e+03
3.856950e+02,4.084340e+03
3.885877e+02,4.077396e+03
3.914804e+02,4.074649e+03
3.943731e+02,4.091968e+03
3.972658e+02,4.098714e+03
4.001585e+02,4.108761e+03
4.030512e+02,4.102708e+03
4.059439e+02,4.103599e+03
4.088366e+02,4.103522e+03
4.117293e+02,4.119186e+03
4.146220e+02,4.116169e+03
4.175147e+02,4.116153e+03
4.204074e+02,4.121909e+03
4.233001e+02,4.124369e+03
4.261928e+02,4.130837e+03
4.290855e+02,4.136034e+03
4.319782e+02,4.142678e+03
4.348709e+02,4.162006e+03
4.377636e+02,4.158532e+03
4.406563e+02,4.143882e+03
4.435490e+02,4.129057e+03
4.464417e+02,4.133046e+03
4.493344e+02,4.156022e+03
4.522271e+02,4.169273e+03
4.551198e+02,4.156829e+03
4.580125e+02,4.160540e+03
4.609052e+02,4.153218e+03
4.637979e+02,4.157133e+03
4.666906e+02,4.170659e+03
4.695833e+02,4.169477e+03
4.724760e+02,4.168967e+03
4.753687e+02,4.164519e+03
4.782614e+02,4.170424e+03
4.811541e+02,4.180866e+03
4.840468e+02,4.184271e+03
4.869395e+02,4.174731e+03
4.898322e+02,4.159292e+03
4.927249e+02,4.175483e+03
4.956176e+02,4.173144e+03
4.985103e+02,4.201830e+03
5.014030e+02,4.199749e+03
5.042957e+02,4.177565e+03
5.071884e+02,4.177193e+03
5.100811e+02,4.185911e+03
5.129738e+02,4.188810e+03
5.158665e+02,4.196826e+03
5.187592e+02,4.182357e+03
5.216519e+02,4.176620e+03
5.245446e+02,4.184812e+03
5.274373e+02,4.186631e+03
5.303300e+02,4.192345e+03
5.332227e+02,4.192826e+03
5.361154e+02,4.197815e+03
5.390081e+02,4.244030e+03
5.419008e+02,4.206527e+03
5.447935e+02,4.234593e+03
5.476862e+02,4.220555e+03
5.505789e+02,4.217209e+03
5.534716e+02,4.216112e+03
5.563643e+02,4.216218e+03
5.592570e+02,4.236140e+03
5.621497e+02,4.228519e+03
5.650424e+02,4.207532e+03
5.679351e+02,4.186684e+03
5.708278e+02,4.171209e+03
5.737205e+02,4.164583e+03
5.766132e+02,4.192101e+03
5.795059e+02,4.176774e+03
5.823986e+02,4.153553e+03
5.852913e+02,4.170880e+03
5.881840e+02,4.181934e+03
5.910767e+02,4.185834e+03
5.939694e+02,4.201153e+03
5.968621e+02,4.202434e+03
5.997548e+02,4.166980e+03
6.026475e+02,4.182686e+03
6.055402e+02,4.178476e+03
6.084329e+02,4.221387e+03
6.113256e+02,4.203768e+03
6.142183e+02,4.168992e+03
6.171110e+02,4.167518e+03
6.200037e+02,4.148391e+03
6.228964e+02,4.168808e+03
6.257891e+02,4.172899e+03
6.286818e+02,4.139798e+03
6.315745e+02,4.142553e+03
6.344672e+02,4.158639e+03
6.373599e+02,4.145983e+03
6.402526e+02,4.119264e+03
6.431453e+02,4.136353e+03
6.460380e+02,4.105926e+03
6.489307e+02,4.116938e+03
6.518234e+02,4.128384e+03
6.547161e+02,4.124779e+03
6.576088e+02,4.107043e+03
6.605015e+02,4.092815e+03
6.633942e+02,4.094240e+03
6.662869e+02,4.114807e+03
6.691796e+02,4.093500e+03
6.720723e+02,4.091073e+03
6.749650e+02,4.082154e+03
6.778577e+02,4.081068e+03
6.807504e+02,4.084759e+03
6.836431e+02,4.090070e+03
6.865358e+02,4.071352e+03
6.894285e+02,4.071923e+03
6.923212e+02,4.034958e+03
6.952139e+02,4.049325e+03
6.981066e+02,4.069051e+03
7.009993e+02,4.074381e+03
7.038920e+02,4.036934e+03
7.067847e+02,4.041253e+03
7.096774e+02,4.002696e+03
7.125701e+02,4.039924e+03
7.154628e+02,4.028426e+03
7.183555e+02,4.005332e+03
7.212482e+02,4.004202e+03
7.241409e+02,4.003854e+03
7.270336e+02,3.997590e+03
7.299263e+02,4.003254e+03
7.328190e+02,3.972348e+03
7.357117e+02,3.997654e+03
7.386044e+02,3.975964e+03
7.414971e+02,3.984088e+03
7.443898e+02,3.974916e+03
7.472825e+02,3.988971e+03
7.501752e+02,3.950423e+03
7.530679e+02,3.964571e+03
7.559606e+02,3.965697e+03
7.588533e+02,3.957402e+03
7.617460e+02,3.947428e+03
7.646387e+02,3.941180e+03
7.675314e+02,3.920016e+03
7.704241e+02,3.936894e+03
7.733168e+02,3.931737e+03
7.762095e+02,3.928184e+03
7.791022e+02,3.912289e+03
7.819949e+02,3.917899e+03
7.848876e+02,3.905010e+03
7.877803e+02,3.911694e+03
7.906730e+02,3.904193e+03
7.935657e+02,3.907989e+03
7.964584e+02,3.869569e+03
7.993511e+02,3.870254e+03
8.022438e+02,3.881531e+03
8.051365e+02,3.858146e+03
8.080292e+02,3.848095e+03
8.109219e+02,3.844154e+03
8.138146e+02,3.841540e+03
8.167073e+02,3.836992e+03
8.196000e+02,3.842883e+03
8.224927e+02,3.840611e+03
8.253854e+02,3.832790e+03
8.282781e+02,3.838712e+03
8.311708e+02,3.795470e+03
8.340635e+02,3.792694e+03
8.369562e+02,3.797349e+03
8.398489e+02,3.780898e+03
8.427416e+02,3.794656e+03
8.456343e+02,3.781794e+03
8.485270e+02,3.786532e+03
8.514197e+02,3.782820e+03
8.543124e+02,3.770670e+03
8.572051e+02,3.753544e+03
8.600978e+02,3.742728e+03
8.629905e+02,3.755454e+03
8.658832e+02,3.734460e+03
8.687759e+02,3.729362e+03
8.716686e+02,3.737269e+03
8.745613e+02,3.732788e+03
8.774540e+02,3.723794e+03
8.803467e+02,3.713411e+03
8.832394e+02,3.697441e+03
8.861321e+02,3.696692e+03
8.890248e+02,3.692529e+03
8.919175e+02,3.674148e+03
8.948102e+02,3.692220e+03
8.977029e+02,3.676937e+03
9.005956e+02,3.675791e+03
9.034883e+02,3.645824e+03
9.063810e+02,3.636083e+03
9.092737e+02,3.616302e+03
9.121664e+02,3.607090e+03
9.150591e+02,3.618902e+03
9.179518e+02,3.617723e+03
9.208445e+02,3.589830e+03
9.237372e+02,3.591070e+03
9.266299e+02,3.571191e+03
9.295226e+02,3.575129e+03
9.324153e+02,3.581011e+03
9.353080e+02,3.570388e+03
9.382007e+02,3.551691e+03
9.410934e+02,3.560367e+03
9.439861e+02,3.537360e+03
9.468788e+02,3.536484e+03
9.497715e+02,3.515352e+03
9.526642e+02,3.511587e+03
9.555569e+02,3.502174e+03
9.584496e+02,3.527177e+03
9.613423e+02,3.500296e+03
9.642350e+02,3.482888e+03
9.671277e+02,3.484910e+03
9.700204e+02,3.475836e+03
9.729131e+02,3.455391e+03
9.758058e+02,3.454870e+03
9.786985e+02,3.458023e+03
9.815912e+02,3.439795e+03
9.844839e+02,3.435812e+03
9.873766e+02,3.418792e+03
9.902693e+02,3.413516e+03
9.931620e+02,3.431313e+03
9.960547e+02,3.416114e+03
9.989474e+02,3.384438e+03
1.001840e+03,3.405019e+03
1.004733e+03,3.396011e+03
1.007626e+03,3.381016e+03
1.010518e+03,3.383973e+03
1.013411e+03,3.377884e+03
1.016304e+03,3.349415e+03
1.019196e+03,3.332975e+03
1.022089e+03,3.340248e+03
1.024982e+03,3.351685e+03
1.027875e+03,3.332197e+03
1.030767e+03,3.322858e+03
1.033660e+03,3.306577e+03
1.036552e+03,3.309911e+03
1.039445e+03,3.292821e+03
1.042338e+03,3.309390e+03
1.045231e+03,3.299009e+03
1.048123e+03,3.281872e+03
1.051016e+03,3.274407e+03
1.053909e+03,3.281769e+03
1.056802e+03,3.273052e+03
1.059694e+03,3.249491e+03
1.062587e+03,3.238668e+03
1.065479e+03,3.247410e+03
1.068372e+03,3.252299e+03
1.071265e+03,3.253304e+03
1.074158e+03,3.242291e+03
1.077050e+03,3.237224e+03
1.079943e+03,3.235032e+03
1.082836e+03,3.237866e+03
1.085729e+03,3.231354e+03
1.088621e+03,3.216442e+03
1.091514e+03,3.231840e+03
1.094406e+03,3.196493e+03
1.097299e+03,3.177611e+03
1.100192e+03,3.160481e+03
1.103085e+03,3.174053e+03
1.105977e+03,3.156508e+03
1.108870e+03,3.162344e+03
1.111763e+03,3.137306e+03
1.114656e+03,3.149341e+03
1.117548e+03,3.156367e+03
1.120441e+03,3.121414e+03
1.123334e+03,3.118003e+03
1.126226e+03,3.111167e+03
1.129119e+03,3.094901e+03
1.132012e+03,3.081286e+03
1.134904e+03,3.082730e+03
1.137797e+03,3.079703e+03
1.140690e+03,3.062945e+03
1.143583e+03,3.049896e+03
1.146475e+03,3.065871e+03
1.149368e+03,3.051393e+03
1.152261e+03,3.047093e+03
1.155153e+03,3.025447e+03
1.158046e+03,2.999851e+03
1.160939e+03,3.003970e+03
1.163831e+03,3.012581e+03
1.166724e+03,2.989181e+03
1.169617e+03,2.988752e+03
1.172510e+03,2.973437e+03
1.175402e+03,2.979901e+03
1.178295e+03,2.959223e+03
1.181188e+03,2.968707e+03
1.184080e+03,2.950107e+03
1.186973e+03,2.937604e+03
1.189866e+03,2.939667e+03
1.192758e+03,2.929902e+03
1.195651e+03,2.947566e+03
1.198544e+03,2.917638e+03
1.201437e+03,2.922944e+03
1.204329e+03,2.903258e+03
1.207222e+03,2.887929e+03
1.210115e+03,2.901196e+03
1.213007e+03,2.881927e+03
1.215900e+03,2.881384e+03
1.218793e+03,2.881341e+03
1.221685e+03,2.890274e+03
1.224578e+03,2.872342e+03
1.227471e+03,2.877146e+03
1.230364e+03,2.862514e+03
1.233256e+03,2.863737e+03
1.236149e+03,2.850416e+03
1.239042e+03,2.841083e+03
1.241934e+03,2.832115e+03
1.244827e+03,2.823479e+03
1.247720e+03,2.818351e+03
1.250612e+03,2.807264e+03
1.253505e+03,2.807066e+03
1.256398e+03,2.802532e+03
1.259291e+03,2.789219e+03
1.262183e+03,2.780230e+03
1.265076e+03,2.775119e+03
1.267969e+03,2.770311e+03
1.270861e+03,2.766457e+03
1.273754e+03,2.775128e+03
1.276647e+03,2.765617e+03
1.279539e+03,2.755266e+03
1.282432e+03,2.744192e+03
1.285325e+03,2.746603e+03
1.288218e+03,2.742085e+03
1.291110e+03,2.736142e+03
1.294003e+03,2.730352e+03
1.296896e+03,2.699199e+03
1.299788e+03,2.714364e+03
1.302681e+03,2.706810e+03
1.305574e+03,2.716474e+03
1.308466e+03,2.708216e+03
1.311359e+03,2.693980e+03
1.314252e+03,2.697076e+03
1.317145e+03,2.673240e+03
1.320037e+03,2.686302e+03
1.322930e+03,2.677444e+03
1.325823e+03,2.670121e+03
1.328715e+03,2.674091e+03
1.331608e+03,2.665686e+03
1.334501e+03,2.667511e+03
1.337393e+03,2.666330e+03
1.340286e+03,2.623436e+03
1.343179e+03,2.641560e+03
1.346072e+03,2.618237e+03
1.348964e+03,2.616678e+03
1.351857e+03,2.636921e+03
1.354750e+03,2.615389e+03
1.357642e+03,2.614142e+03
1.360535e+03,2.603414e+03
1.363428e+03,2.605047e+03
1.366320e+03,2.601168e+03
1.369213e+03,2.592317e+03
1.372106e+03,2.572718e+03
1.374999e+03,2.572628e+03
1.377891e+03,2.590830e+03
1.380784e+03,2.573565e+03
1.383677e+03,2.564402e+03
1.386569e+03,2.549598e+03
1.389462e+03,2.547145e+03
1.392355e+03,2.534417e+03
1.395247e+03,2.524902e+03
1.398140e+03,2.545788e+03
1.401033e+03,2.513663e+03
1.403926e+03,2.526372e+03
1.406818e+03,2.521496e+03
1.409711e+03,2.505641e+03
1.412604e+03,2.500465e+03
1.415496e+03,2.498430e+03
1.418389e+03,2.500398e+03
1.421282e+03,2.469102e+03
1.424174e+03,2.477044e+03
1.427067e+03,2.478560e+03
1.429960e+03,2.473466e+03
1.432853e+03,2.459251e+03
1.435745e+03,2.466054e+03
1.438638e+03,2.457139e+03
1.441531e+03,2.451746e+03
1.444423e+03,2.459946e+03
1.447316e+03,2.455882e+03
1.450209e+03,2.433276e+03
1.453101e+03,2.439366e+03
1.455994e+03,2.433587e+03
1.458887e+03,2.418298e+03
1.461780e+03,2.422807e+03
1.464672e+03,2.423053e+03
1.467565e+03,2.410002e+03
1.470458e+03,2.407788e+03
1.473350e+03,2.400991e+03
1.476243e+03,2.399271e+03
1.479136e+03,2.401957e+03
1.482028e+03,2.382405e+03
1.484921e+03,2.369229e+03
1.487814e+03,2.384297e+03
1.490707e+03,2.346802e+03
1.493599e+03,2.361482e+03
1.496492e+03,2.349852e+03
1.499385e+03,2.355339e+03
1.502277e+03,2.347846e+03
1.505170e+03,2.353251e+03
1.508063e+03,2.349579e+03
1.510955e+03,2.335275e+03
1.513848e+03,2.324801e+03
1.516741e+03,2.337462e+03
1.519634e+03,2.314902e+03
1.522526e+03,2.322098e+03
1.525419e+03,2.335106e+03
1.528312e+03,2.303430e+03
1.531204e+03,2.297274e+03
1.534097e+03,2.316927e+03
1.536990e+03,2.281995e+03
1.539882e+03,2.262746e+03
1.542775e+03,2.269347e+03
1.545668e+03,2.268977e+03
1.548561e+03,2.284876e+03
1.551453e+03,2.283857e+03
1.554346e+03,2.282851e+03
1.557239e+03,2.279805e+03
1.560131e+03,2.273146e+03
1.563024e+03,2.286015e+03
1.565917e+03,2.302721e+03
1.568809e+03,2.307278e+03
1.571702e+03,2.306887e+03
1.574595e+03,2.278032e+03
1.577488e+03,2.282718e+03
1.580380e+03,2.259177e+03
1.583273e+03,2.253786e+03
1.586166e+03,2.245179e+03
1.589058e+03,2.217032e+03
1.591951e+03,2.208910e+03
1.594844e+03,2.220426e+03
1.597736e+03,2.213494e+03
1.600629e+03,2.198824e+03
1.603522e+03,2.196945e+03
1.606415e+03,2.204112e+03
1.609307e+03,2.190664e+03
1.612200e+03,2.175340e+03
1.615093e+03,2.174636e+03
1.617985e+03,2.174296e+03
1.620878e+03,2.168596e+03
1.623771e+03,2.159084e+03
1.626663e+03,2.160241e+03
1.629556e+03,2.166560e+03
1.632449e+03,2.172698e+03
1.635342e+03,2.154570e+03
1.638234e+03,2.137884e+03
1.641127e+03,2.135698e+03
1.644020e+03,2.140526e+03
1.646912e+03,2.124716e+03
1.649805e+03,2.121767e+03
1.652698e+03,2.122608e+03
1.655590e+03,2.116608e+03
1.658483e+03,2.104631e+03
1.661376e+03,2.106357e+03
1.664269e+03,2.105990e+03
1.667161e+03,2.100138e+03
1.670054e+03,2.085876e+03
1.672947e+03,2.094321e+03
1.675839e+03,2.095928e+03
1.678732e+03,2.095031e+03
1.681625e+03,2.096543e+03
1.684517e+03,2.077629e+03
1.687410e+03,2.065355e+03
1.690303e+03,2.068948e+03
1.693196e+03,2.063863e+03
1.696088e+03,2.059504e+03
1.698981e+03,2.035478e+03
1.701874e+03,2.041359e+03
1.704766e+03,2.038739e+03
1.707659e+03,2.039422e+03
1.710552e+03,2.043298e+03
1.713444e+03,2.035491e+03
1.716337e+03,2.035394e+03
1.719230e+03,2.007533e+03
1.722123e+03,2.018759e+03
1.725015e+03,2.007372e+03
1.727908e+03,2.002194e+03
1.730801e+03,1.999340e+03
1.733693e+03,2.003190e+03
1.736586e+03,2.003259e+03
1.739479e+03,1.992235e+03
1.742371e+03,1.999761e+03
1.745264e+03,1.997697e+03
1.748157e+03,1.967514e+03
1.751050e+03,1.981177e+03
1.753942e+03,1.964972e+03
1.756835e+03,1.972702e+03
1.759728e+03,1.957763e+03
1.762620e+03,1.963690e+03
1.765513e+03,1.941262e+03
1.768406e+03,1.947448e+03
1.771298e+03,1.954366e+03
1.774191e+03,1.936138e+03
1.777084e+03,1.952831e+03
1.779977e+03,1.925843e+03
1.782869e+03,1.942342e+03
1.785762e+03,1.918230e+03
1.788655e+03,1.935357e+03
1.791547e+03,1.903801e+03
1.794440e+03,1.915147e+03
1.797333e+03,1.906498e+03
1.800225e+03,1.904428e+03
1.803118e+03,1.901265e+03
1.806011e+03,1.895453e+03
1.808904e+03,1.881291e+03
1.811796e+03,1.866859e+03
1.814689e+03,1.872496e+03
1.817582e+03,1.887548e+03
1.820474e+03,1.870246e+03
1.823367e+03,1.862724e+03
1.826260e+03,1.844593e+03
1.829152e+03,1.850817e+03
1.832045e+03,1.853794e+03
1.834938e+03,1.847953e+03
1.837831e+03,1.838424e+03
1.840723e+03,1.820022e+03
1.843616e+03,1.827310e+03
1.846509e+03,1.834972e+03
1.849401e+03,1.838189e+03
1.852294e+03,1.806381e+03
1.855187e+03,1.803929e+03
1.858079e+03,1.830103e+03
1.860972e+03,1.813466e+03
1.863865e+03,1.797153e+03
1.866758e+03,1.795898e+03
1.869650e+03,1.782377e+03
1.872543e+03,1.772116e+03
1.875436e+03,1.792200e+03
1.878328e+03,1.785617e+03
1.881221e+03,1.773545e+03
1.884114e+03,1.789342e+03
1.887006e+03,1.759207e+03
1.889899e+03,1.755086e+03
1.892792e+03,1.748412e+03
1.895685e+03,1.766805e+03
1.898577e+03,1.743908e+03
1.901470e+03,1.728673e+03
1.904363e+03,1.750497e+03
1.907255e+03,1.752031e+03
1.910148e+03,1.739713e+03
1.913041e+03,1.717904e+03
1.915933e+03,1.719944e+03
1.918826e+03,1.712660e+03
1.921719e+03,1.707565e+03
1.924612e+03,1.719392e+03
1.927504e+03,1.716341e+03
1.930397e+03,1.707040e+03
1.933290e+03,1.672746e+03
1.936182e+03,1.682840e+03
1.939075e+03,1.713345e+03
1.941968e+03,1.684393e+03
1.944860e+03,1.685475e+03
1.947753e+03,1.681313e+03
1.950646e+03,1.674445e+03
1.953539e+03,1.664268e+03
1.956431e+03,1.656098e+03
1.959324e+03,1.671384e+03
1.962217e+03,1.667154e+03
1.965109e+03,1.643895e+03
1.968002e+03,1.649785e+03
1.970895e+03,1.653124e+03
1.973787e+03,1.643524e+03
1.976680e+03,1.644455e+03
1.979573e+03,1.629740e+03
1.982466e+03,1.632706e+03
1.985358e+03,1.608808e+03
1.988251e+03,1.626314e+03
1.991144e+03,1.623250e+03
1.994036e+03,1.605146e+03
1.996929e+03,1.589863e+03
1.999822e+03,1.606267e+03
2.002714e+03,1.606586e+03
2.005607e+03,1.592096e+03
2.008500e+03,1.590360e+03
2.011393e+03,1.573322e+03
2.014285e+03,1.594271e+03
2.017178e+03,1.580027e+03
2.020071e+03,1.575615e+03
2.022963e+03,1.568335e+03
2.025856e+03,1.550999e+03
2.028749e+03,1.548044e+03
2.031641e+03,1.544787e+03
2.034534e+03,1.551871e+03
2.037427e+03,1.536985e+03
2.040320e+03,1.538708e+03
2.043212e+03,1.551247e+03
2.046105e+03,1.538604e+03
2.048998e+03,1.529571e+03
2.051890e+03,1.513606e+03
2.054783e+03,1.505498e+03
2.057676e+03,1.509808e+03
2.060568e+03,1.510205e+03
2.063461e+03,1.511202e+03
2.066354e+03,1.498502e+03
2.069247e+03,1.503200e+03
2.072139e+03,1.479488e+03
2.075032e+03,1.484443e+03
2.077925e+03,1.476911e+03
2.080817e+03,1.493472e+03
2.083710e+03,1.458316e+03
2.086603e+03,1.470056e+03
2.089496e+03,1.468332e+03
2.092388e+03,1.471696e+03
2.095281e+03,1.464843e+03
2.098174e+03,1.452973e+03
2.101066e+03,1.450728e+03
2.103959e+03,1.447580e+03
2.106852e+03,1.423428e+03
2.109744e+03,1.450350e+03
2.112637e+03,1.432730e+03
2.115530e+03,1.429858e+03
2.118422e+03,1.419073e+03
2.121315e+03,1.433175e+03
2.124208e+03,1.419565e+03
2.127101e+03,1.405718e+03
2.129993e+03,1.405347e+03
2.132886e+03,1.394757e+03
2.135779e+03,1.386518e+03
2.138671e+03,1.391061e+03
2.141564e+03,1.374468e+03
2.144457e+03,1.375530e+03
2.147350e+03,1.375674e+03
2.150242e+03,1.370337e+03
2.153135e+03,1.378236e+03
2.156028e+03,1.370449e+03
2.158920e+03,1.358427e+03
2.161813e+03,1.362971e+03
2.164706e+03,1.343330e+03
2.167598e+03,1.332360e+03
2.170491e+03,1.354753e+03
2.173384e+03,1.349515e+03
2.176277e+03,1.340660e+03
2.179169e+03,1.318277e+03
2.182062e+03,1.340864e+03
2.184955e+03,1.312961e+03
2.187847e+03,1.325800e+03
2.190740e+03,1.306351e+03
2.193633e+03,1.308072e+03
2.196525e+03,1.291221e+03
2.199418e+03,1.297160e+03
2.202311e+03,1.281176e+03
2.205204e+03,1.305662e+03
2.208096e+03,1.297460e+03
2.210989e+03,1.268821e+03
2.213882e+03,1.280781e+03
2.216774e+03,1.285066e+03
2.219667e+03,1.271592e+03
2.222560e+03,1.252551e+03
2.225452e+03,1.255301e+03
2.228345e+03,1.259438e+03
2.231238e+03,1.250806e+03
2.234131e+03,1.244280e+03
2.237023e+03,1.249841e+03
2.239916e+03,1.230530e+03
2.242809e+03,1.227793e+03
2.245701e+03,1.215191e+03
2.248594e+03,1.229275e+03
2.251487e+03,1.216466e+03
2.254379e+03,1.215257e+03
2.257272e+03,1.203647e+03
2.260165e+03,1.211484e+03
2.263058e+03,1.191789e+03
2.265950e+03,1.190975e+03
2.268843e+03,1.192418e+03
2.271736e+03,1.187487e+03
2.274628e+03,1.198341e+03
2.277521e+03,1.179860e+03
2.280414e+03,1.167598e+03
2.283306e+03,1.180147e+03
2.286199e+03,1.159134e+03
2.289092e+03,1.165116e+03
2.291985e+03,1.157286e+03
2.294877e+03,1.158442e+03
2.297770e+03,1.170965e+03
2.300663e+03,1.157165e+03
2.303555e+03,1.154246e+03
2.306448e+03,1.121613e+03
2.309341e+03,1.155563e+03
2.312233e+03,1.132069e+03
2.315126e+03,1.145340e+03
2.318019e+03,1.143627e+03
2.320912e+03,1.130302e+03
2.323804e+03,1.125515e+03
2.326697e+03,1.118919e+03
2.329590e+03,1.104838e+03
2.332482e+03,1.110443e+03
2.335375e+03,1.095889e+03
2.338268e+03,1.091608e+03
2.341160e+03,1.095884e+03
2.344053e+03,1.105834e+03
2.346946e+03,1.094018e+03
2.349839e+03,1.097808e+03
2.352731e+03,1.090233e+03
2.355624e+03,1.088179e+03
2.358517e+03,1.082966e+03
2.361409e+03,1.077984e+03
2.364302e+03,1.071133e+03
2.367195e+03,1.073396e+03
2.370087e+03,1.056544e+03
2.372980e+03,1.054225e+03
2.375873e+03,1.052934e+03
2.378766e+03,1.061905e+03
2.381658e+03,1.039041e+03
2.384551e+03,1.038813e+03
2.387444e+03,1.049346e+03
2.390336e+03,1.040231e+03
2.393229e+03,1.041356e+03
2.396122e+03,1.032591e+03
2.399014e+03,1.038444e+03
2.401907e+03,1.027733e+03
2.404800e+03,1.037269e+03
2.407693e+03,1.022180e+03
2.410585e+03,1.021814e+03
2.413478e+03,1.027626e+03
2.416371e+03,1.013954e+03
2.419263e+03,1.000309e+03
2.422156e+03,1.011395e+03
2.425049e+03,9.989505e+02
2.427941e+03,9.954341e+02
2.430834e+03,9.956007e+02
2.433727e+03,9.859700e+02
2.436620e+03,9.783068e+02
2.439512e+03,9.885274e+02
2.442405e+03,9.700975e+02
2.445298e+03,9.916228e+02
2.448190e+03,9.731525e+02
2.451083e+03,9.844670e+02
2.453976e+03,9.657936e+02
2.456868e+03,9.741469e+02
2.459761e+03,9.619310e+02
2.462654e+03,9.691546e+02
2.465547e+03,9.608268e+02
2.468439e+03,9.375683e+02
2.471332e+03,9.512582e+02
2.474225e+03,9.497984e+02
2.477117e+03,9.484070e+02
2.480010e+03,9.456160e+02
2.482903e+03,9.339785e+02
2.485795e+03,9.388596e+02
2.488688e+03,9.375836e+02
2.491581e+03,9.278994e+02
2.494474e+03,9.240994e+02
2.497366e+03,9.255461e+02
2.500259e+03,9.223345e+02
2.503152e+03,9.251049e+02
2.506044e+03,9.189202e+02
2.508937e+03,9.163919e+02
2.511830e+03,9.102794e+02
2.514722e+03,9.157227e+02
2.517615e+03,9.132475e+02
2.520508e+03,8.920011e+02
2.523401e+03,8.907317e+02
2.526293e+03,8.907946e+02
2.529186e+03,8.913322e+02
2.532079e+03,9.000549e+02
2.534971e+03,8.883093e+02
2.537864e+03,8.787537e+02
2.540757e+03,8.920342e+02
2.543649e+03,8.763093e+02
2.546542e+03,8.772365e+02
2.549435e+03,8.966383e+02
2.552328e+03,8.804276e+02
2.555220e+03,8.789589e+02
2.558113e+03,8.852040e+02
2.561006e+03,8.663820e+02
2.563898e+03,8.510700e+02
2.566791e+03,8.631827e+02
2.569684e+03,8.654431e+02
2.572576e+03,8.510607e+02
2.575469e+03,8.698122e+02
2.578362e+03,8.470480e+02
2.581255e+03,8.395069e+02
2.584147e+03,8.438492e+02
2.587040e+03,8.487494e+02
2.589933e+03,8.354218e+02
2.592825e+03,8.333760e+02
2.595718e+03,8.311277e+02
2.598611e+03,8.376465e+02
2.601503e+03,8.096261e+02
2.604396e+03,8.246863e+02
2.607289e+03,8.178566e+02
2.610182e+03,8.305842e+02
2.613074e+03,8.168434e+02
2.615967e+03,8.079338e+02
2.618860e+03,8.321703e+02
2.621752e+03,8.089856e+02
2.624645e+03,8.031625e+02
2.627538e+03,8.119196e+02
2.630430e+03,8.058183e+02
2.633323e+03,7.945909e+02
2.636216e+03,7.959100e+02
2.639109e+03,8.136335e+02
2.642001e+03,7.943072e+02
2.644894e+03,7.870800e+02
2.647787e+03,7.981141e+02
2.650679e+03,8.003967e+02
2.653572e+03,7.837137e+02
2.656465e+03,7.831537e+02
2.659357e+03,7.719490e+02
2.662250e+03,7.718513e+02
2.665143e+03,7.914977e+02
2.668036e+03,7.709042e+02
2.670928e+03,7.739086e+02
2.673821e+03,7.674215e+02
2.676714e+03,7.663022e+02
2.679606e+03,7.525934e+02
2.682499e+03,7.590621e+02
2.685392e+03,7.627292e+02
2.688284e+03,7.645382e+02
2.691177e+03,7.363500e+02
2.694070e+03,7.513914e+02
2.696963e+03,7.547778e+02
2.699855e+03,7.654192e+02
2.702748e+03,7.665653e+02
2.705641e+03,7.357332e+02
2.708533e+03,7.504955e+02
2.711426e+03,7.507210e+02
2.714319e+03,7.392991e+02
2.717211e+03,7.391478e+02
2.720104e+03,7.306667e+02
2.722997e+03,7.292985e+02
2.725890e+03,7.376232e+02
2.728782e+03,7.365071e+02
2.731675e+03,7.410621e+02
2.734568e+03,7.398250e+02
2.737460e+03,7.197731e+02
2.740353e+03,7.099789e+02
2.743246e+03,7.203327e+02
2.746138e+03,7.168305e+02
2.749031e+03,7.238323e+02
2.751924e+03,7.152346e+02
2.754817e+03,7.139528e+02
2.757709e+03,7.098922e+02
2.760602e+03,7.123397e+02
2.763495e+03,7.124178e+02
2.766387e+03,6.996323e+02
2.769280e+03,7.147072e+02
2.772173e+03,7.004158e+02
2.775065e+03,7.092999e+02
2.777958e+03,7.043201e+02
2.780851e+03,6.939177e+02
2.783744e+03,7.017911e+02
2.786636e+03,6.873968e+02
2.789529e+03,7.002813e+02
2.792422e+03,6.929650e+02
2.795314e+03,6.885940e+02
2.798207e+03,6.887556e+02
2.801100e+03,6.793468e+02
2.803992e+03,6.705904e+02
2.806885e+03,6.862303e+02
2.809778e+03,6.767748e+02
2.812671e+03,6.918702e+02
2.815563e+03,6.797100e+02
2.818456e+03,6.914935e+02
2.821349e+03,6.650616e+02
2.824241e+03,6.806268e+02
2.827134e+03,6.628466e+02
2.830027e+03,6.711264e+02
2.832919e+03,6.864384e+02
2.835812e+03,6.778671e+02
2.838705e+03,6.613314e+02
2.841598e+03,6.580543e+02
2.844490e+03,6.706858e+02
2.847383e+03,6.563250e+02
2.850276e+03,6.788277e+02
2.853168e+03,6.685812e+02
2.856061e+03,6.650910e+02
2.858954e+03,6.640565e+02
2.861846e+03,6.778951e+02
2.864739e+03,6.658180e+02
2.867632e+03,6.654206e+02
2.870525e+03,6.736960e+02
2.873417e+03,6.594328e+02
2.876310e+03,6.795317e+02
2.879203e+03,6.791330e+02
2.882095e+03,6.682531e+02
2.884988e+03,6.809960e+02
2.887881e+03,6.756111e+02
2.890773e+03,6.631313e+02
2.893666e+03,6.617405e+02
2.896559e+03,6.799910e+02
2.899452e+03,6.643214e+02
2.902344e+03,6.647244e+02
2.905237e+03,6.572647e+02
2.908130e+03,6.399579e+02
2.911022e+03,6.671371e+02
2.913915e+03,6.376622e+02
2.916808e+03,6.518644e+02
2.919700e+03,6.464646e+02
2.922593e+03,6.492802e+02
2.925486e+03,6.269464e+02
2.928379e+03,6.171383e+02
2.931271e+03,6.351221e+02
2.934164e+03,6.441839e+02
2.937057e+03,6.422201e+02
2.939949e+03,6.458269e+02
2.942842e+03,6.152732e+02
2.945735e+03,6.218160e+02
2.948627e+03,6.494725e+02
2.951520e+03,6.304988e+02
2.954413e+03,6.607943e+02
2.957306e+03,6.338329e+02
2.960198e+03,6.209330e+02
2.963091e+03,6.170574e+02
2.965984e+03,6.076913e+02
2.968876e+03,6.162509e+02
2.971769e+03,6.023807e+02
2.974662e+03,6.108265e+02
2.977554e+03,6.229557e+02
2.980447e+03,5.895938e+02
2.983340e+03,5.976984e+02
2.986233e+03,6.031906e+02
2.989125e+03,6.051760e+02
2.992018e+03,6.001930e+02
2.994911e+03,5.869576e+02
2.997803e+03,6.158533e+02
3.000696e+03,5.813783e+02
3.003589e+03,6.066136e+02
3.006481e+03,5.648837e+02
3.009374e+03,5.935203e+02
3.012267e+03,5.760478e+02
3.015160e+03,5.774922e+02
3.018052e+03,6.080335e+02
3.020945e+03,6.071082e+02
3.023838e+03,5.827253e+02
3.026730e+03,5.924674e+02
3.029623e+03,5.696444e+02
3.032516e+03,5.689417e+02
3.035408e+03,5.890045e+02
3.038301e+03,5.768789e+02
3.041194e+03,5.715270e+02
3.044087e+03,5.598975e+02
3.046979e+03,5.888700e+02
3.049872e+03,5.811661e+02
3.052765e+03,5.757379e+02
3.055657e+03,5.804944e+02
3.058550e+03,5.837027e+02
3.061443e+03,5.506375e+02
3.064335e+03,5.680095e+02
3.067228e+03,5.848030e+02
3.070121e+03,5.438945e+02
3.073014e+03,5.686219e+02
3.075906e+03,5.872477e+02
3.078799e+03,5.560313e+02
3.081692e+03,5.506638e+02
3.084584e+03,5.690338e+02
3.087477e+03,5.596570e+02
3.090370e+03,5.868207e+02
3.093262e+03,5.813636e+02
3.096155e+03,5.510090e+02
3.099048e+03,5.627871e+02
3.101941e+03,5.844410e+02
3.104833e+03,5.529064e+02
3.107726e+03,5.773575e+02
3.110619e+03,5.381053e+02
3.113511e+03,5.790700e+02
3.116404e+03,5.707551e+02
3.119297e+03,5.887112e+02
3.122189e+03,5.787645e+02
3.125082e+03,5.886240e+02
3.127975e+03,5.435582e+02
3.130868e+03,5.987231e+02
3.133760e+03,5.755694e+02
3.136653e+03,5.800869e+02
3.139546e+03,5.741730e+02
3.142438e+03,5.965014e+02
3.145331e+03,5.489765e+02
3.148224e+03,5.642095e+02
3.151116e+03,5.484492e+02
3.154009e+03,5.702494e+02
3.156902e+03,5.360965e+02
3.159795e+03,5.792795e+02
3.162687e+03,5.652833e+02
3.165580e+03,6.102673e+02
3.168473e+03,5.648300e+02
3.171365e+03,5.636449e+02
3.174258e+03,5.779666e+02
3.177151e+03,5.631525e+02
3.180043e+03,5.576394e+02
3.182936e+03,5.725322e+02
3.185829e+03,5.624739e+02
3.188722e+03,5.460065e+02
3.191614e+03,5.578019e+02
3.194507e+03,5.776481e+02
3.197400e+03,5.957548e+02
3.200292e+03,6.017542e+02
3.203185e+03,0.000000e+00
3.206078e+03,0.000000e+00
3.208970e+03,0.000000e+00
3.211863e+03,0.000000e+00
3.214756e+03,0.000000e+00
3.217649e+03,0.000000e+00
3.220541e+03,0.000000e+00
3.223434e+03,0.000000e+00
3.226327e+03,0.000000e+00
3.229219e+03,0.000000e+00
3.232112e+03,0.000000e+00
3.235005e+03,0.000000e+00
3.237897e+03,0.000000e+00
3.240790e+03,0.000000e+00
3.243683e+03,0.000000e+00
3.246576e+03,0.000000e+00
3.249468e+03,0.000000e+00
3.252361e+03,0.000000e+00
3.255254e+03,0.000000e+00
3.258146e+03,0.000000e+00
3.261039e+03,0.000000e+00
3.263932e+03,0.000000e+00
3.266824e+03,0.000000e+00
3.269717e+03,0.000000e+00
3.272610e+03,0.000000e+00
3.275503e+03,0.000000e+00
3.278395e+03,0.000000e+00
3.281288e+03,0.000000e+00
3.284181e+03,0.000000e+00
3.287073e+03,0.000000e+00
3.289966e+03,0.000000e+00
3.292859e+03,0.000000e+00
3.295751e+03,0.000000e+00
3.298644e+03,0.000000e+00
3.301537e+03,0.000000e+00
3.304430e+03,0.000000e+00
3.307322e+03,0.000000e+00
3.310215e+03,0.000000e+00
3.313108e+03,0.000000e+00
3.316000e+03,0.000000e+00
3.318893e+03,0.000000e+00
3.321786e+03,0.000000e+00
3.324678e+03,0.000000e+00
3.327571e+03,0.000000e+00
3.330464e+03,0.000000e+00
3.333357e+03,0.000000e+00
3.336249e+03,0.000000e+00
3.339142e+03,0.000000e+00
3.342035e+03,0.000000e+00
3.344927e+03,0.000000e+00
3.347820e+03,0.000000e+00
3.350713e+03,0.000000e+00
3.353605e+03,0.000000e+00
3.356498e+03,0.000000e+00
3.359391e+03,0.000000e+00
3.362284e+03,0.000000e+00
3.365176e+03,0.000000e+00
3.368069e+03,0.000000e+00
3.370962e+03,0.000000e+00
3.373854e+03,0.000000e+00
3.376747e+03,0.000000e+00
3.379640e+03,0.000000e+00
3.382532e+03,0.000000e+00
3.385425e+03,0.000000e+00
3.388318e+03,0.000000e+00
3.391211e+03,0.000000e+00
3.394103e+03,0.000000e+00
3.396996e+03,0.000000e+00
3.399889e+03,0.000000e+00
3.402781e+03,0.000000e+00
3.405674e+03,0.000000e+00
3.408567e+03,0.000000e+00
3.411459e+03,0.000000e+00
3.414352e+03,0.000000e+00
3.417245e+03,0.000000e+00
3.420138e+03,0.000000e+00
3.423030e+03,0.000000e+00
3.425923e+03,0.000000e+00
3.428816e+03,0.000000e+00
3.431708e+03,0.000000e+00
3.434601e+03,0.000000e+00
3.437494e+03,0.000000e+00
3.440386e+03,0.000000e+00
3.443279e+03,0.000000e+00
3.446172e+03,0.000000e+00
3.449065e+03,0.000000e+00
3.451957e+03,0.000000e+00
3.454850e+03,0.000000e+00
3.457743e+03,0.000000e+00
3.460635e+03,0.000000e+00
3.463528e+03,0.000000e+00
3.466421e+03,0.000000e+00
3.469313e+03,0.000000e+00
3.472206e+03,0.000000e+00
3.475099e+03,0.000000e+00
3.477992e+03,0.000000e+00
3.480884e+03,0.000000e+00
3.483777e+03,0.000000e+00
3.486670e+03,0.000000e+00
3.489563e+03,0.000000e+00
3.492455e+03,0.000000e+00
3.495348e+03,0.000000e+00
3.498240e+03,0.000000e+00
3.500169e+03,0.000000e+00