File: RAMAN_data/23052023_r3/blue fibre16.CSV
9.931763e+01,0.000000e+00
1.022103e+02,0.000000e+00
1.051030e+02,0.000000e+00
1.079957e+02,0.000000e+00
1.108884e+02,0.000000e+00
1.137811e+02,0.000000e+00
1.166738e+02,0.000000e+00
1.195665e+02,0.000000e+00
1.224592e+02,0.000000e+00
1.253519e+02,0.000000e+00
1.282446e+02,0.000000e+00
1.311373e+02,0.000000e+00
1.340300e+02,0.000000e+00
1.369227e+02,0.000000e+00
1.398154e+02,0.000000e+00
1.427081e+02,0.000000e+00
1.456008e+02,0.000000e+00
1.484935e+02,0.000000e+00
1.513862e+02,0.000000e+00
1.542789e+02,0.000000e+00
1.571716e+02,0.000000e+00
1.600643e+02,0.000000e+00
1.629570e+02,0.000000e+00
1.658497e+02,0.000000e+00
1.687424e+02,0.000000e+00
1.716351e+02,0.000000e+00
1.745278e+02,0.000000e+00
1.774205e+02,0.000000e+00
1.803132e+02,0.000000e+00
1.832059e+02,0.000000e+00
1.860986e+02,0.000000e+00
1.889913e+02,0.000000e+00
1.918840e+02,0.000000e+00
1.947767e+02,0.000000e+00
1.976694e+02,0.000000e+00
2.005621e+02,3.586925e+03
2.034548e+02,3.615559e+03
2.063475e+02,3.627608e+03
2.092402e+02,3.631417e+03
2.121329e+02,3.643109e+03
2.150256e+02,3.666109e+03
2.179183e+02,3.667950e+03
2.208110e+02,3.678241e+03
2.237037e+02,3.702545e+03
2.265964e+02,3.691565e+03
2.294892e+02,3.694330e+03
2.323819e+02,3.723577e+03
2.352746e+02,3.736096e+03
2.381673e+02,3.760849e+03
2.410600e+02,3.756071e+03
2.439527e+02,3.767995e+03
2.468454e+02,3.805128e+03
2.497381e+02,3.819497e+03
2.526308e+02,3.833770e+03
2.555235e+02,3.824340e+03
2.584161e+02,3.824825e+03
2.613088e+02,3.840150e+03
2.642015e+02,3.865079e+03
2.670942e+02,3.887199e+03
2.699869e+02,3.922835e+03
2.728796e+02,3.931861e+03
2.757723e+02,3.971814e+03
2.786650e+02,3.979490e+03
2.815577e+02,3.969500e+03
2.844504e+02,3.977749e+03
2.873431e+02,3.966337e+03
2.902358e+02,3.960590e+03
2.931285e+02,3.969210e+03
2.960212e+02,3.964927e+03
2.989139e+02,3.972542e+03
3.018066e+02,3.977242e+03
3.046993e+02,3.956344e+03
3.075920e+02,3.971085e+03
3.104847e+02,3.982136e+03
3.133774e+02,4.002360e+03
3.162701e+02,4.001337e+03
3.191628e+02,4.014591e+03
3.220555e+02,4.011414e+03
3.249482e+02,4.025074e+03
3.278409e+02,4.035320e+03
3.307336e+02,4.033030e+03
3.336263e+02,4.048673e+03
3.365190e+02,4.046700e+03
3.394117e+02,4.040762e+03
3.423044e+02,4.047494e+03
3.451971e+02,4.062104e+03
3.480898e+02,4.067707e+03
3.509825e+02,4.082711e+03
3.538752e+02,4.073524e+03
3.567680e+02,4.080276e+03
3.596607e+02,4.104369e+03
3.625534e+02,4.104645e+03
3.654461e+02,4.099795e+03
3.683388e+02,4.106443e+03
3.712315e+02,4.144915e+03
3.741242e+02,4.135732e+03
3.770169e+02,4.158524e+03
3.799096e+02,4.146530e+03
3.828023e+02,4.130868e+03
3.856950e+02,4.154895e+03
3.885877e+02,4.159713e+03
3.914804e+02,4.139354e+03
3.943731e+02,4.149330e+03
3.972658e+02,4.162506e+03
4.001585e+02,4.153282e+03
4.030512e+02,4.154930e+03
4.059439e+02,4.167314e+03
4.088366e+02,4.166461e+03
4.117293e+02,4.168472e+03
4.146220e+02,4.154847e+03
4.175147e+02,4.170444e+03
4.204074e+02,4.186128e+03
4.233001e+02,4.159899e+03
4.261928e+02,4.167927e+03
4.290855e+02,4.204523e+03
4.319782e+02,4.211113e+03
4.348709e+02,4.192194e+03
4.377636e+02,4.192682e+03
4.406563e+02,4.186600e+03
4.435490e+02,4.190952e+03
4.464417e+02,4.201249e+03
4.493344e+02,4.204072e+03
4.522271e+02,4.218800e+03
4.551198e+02,4.222490e+03
4.580125e+02,4.208577e+03
4.609052e+02,4.199467e+03
4.637979e+02,4.208037e+03
4.666906e+02,4.195973e+03
4.695833e+02,4.200745e+03
4.724760e+02,4.220205e+03
4.753687e+02,4.192456e+03
4.782614e+02,4.206900e+03
4.811541e+02,4.201242e+03
4.840468e+02,4.214396e+03
4.869395e+02,4.228659e+03
4.898322e+02,4.206884e+03
4.927249e+02,4.212510e+03
4.956176e+02,4.209541e+03
4.985103e+02,4.215413e+03
5.014030e+02,4.232994e+03
5.042957e+02,4.236131e+03
5.071884e+02,4.245958e+03
5.100811e+02,4.221848e+03
5.129738e+02,4.222719e+03
5.158665e+02,4.235435e+03
5.187592e+02,4.231481e+03
5.216519e+02,4.234973e+03
5.245446e+02,4.219609e+03
5.274373e+02,4.220233e+03
5.303300e+02,4.236374e+03
5.332227e+02,4.238618e+03
5.361154e+02,4.253413e+03
5.390081e+02,4.300350e+03
5.419008e+02,4.302960e+03
5.447935e+02,4.310467e+03
5.476862e+02,4.326475e+03
5.505789e+02,4.288339e+03
5.534716e+02,4.306642e+03
5.563643e+02,4.338783e+03
5.592570e+02,4.330720e+03
5.621497e+02,4.290962e+03
5.650424e+02,4.251265e+03
5.679351e+02,4.227864e+03
5.708278e+02,4.224595e+03
5.737205e+02,4.229539e+03
5.766132e+02,4.216554e+03
5.795059e+02,4.199005e+03
5.823986e+02,4.200282e+03
5.852913e+02,4.221079e+03
5.881840e+02,4.202398e+03
5.910767e+02,4.216504e+03
5.939694e+02,4.235168e+03
5.968621e+02,4.239239e+03
5.997548e+02,4.226237e+03
6.026475e+02,4.210245e+03
6.055402e+02,4.236666e+03
6.084329e+02,4.294829e+03
6.113256e+02,4.272115e+03
6.142183e+02,4.217837e+03
6.171110e+02,4.204585e+03
6.200037e+02,4.201846e+03
6.228964e+02,4.187737e+03
6.257891e+02,4.188910e+03
6.286818e+02,4.177264e+03
6.315745e+02,4.187944e+03
6.344672e+02,4.175701e+03
6.373599e+02,4.151500e+03
6.402526e+02,4.146256e+03
6.431453e+02,4.167128e+03
6.460380e+02,4.141241e+03
6.489307e+02,4.145494e+03
6.518234e+02,4.154070e+03
6.547161e+02,4.128972e+03
6.576088e+02,4.133847e+03
6.605015e+02,4.083568e+03
6.633942e+02,4.115103e+03
6.662869e+02,4.114757e+03
6.691796e+02,4.117450e+03
6.720723e+02,4.102931e+03
6.749650e+02,4.101082e+03
6.778577e+02,4.095175e+03
6.807504e+02,4.096970e+03
6.836431e+02,4.090896e+03
6.865358e+02,4.077691e+03
6.894285e+02,4.085094e+03
6.923212e+02,4.064169e+03
6.952139e+02,4.051338e+03
6.981066e+02,4.039824e+03
7.009993e+02,4.037208e+03
7.038920e+02,4.031395e+03
7.067847e+02,4.036105e+03
7.096774e+02,4.034745e+03
7.125701e+02,4.020043e+03
7.154628e+02,4.016340e+03
7.183555e+02,4.030784e+03
7.212482e+02,4.008323e+03
7.241409e+02,4.003403e+03
7.270336e+02,4.005003e+03
7.299263e+02,4.005389e+03
7.328190e+02,3.984164e+03
7.357117e+02,3.986311e+03
7.386044e+02,3.974104e+03
7.414971e+02,3.952419e+03
7.443898e+02,3.954651e+03
7.472825e+02,3.958085e+03
7.501752e+02,3.963759e+03
7.530679e+02,3.955598e+03
7.559606e+02,3.945385e+03
7.588533e+02,3.947572e+03
7.617460e+02,3.950625e+03
7.646387e+02,3.930182e+03
7.675314e+02,3.948868e+03
7.704241e+02,3.924596e+03
7.733168e+02,3.904495e+03
7.762095e+02,3.906706e+03
7.791022e+02,3.934080e+03
7.819949e+02,3.897230e+03
7.848876e+02,3.915383e+03
7.877803e+02,3.912937e+03
7.906730e+02,3.918306e+03
7.935657e+02,3.901543e+03
7.964584e+02,3.872538e+03
7.993511e+02,3.861006e+03
8.022438e+02,3.831499e+03
8.051365e+02,3.842995e+03
8.080292e+02,3.842751e+03
8.109219e+02,3.846469e+03
8.138146e+02,3.823312e+03
8.167073e+02,3.794529e+03
8.196000e+02,3.808405e+03
8.224927e+02,3.809860e+03
8.253854e+02,3.787051e+03
8.282781e+02,3.798042e+03
8.311708e+02,3.788689e+03
8.340635e+02,3.772321e+03
8.369562e+02,3.800358e+03
8.398489e+02,3.764174e+03
8.427416e+02,3.777534e+03
8.456343e+02,3.751739e+03
8.485270e+02,3.751511e+03
8.514197e+02,3.742936e+03
8.543124e+02,3.732032e+03
8.572051e+02,3.729957e+03
8.600978e+02,3.721150e+03
8.629905e+02,3.713247e+03
8.658832e+02,3.701894e+03
8.687759e+02,3.694955e+03
8.716686e+02,3.699458e+03
8.745613e+02,3.702953e+03
8.774540e+02,3.672322e+03
8.803467e+02,3.672106e+03
8.832394e+02,3.672734e+03
8.861321e+02,3.693562e+03
8.890248e+02,3.653293e+03
8.919175e+02,3.626853e+03
8.948102e+02,3.643295e+03
8.977029e+02,3.626714e+03
9.005956e+02,3.612622e+03
9.034883e+02,3.615476e+03
9.063810e+02,3.602465e+03
9.092737e+02,3.579305e+03
9.121664e+02,3.581043e+03
9.150591e+02,3.576211e+03
9.179518e+02,3.556950e+03
9.208445e+02,3.546400e+03
9.237372e+02,3.532927e+03
9.266299e+02,3.524446e+03
9.295226e+02,3.530302e+03
9.324153e+02,3.507727e+03
9.353080e+02,3.517322e+03
9.382007e+02,3.503754e+03
9.410934e+02,3.508416e+03
9.439861e+02,3.493051e+03
9.468788e+02,3.482946e+03
9.497715e+02,3.461856e+03
9.526642e+02,3.458075e+03
9.555569e+02,3.464429e+03
9.584496e+02,3.450137e+03
9.613423e+02,3.434297e+03
9.642350e+02,3.434013e+03
9.671277e+02,3.432292e+03
9.700204e+02,3.424852e+03
9.729131e+02,3.393539e+03
9.758058e+02,3.390891e+03
9.786985e+02,3.406123e+03
9.815912e+02,3.395951e+03
9.844839e+02,3.384210e+03
9.873766e+02,3.358927e+03
9.902693e+02,3.361261e+03
9.931620e+02,3.381101e+03
9.960547e+02,3.367069e+03
9.989474e+02,3.352681e+03
1.001840e+03,3.331526e+03
1.004733e+03,3.326236e+03
1.007626e+03,3.321359e+03
1.010518e+03,3.319076e+03
1.013411e+03,3.300187e+03
1.016304e+03,3.306304e+03
1.019196e+03,3.274934e+03
1.022089e+03,3.278380e+03
1.024982e+03,3.263503e+03
1.027875e+03,3.254653e+03
1.030767e+03,3.247575e+03
1.033660e+03,3.248042e+03
1.036552e+03,3.260493e+03
1.039445e+03,3.250725e+03
1.042338e+03,3.230697e+03
1.045231e+03,3.240251e+03
1.048123e+03,3.221491e+03
1.051016e+03,3.216314e+03
1.053909e+03,3.217433e+03
1.056802e+03,3.190386e+03
1.059694e+03,3.195383e+03
1.062587e+03,3.199269e+03
1.065479e+03,3.184356e+03
1.068372e+03,3.183895e+03
1.071265e+03,3.202877e+03
1.074158e+03,3.187641e+03
1.077050e+03,3.188491e+03
1.079943e+03,3.192814e+03
1.082836e+03,3.201298e+03
1.085729e+03,3.182379e+03
1.088621e+03,3.178147e+03
1.091514e+03,3.158606e+03
1.094406e+03,3.133564e+03
1.097299e+03,3.117163e+03
1.100192e+03,3.120087e+03
1.103085e+03,3.108603e+03
1.105977e+03,3.086534e+03
1.108870e+03,3.081108e+03
1.111763e+03,3.091669e+03
1.114656e+03,3.075433e+03
1.117548e+03,3.091615e+03
1.120441e+03,3.067813e+03
1.123334e+03,3.056360e+03
1.126226e+03,3.041297e+03
1.129119e+03,3.020289e+03
1.132012e+03,3.030250e+03
1.134904e+03,3.018816e+03
1.137797e+03,3.017746e+03
1.140690e+03,3.008539e+03
1.143583e+03,2.990952e+03
1.146475e+03,2.991565e+03
1.149368e+03,2.989843e+03
1.152261e+03,2.973333e+03
1.155153e+03,2.965622e+03
1.158046e+03,2.949609e+03
1.160939e+03,2.934746e+03
1.163831e+03,2.939390e+03
1.166724e+03,2.949433e+03
1.169617e+03,2.925812e+03
1.172510e+03,2.916859e+03
1.175402e+03,2.901772e+03
1.178295e+03,2.906350e+03
1.181188e+03,2.890831e+03
1.184080e+03,2.895523e+03
1.186973e+03,2.872429e+03
1.189866e+03,2.880623e+03
1.192758e+03,2.863622e+03
1.195651e+03,2.879392e+03
1.198544e+03,2.871503e+03
1.201437e+03,2.852957e+03
1.204329e+03,2.840789e+03
1.207222e+03,2.817254e+03
1.210115e+03,2.824974e+03
1.213007e+03,2.822147e+03
1.215900e+03,2.810596e+03
1.218793e+03,2.803008e+03
1.221685e+03,2.820319e+03
1.224578e+03,2.816682e+03
1.227471e+03,2.810402e+03
1.230364e+03,2.797421e+03
1.233256e+03,2.761930e+03
1.236149e+03,2.765964e+03
1.239042e+03,2.753626e+03
1.241934e+03,2.760374e+03
1.244827e+03,2.758615e+03
1.247720e+03,2.734623e+03
1.250612e+03,2.735627e+03
1.253505e+03,2.725714e+03
1.256398e+03,2.716854e+03
1.259291e+03,2.714872e+03
1.262183e+03,2.704499e+03
1.265076e+03,2.687819e+03
1.267969e+03,2.675188e+03
1.270861e+03,2.697458e+03
1.273754e+03,2.692399e+03
1.276647e+03,2.675435e+03
1.279539e+03,2.671870e+03
1.282432e+03,2.662849e+03
1.285325e+03,2.663153e+03
1.288218e+03,2.640202e+03
1.291110e+03,2.645588e+03
1.294003e+03,2.633877e+03
1.296896e+03,2.621877e+03
1.299788e+03,2.620746e+03
1.302681e+03,2.619183e+03
1.305574e+03,2.626748e+03
1.308466e+03,2.622036e+03
1.311359e+03,2.614155e+03
1.314252e+03,2.607194e+03
1.317145e+03,2.607153e+03
1.320037e+03,2.602416e+03
1.322930e+03,2.596743e+03
1.325823e+03,2.595514e+03
1.328715e+03,2.579410e+03
1.331608e+03,2.586325e+03
1.334501e+03,2.583863e+03
1.337393e+03,2.569711e+03
1.340286e+03,2.554015e+03
1.343179e+03,2.543578e+03
1.346072e+03,2.534539e+03
1.348964e+03,2.544353e+03
1.351857e+03,2.532843e+03
1.354750e+03,2.529563e+03
1.357642e+03,2.524284e+03
1.360535e+03,2.509368e+03
1.363428e+03,2.518431e+03
1.366320e+03,2.513054e+03
1.369213e+03,2.498783e+03
1.372106e+03,2.502103e+03
1.374999e+03,2.483836e+03
1.377891e+03,2.480472e+03
1.380784e+03,2.471907e+03
1.383677e+03,2.464451e+03
1.386569e+03,2.459721e+03
1.389462e+03,2.450275e+03
1.392355e+03,2.441013e+03
1.395247e+03,2.446445e+03
1.398140e+03,2.445141e+03
1.401033e+03,2.430894e+03
1.403926e+03,2.435722e+03
1.406818e+03,2.403644e+03
1.409711e+03,2.423209e+03
1.412604e+03,2.422303e+03
1.415496e+03,2.405396e+03
1.418389e+03,2.397583e+03
1.421282e+03,2.396675e+03
1.424174e+03,2.386549e+03
1.427067e+03,2.385028e+03
1.429960e+03,2.369025e+03
1.432853e+03,2.368522e+03
1.435745e+03,2.366449e+03
1.438638e+03,2.364211e+03
1.441531e+03,2.362953e+03
1.444423e+03,2.359201e+03
1.447316e+03,2.365046e+03
1.450209e+03,2.362417e+03
1.453101e+03,2.366823e+03
1.455994e+03,2.357571e+03
1.458887e+03,2.358448e+03
1.461780e+03,2.334764e+03
1.464672e+03,2.329970e+03
1.467565e+03,2.322524e+03
1.470458e+03,2.304719e+03
1.473350e+03,2.314091e+03
1.476243e+03,2.320627e+03
1.479136e+03,2.317286e+03
1.482028e+03,2.295228e+03
1.484921e+03,2.282452e+03
1.487814e+03,2.290036e+03
1.490707e+03,2.279604e+03
1.493599e+03,2.279536e+03
1.496492e+03,2.278231e+03
1.499385e+03,2.259673e+03
1.502277e+03,2.263032e+03
1.505170e+03,2.263642e+03
1.508063e+03,2.265345e+03
1.510955e+03,2.259355e+03
1.513848e+03,2.246828e+03
1.516741e+03,2.242674e+03
1.519634e+03,2.221496e+03
1.522526e+03,2.220479e+03
1.525419e+03,2.234210e+03
1.528312e+03,2.207457e+03
1.531204e+03,2.200135e+03
1.534097e+03,2.223373e+03
1.536990e+03,2.184339e+03
1.539882e+03,2.203657e+03
1.542775e+03,2.182990e+03
1.545668e+03,2.183295e+03
1.548561e+03,2.195773e+03
1.551453e+03,2.178098e+03
1.554346e+03,2.172047e+03
1.557239e+03,2.173600e+03
1.560131e+03,2.203882e+03
1.563024e+03,2.196924e+03
1.565917e+03,2.235903e+03
1.568809e+03,2.291469e+03
1.571702e+03,2.289335e+03
1.574595e+03,2.243435e+03
1.577488e+03,2.221993e+03
1.580380e+03,2.213278e+03
1.583273e+03,2.188898e+03
1.586166e+03,2.191131e+03
1.589058e+03,2.158984e+03
1.591951e+03,2.135587e+03
1.594844e+03,2.134146e+03
1.597736e+03,2.106975e+03
1.600629e+03,2.120929e+03
1.603522e+03,2.117143e+03
1.606415e+03,2.104575e+03
1.609307e+03,2.104293e+03
1.612200e+03,2.107285e+03
1.615093e+03,2.101260e+03
1.617985e+03,2.103738e+03
1.620878e+03,2.096715e+03
1.623771e+03,2.096772e+03
1.626663e+03,2.095959e+03
1.629556e+03,2.087083e+03
1.632449e+03,2.076656e+03
1.635342e+03,2.069718e+03
1.638234e+03,2.052568e+03
1.641127e+03,2.056983e+03
1.644020e+03,2.037572e+03
1.646912e+03,2.041468e+03
1.649805e+03,2.045960e+03
1.652698e+03,2.030574e+03
1.655590e+03,2.008840e+03
1.658483e+03,2.024613e+03
1.661376e+03,2.013507e+03
1.664269e+03,2.006036e+03
1.667161e+03,2.017226e+03
1.670054e+03,2.010676e+03
1.672947e+03,2.002796e+03
1.675839e+03,1.999954e+03
1.678732e+03,2.013711e+03
1.681625e+03,2.005833e+03
1.684517e+03,1.991425e+03
1.687410e+03,1.992438e+03
1.690303e+03,1.981642e+03
1.693196e+03,1.964378e+03
1.696088e+03,1.973334e+03
1.698981e+03,1.972243e+03
1.701874e+03,1.971820e+03
1.704766e+03,1.947639e+03
1.707659e+03,1.952394e+03
1.710552e+03,1.936501e+03
1.713444e+03,1.933729e+03
1.716337e+03,1.923756e+03
1.719230e+03,1.929984e+03
1.722123e+03,1.918518e+03
1.725015e+03,1.926586e+03
1.727908e+03,1.910926e+03
1.730801e+03,1.918094e+03
1.733693e+03,1.915188e+03
1.736586e+03,1.911120e+03
1.739479e+03,1.898754e+03
1.742371e+03,1.894324e+03
1.745264e+03,1.888217e+03
1.748157e+03,1.890751e+03
1.751050e+03,1.897510e+03
1.753942e+03,1.879940e+03
1.756835e+03,1.886293e+03
1.759728e+03,1.868376e+03
1.762620e+03,1.856038e+03
1.765513e+03,1.865648e+03
1.768406e+03,1.860754e+03
1.771298e+03,1.861555e+03
1.774191e+03,1.841701e+03
1.777084e+03,1.840837e+03
1.779977e+03,1.836374e+03
1.782869e+03,1.848956e+03
1.785762e+03,1.844080e+03
1.788655e+03,1.815015e+03
1.791547e+03,1.817166e+03
1.794440e+03,1.807501e+03
1.797333e+03,1.829397e+03
1.800225e+03,1.799366e+03
1.803118e+03,1.800762e+03
1.806011e+03,1.812584e+03
1.808904e+03,1.800644e+03
1.811796e+03,1.796280e+03
1.814689e+03,1.785277e+03
1.817582e+03,1.792008e+03
1.820474e+03,1.791457e+03
1.823367e+03,1.767880e+03
1.826260e+03,1.771660e+03
1.829152e+03,1.772584e+03
1.832045e+03,1.771304e+03
1.834938e+03,1.767284e+03
1.837831e+03,1.750460e+03
1.840723e+03,1.742313e+03
1.843616e+03,1.735813e+03
1.846509e+03,1.767116e+03
1.849401e+03,1.739124e+03
1.852294e+03,1.728957e+03
1.855187e+03,1.744008e+03
1.858079e+03,1.739071e+03
1.860972e+03,1.724360e+03
1.863865e+03,1.710479e+03
1.866758e+03,1.715569e+03
1.869650e+03,1.715522e+03
1.872543e+03,1.702930e+03
1.875436e+03,1.699009e+03
1.878328e+03,1.708043e+03
1.881221e+03,1.693682e+03
1.884114e+03,1.697769e+03
1.887006e+03,1.674029e+03
1.889899e+03,1.683797e+03
1.892792e+03,1.682152e+03
1.895685e+03,1.664506e+03
1.898577e+03,1.667793e+03
1.901470e+03,1.661817e+03
1.904363e+03,1.662819e+03
1.907255e+03,1.654417e+03
1.910148e+03,1.671288e+03
1.913041e+03,1.651722e+03
1.915933e+03,1.628136e+03
1.918826e+03,1.624094e+03
1.921719e+03,1.625440e+03
1.924612e+03,1.631028e+03
1.927504e+03,1.622293e+03
1.930397e+03,1.606369e+03
1.933290e+03,1.611718e+03
1.936182e+03,1.610799e+03
1.939075e+03,1.607183e+03
1.941968e+03,1.604036e+03
1.944860e+03,1.600461e+03
1.947753e+03,1.584494e+03
1.950646e+03,1.582741e+03
1.953539e+03,1.576950e+03
1.956431e+03,1.579332e+03
1.959324e+03,1.593635e+03
1.962217e+03,1.590129e+03
1.965109e+03,1.571965e+03
1.968002e+03,1.575541e+03
1.970895e+03,1.566490e+03
1.973787e+03,1.559112e+03
1.976680e+03,1.556486e+03
1.979573e+03,1.540651e+03
1.982466e+03,1.537601e+03
1.985358e+03,1.551755e+03
1.988251e+03,1.532521e+03
1.991144e+03,1.531487e+03
1.994036e+03,1.522237e+03
1.996929e+03,1.516750e+03
1.999822e+03,1.530561e+03
2.002714e+03,1.503181e+03
2.005607e+03,1.514950e+03
2.008500e+03,1.509041e+03
2.011393e+03,1.514584e+03
2.014285e+03,1.499011e+03
2.017178e+03,1.501168e+03
2.020071e+03,1.501769e+03
2.022963e+03,1.478834e+03
2.025856e+03,1.465231e+03
2.028749e+03,1.483434e+03
2.031641e+03,1.490589e+03
2.034534e+03,1.474574e+03
2.037427e+03,1.455430e+03
2.040320e+03,1.444158e+03
2.043212e+03,1.452162e+03
2.046105e+03,1.442494e+03
2.048998e+03,1.457219e+03
2.051890e+03,1.454114e+03
2.054783e+03,1.447021e+03
2.057676e+03,1.440972e+03
2.060568e+03,1.431545e+03
2.063461e+03,1.433167e+03
2.066354e+03,1.428080e+03
2.069247e+03,1.401536e+03
2.072139e+03,1.409700e+03
2.075032e+03,1.420527e+03
2.077925e+03,1.396830e+03
2.080817e+03,1.401254e+03
2.083710e+03,1.384174e+03
2.086603e+03,1.388427e+03
2.089496e+03,1.391441e+03
2.092388e+03,1.374757e+03
2.095281e+03,1.386212e+03
2.098174e+03,1.391100e+03
2.101066e+03,1.381889e+03
2.103959e+03,1.348927e+03
2.106852e+03,1.384605e+03
2.109744e+03,1.369412e+03
2.112637e+03,1.358256e+03
2.115530e+03,1.345397e+03
2.118422e+03,1.356217e+03
2.121315e+03,1.345075e+03
2.124208e+03,1.339786e+03
2.127101e+03,1.324866e+03
2.129993e+03,1.323262e+03
2.132886e+03,1.334985e+03
2.135779e+03,1.318395e+03
2.138671e+03,1.324412e+03
2.141564e+03,1.312588e+03
2.144457e+03,1.296215e+03
2.147350e+03,1.294324e+03
2.150242e+03,1.301084e+03
2.153135e+03,1.294974e+03
2.156028e+03,1.294027e+03
2.158920e+03,1.283424e+03
2.161813e+03,1.291427e+03
2.164706e+03,1.271465e+03
2.167598e+03,1.282397e+03
2.170491e+03,1.271529e+03
2.173384e+03,1.274504e+03
2.176277e+03,1.258115e+03
2.179169e+03,1.260624e+03
2.182062e+03,1.244611e+03
2.184955e+03,1.251586e+03
2.187847e+03,1.256197e+03
2.190740e+03,1.246078e+03
2.193633e+03,1.232784e+03
2.196525e+03,1.230470e+03
2.199418e+03,1.237459e+03
2.202311e+03,1.227771e+03
2.205204e+03,1.219505e+03
2.208096e+03,1.217383e+03
2.210989e+03,1.203986e+03
2.213882e+03,1.221648e+03
2.216774e+03,1.194747e+03
2.219667e+03,1.218787e+03
2.222560e+03,1.195404e+03
2.225452e+03,1.192790e+03
2.228345e+03,1.183876e+03
2.231238e+03,1.193149e+03
2.234131e+03,1.193384e+03
2.237023e+03,1.191249e+03
2.239916e+03,1.169060e+03
2.242809e+03,1.164236e+03
2.245701e+03,1.161927e+03
2.248594e+03,1.166430e+03
2.251487e+03,1.158801e+03
2.254379e+03,1.161828e+03
2.257272e+03,1.156286e+03
2.260165e+03,1.134174e+03
2.263058e+03,1.133282e+03
2.265950e+03,1.144762e+03
2.268843e+03,1.126572e+03
2.271736e+03,1.119498e+03
2.274628e+03,1.133315e+03
2.277521e+03,1.123156e+03
2.280414e+03,1.120388e+03
2.283306e+03,1.127361e+03
2.286199e+03,1.105797e+03
2.289092e+03,1.095992e+03
2.291985e+03,1.108471e+03
2.294877e+03,1.108926e+03
2.297770e+03,1.108258e+03
2.300663e+03,1.099656e+03
2.303555e+03,1.090374e+03
2.306448e+03,1.078701e+03
2.309341e+03,1.084239e+03
2.312233e+03,1.069837e+03
2.315126e+03,1.081189e+03
2.318019e+03,1.059858e+03
2.320912e+03,1.061826e+03
2.323804e+03,1.066739e+03
2.326697e+03,1.066578e+03
2.329590e+03,1.057545e+03
2.332482e+03,1.056500e+03
2.335375e+03,1.037311e+03
2.338268e+03,1.028797e+03
2.341160e+03,1.039307e+03
2.344053e+03,1.033748e+03
2.346946e+03,1.031613e+03
2.349839e+03,1.035645e+03
2.352731e+03,1.027213e+03
2.355624e+03,1.022529e+03
2.358517e+03,1.023095e+03
2.361409e+03,1.012580e+03
2.364302e+03,1.016442e+03
2.367195e+03,1.028197e+03
2.370087e+03,1.001964e+03
2.372980e+03,1.005610e+03
2.375873e+03,9.992355e+02
2.378766e+03,9.911937e+02
2.381658e+03,9.841047e+02
2.384551e+03,9.888391e+02
2.387444e+03,9.702083e+02
2.390336e+03,9.896152e+02
2.393229e+03,9.863805e+02
2.396122e+03,9.769523e+02
2.399014e+03,9.756190e+02
2.401907e+03,9.563214e+02
2.404800e+03,9.721136e+02
2.407693e+03,9.735189e+02
2.410585e+03,9.693596e+02
2.413478e+03,9.492732e+02
2.416371e+03,9.505162e+02
2.419263e+03,9.500889e+02
2.422156e+03,9.472411e+02
2.425049e+03,9.426461e+02
2.427941e+03,9.361848e+02
2.430834e+03,9.496090e+02
2.433727e+03,9.350619e+02
2.436620e+03,9.255206e+02
2.439512e+03,9.138144e+02
2.442405e+03,9.226244e+02
2.445298e+03,9.225016e+02
2.448190e+03,9.276783e+02
2.451083e+03,9.265240e+02
2.453976e+03,9.227323e+02
2.456868e+03,9.106017e+02
2.459761e+03,9.022504e+02
2.462654e+03,9.141335e+02
2.465547e+03,8.966414e+02
2.468439e+03,9.053096e+02
2.471332e+03,8.939880e+02
2.474225e+03,8.996169e+02
2.477117e+03,8.916459e+02
2.480010e+03,8.902484e+02
2.482903e+03,8.824660e+02
2.485795e+03,8.780162e+02
2.488688e+03,8.825397e+02
2.491581e+03,8.697767e+02
2.494474e+03,8.843817e+02
2.497366e+03,8.798958e+02
2.500259e+03,8.830936e+02
2.503152e+03,8.788454e+02
2.506044e+03,8.575431e+02
2.508937e+03,8.463156e+02
2.511830e+03,8.521220e+02
2.514722e+03,8.706879e+02
2.517615e+03,8.527832e+02
2.520508e+03,8.517017e+02
2.523401e+03,8.368139e+02
2.526293e+03,8.423658e+02
2.529186e+03,8.386746e+02
2.532079e+03,8.534568e+02
2.534971e+03,8.318470e+02
2.537864e+03,8.337379e+02
2.540757e+03,8.282247e+02
2.543649e+03,8.316005e+02
2.546542e+03,8.343677e+02
2.549435e+03,8.252971e+02
2.552328e+03,8.311108e+02
2.555220e+03,8.296017e+02
2.558113e+03,8.191845e+02
2.561006e+03,8.271207e+02
2.563898e+03,8.213405e+02
2.566791e+03,8.187016e+02
2.569684e+03,8.128590e+02
2.572576e+03,8.024363e+02
2.575469e+03,8.089014e+02
2.578362e+03,7.951408e+02
2.581255e+03,7.956263e+02
2.584147e+03,7.898518e+02
2.587040e+03,7.999739e+02
2.589933e+03,8.000812e+02
2.592825e+03,7.716005e+02
2.595718e+03,7.751525e+02
2.598611e+03,7.812561e+02
2.601503e+03,7.823019e+02
2.604396e+03,7.849472e+02
2.607289e+03,7.715847e+02
2.610182e+03,7.686577e+02
2.613074e+03,7.715602e+02
2.615967e+03,7.737458e+02
2.618860e+03,7.811495e+02
2.621752e+03,7.729522e+02
2.624645e+03,7.635189e+02
2.627538e+03,7.697919e+02
2.630430e+03,7.569940e+02
2.633323e+03,7.588724e+02
2.636216e+03,7.511082e+02
2.639109e+03,7.569421e+02
2.642001e+03,7.638154e+02
2.644894e+03,7.426258e+02
2.647787e+03,7.486412e+02
2.650679e+03,7.531408e+02
2.653572e+03,7.298422e+02
2.656465e+03,7.480983e+02
2.659357e+03,7.303617e+02
2.662250e+03,7.391184e+02
2.665143e+03,7.361966e+02
2.668036e+03,7.452860e+02
2.670928e+03,7.405522e+02
2.673821e+03,7.201777e+02
2.676714e+03,7.248849e+02
2.679606e+03,7.253063e+02
2.682499e+03,7.086064e+02
2.685392e+03,7.209130e+02
2.688284e+03,7.290323e+02
2.691177e+03,7.124583e+02
2.694070e+03,7.206340e+02
2.696963e+03,7.154503e+02
2.699855e+03,7.004504e+02
2.702748e+03,7.069207e+02
2.705641e+03,7.052780e+02
2.708533e+03,7.103492e+02
2.711426e+03,6.992698e+02
2.714319e+03,6.959171e+02
2.717211e+03,7.000706e+02
2.720104e+03,7.104195e+02
2.722997e+03,6.820730e+02
2.725890e+03,6.831547e+02
2.728782e+03,6.931795e+02
2.731675e+03,6.766981e+02
2.734568e+03,6.877886e+02
2.737460e+03,6.748046e+02
2.740353e+03,6.841251e+02
2.743246e+03,6.795713e+02
2.746138e+03,6.810194e+02
2.749031e+03,6.817291e+02
2.751924e+03,6.664925e+02
2.754817e+03,6.784086e+02
2.757709e+03,6.694493e+02
2.760602e+03,6.797279e+02
2.763495e+03,6.667164e+02
2.766387e+03,6.613815e+02
2.769280e+03,6.675018e+02
2.772173e+03,6.687097e+02
2.775065e+03,6.577184e+02
2.777958e+03,6.479246e+02
2.780851e+03,6.597679e+02
2.783744e+03,6.831540e+02
2.786636e+03,6.391526e+02
2.789529e+03,6.668767e+02
2.792422e+03,6.580446e+02
2.795314e+03,6.493450e+02
2.798207e+03,6.529030e+02
2.801100e+03,6.488362e+02
2.803992e+03,6.330114e+02
2.806885e+03,6.537863e+02
2.809778e+03,6.351796e+02
2.812671e+03,6.393087e+02
2.815563e+03,6.455881e+02
2.818456e+03,6.313973e+02
2.821349e+03,6.435325e+02
2.824241e+03,6.458395e+02
2.827134e+03,6.188308e+02
2.830027e+03,6.299091e+02
2.832919e+03,6.372961e+02
2.835812e+03,6.409244e+02
2.838705e+03,6.345065e+02
2.841598e+03,6.257670e+02
2.844490e+03,6.131885e+02
2.847383e+03,6.211782e+02
2.850276e+03,6.478068e+02
2.853168e+03,6.273257e+02
2.856061e+03,6.255897e+02
2.858954e+03,6.389151e+02
2.861846e+03,6.195975e+02
2.864739e+03,6.117927e+02
2.867632e+03,6.201025e+02
2.870525e+03,6.422503e+02
2.873417e+03,6.265462e+02
2.876310e+03,6.325453e+02
2.879203e+03,6.307372e+02
2.882095e+03,6.442010e+02
2.884988e+03,6.265900e+02
2.887881e+03,6.384527e+02
2.890773e+03,6.349966e+02
2.893666e+03,6.349902e+02
2.896559e+03,6.158153e+02
2.899452e+03,6.179684e+02
2.902344e+03,6.208252e+02
2.905237e+03,6.278075e+02
2.908130e+03,6.023348e+02
2.911022e+03,6.099779e+02
2.913915e+03,6.397152e+02
2.916808e+03,6.118555e+02
2.919700e+03,6.041891e+02
2.922593e+03,6.197785e+02
2.925486e+03,6.139767e+02
2.928379e+03,5.890056e+02
2.931271e+03,6.033466e+02
2.934164e+03,6.095372e+02
2.937057e+03,6.008098e+02
2.939949e+03,6.008516e+02
2.942842e+03,5.898566e+02
2.945735e+03,5.757736e+02
2.948627e+03,5.806456e+02
2.951520e+03,5.923416e+02
2.954413e+03,6.054128e+02
2.957306e+03,6.437022e+02
2.960198e+03,5.793101e+02
2.963091e+03,6.084082e+02
2.965984e+03,5.699286e+02
2.968876e+03,5.830333e+02
2.971769e+03,5.612786e+02
2.974662e+03,5.686810e+02
2.977554e+03,5.764653e+02
2.980447e+03,5.756618e+02
2.983340e+03,5.808991e+02
2.986233e+03,5.589302e+02
2.989125e+03,5.573006e+02
2.992018e+03,5.440359e+02
2.994911e+03,5.862012e+02
2.997803e+03,5.720685e+02
3.000696e+03,5.856290e+02
3.003589e+03,5.435552e+02
3.006481e+03,5.515505e+02
3.009374e+03,5.608438e+02
3.012267e+03,5.545836e+02
3.015160e+03,5.611404e+02
3.018052e+03,5.774391e+02
3.020945e+03,5.609329e+02
3.023838e+03,5.681351e+02
3.026730e+03,5.536904e+02
3.029623e+03,5.714147e+02
3.032516e+03,5.404432e+02
3.035408e+03,5.878909e+02
3.038301e+03,5.577625e+02
3.041194e+03,5.385438e+02
3.044087e+03,5.410968e+02
3.046979e+03,5.779816e+02
3.049872e+03,5.476245e+02
3.052765e+03,5.425458e+02
3.055657e+03,5.463524e+02
3.058550e+03,5.800604e+02
3.061443e+03,5.568299e+02
3.064335e+03,5.220315e+02
3.067228e+03,5.413567e+02
3.070121e+03,5.324657e+02
3.073014e+03,5.194568e+02
3.075906e+03,5.333645e+02
3.078799e+03,5.243152e+02
3.081692e+03,5.343339e+02
3.084584e+03,5.410974e+02
3.087477e+03,5.496322e+02
3.090370e+03,5.542346e+02
3.093262e+03,5.608054e+02
3.096155e+03,5.564387e+02
3.099048e+03,5.454254e+02
3.101941e+03,5.563763e+02
3.104833e+03,5.326829e+02
3.107726e+03,5.544058e+02
3.110619e+03,5.643757e+02
3.113511e+03,5.501374e+02
3.116404e+03,5.468484e+02
3.119297e+03,5.093890e+02
3.122189e+03,5.550967e+02
3.125082e+03,5.250749e+02
3.127975e+03,5.380795e+02
3.130868e+03,5.572631e+02
3.133760e+03,5.575801e+02
3.136653e+03,5.703830e+02
3.139546e+03,5.845027e+02
3.142438e+03,5.509724e+02
3.145331e+03,5.262869e+02
3.148224e+03,5.313348e+02
3.151116e+03,5.539929e+02
3.154009e+03,5.523519e+02
3.156902e+03,5.425041e+02
3.159795e+03,5.176536e+02
3.162687e+03,5.288512e+02
3.165580e+03,5.529218e+02
3.168473e+03,5.484822e+02
3.171365e+03,5.301630e+02
3.174258e+03,5.935217e+02
3.177151e+03,5.666154e+02
3.180043e+03,5.780233e+02
3.182936e+03,5.231603e+02
3.185829e+03,5.674835e+02
3.188722e+03,5.215055e+02
3.191614e+03,5.815305e+02
3.194507e+03,5.395927e+02
3.197400e+03,5.419775e+02
3.200292e+03,5.780055e+02
3.203185e+03,0.000000e+00
3.206078e+03,0.000000e+00
3.208970e+03,0.000000e+00
3.211863e+03,0.000000e+00
3.214756e+03,0.000000e+00
3.217649e+03,0.000000e+00
3.220541e+03,0.000000e+00
3.223434e+03,0.000000e+00
3.226327e+03,0.000000e+00
3.229219e+03,0.000000e+00
3.232112e+03,0.000000e+00
3.235005e+03,0.000000e+00
3.237897e+03,0.000000e+00
3.240790e+03,0.000000e+00
3.243683e+03,0.000000e+00
3.246576e+03,0.000000e+00
3.249468e+03,0.000000e+00
3.252361e+03,0.000000e+00
3.255254e+03,0.000000e+00
3.258146e+03,0.000000e+00
3.261039e+03,0.000000e+00
3.263932e+03,0.000000e+00
3.266824e+03,0.000000e+00
3.269717e+03,0.000000e+00
3.272610e+03,0.000000e+00
3.275503e+03,0.000000e+00
3.278395e+03,0.000000e+00
3.281288e+03,0.000000e+00
3.284181e+03,0.000000e+00
3.287073e+03,0.000000e+00
3.289966e+03,0.000000e+00
3.292859e+03,0.000000e+00
3.295751e+03,0.000000e+00
3.298644e+03,0.000000e+00
3.301537e+03,0.000000e+00
3.304430e+03,0.000000e+00
3.307322e+03,0.000000e+00
3.310215e+03,0.000000e+00
3.313108e+03,0.000000e+00
3.316000e+03,0.000000e+00
3.318893e+03,0.000000e+00
3.321786e+03,0.000000e+00
3.324678e+03,0.000000e+00
3.327571e+03,0.000000e+00
3.330464e+03,0.000000e+00
3.333357e+03,0.000000e+00
3.336249e+03,0.000000e+00
3.339142e+03,0.000000e+00
3.342035e+03,0.000000e+00
3.344927e+03,0.000000e+00
3.347820e+03,0.000000e+00
3.350713e+03,0.000000e+00
3.353605e+03,0.000000e+00
3.356498e+03,0.000000e+00
3.359391e+03,0.000000e+00
3.362284e+03,0.000000e+00
3.365176e+03,0.000000e+00
3.368069e+03,0.000000e+00
3.370962e+03,0.000000e+00
3.373854e+03,0.000000e+00
3.376747e+03,0.000000e+00
3.379640e+03,0.000000e+00
3.382532e+03,0.000000e+00
3.385425e+03,0.000000e+00
3.388318e+03,0.000000e+00
3.391211e+03,0.000000e+00
3.394103e+03,0.000000e+00
3.396996e+03,0.000000e+00
3.399889e+03,0.000000e+00
3.402781e+03,0.000000e+00
3.405674e+03,0.000000e+00
3.408567e+03,0.000000e+00
3.411459e+03,0.000000e+00
3.414352e+03,0.000000e+00
3.417245e+03,0.000000e+00
3.420138e+03,0.000000e+00
3.423030e+03,0.000000e+00
3.425923e+03,0.000000e+00
3.428816e+03,0.000000e+00
3.431708e+03,0.000000e+00
3.434601e+03,0.000000e+00
3.437494e+03,0.000000e+00
3.440386e+03,0.000000e+00
3.443279e+03,0.000000e+00
3.446172e+03,0.000000e+00
3.449065e+03,0.000000e+00
3.451957e+03,0.000000e+00
3.454850e+03,0.000000e+00
3.457743e+03,0.000000e+00
3.460635e+03,0.000000e+00
3.463528e+03,0.000000e+00
3.466421e+03,0.000000e+00
3.469313e+03,0.000000e+00
3.472206e+03,0.000000e+00
3.475099e+03,0.000000e+00
3.477992e+03,0.000000e+00
3.480884e+03,0.000000e+00
3.483777e+03,0.000000e+00
3.486670e+03,0.000000e+00
3.489563e+03,0.000000e+00
3.492455e+03,0.000000e+00
3.495348e+03,0.000000e+00
3.498240e+03,0.000000e+00
3.500169e+03,0.000000e+00