File: RAMAN_data/23052023_r3/blue fibre9.CSV
9.931763e+01,0.000000e+00
1.022103e+02,0.000000e+00
1.051030e+02,0.000000e+00
1.079957e+02,0.000000e+00
1.108884e+02,0.000000e+00
1.137811e+02,0.000000e+00
1.166738e+02,0.000000e+00
1.195665e+02,0.000000e+00
1.224592e+02,0.000000e+00
1.253519e+02,0.000000e+00
1.282446e+02,0.000000e+00
1.311373e+02,0.000000e+00
1.340300e+02,0.000000e+00
1.369227e+02,0.000000e+00
1.398154e+02,0.000000e+00
1.427081e+02,0.000000e+00
1.456008e+02,0.000000e+00
1.484935e+02,0.000000e+00
1.513862e+02,0.000000e+00
1.542789e+02,0.000000e+00
1.571716e+02,0.000000e+00
1.600643e+02,0.000000e+00
1.629570e+02,0.000000e+00
1.658497e+02,0.000000e+00
1.687424e+02,0.000000e+00
1.716351e+02,0.000000e+00
1.745278e+02,0.000000e+00
1.774205e+02,0.000000e+00
1.803132e+02,0.000000e+00
1.832059e+02,0.000000e+00
1.860986e+02,0.000000e+00
1.889913e+02,0.000000e+00
1.918840e+02,0.000000e+00
1.947767e+02,0.000000e+00
1.976694e+02,0.000000e+00
2.005621e+02,3.703194e+03
2.034548e+02,3.735760e+03
2.063475e+02,3.717118e+03
2.092402e+02,3.722416e+03
2.121329e+02,3.724941e+03
2.150256e+02,3.734805e+03
2.179183e+02,3.761590e+03
2.208110e+02,3.784234e+03
2.237037e+02,3.762021e+03
2.265964e+02,3.772780e+03
2.294892e+02,3.779576e+03
2.323819e+02,3.799329e+03
2.352746e+02,3.805161e+03
2.381673e+02,3.824703e+03
2.410600e+02,3.830408e+03
2.439527e+02,3.833358e+03
2.468454e+02,3.851439e+03
2.497381e+02,3.862200e+03
2.526308e+02,3.880512e+03
2.555235e+02,3.852378e+03
2.584161e+02,3.864356e+03
2.613088e+02,3.879448e+03
2.642015e+02,3.903812e+03
2.670942e+02,3.928142e+03
2.699869e+02,3.934649e+03
2.728796e+02,3.933067e+03
2.757723e+02,3.945889e+03
2.786650e+02,3.959935e+03
2.815577e+02,3.956522e+03
2.844504e+02,3.962289e+03
2.873431e+02,3.955354e+03
2.902358e+02,3.959368e+03
2.931285e+02,3.975077e+03
2.960212e+02,3.973870e+03
2.989139e+02,3.970032e+03
3.018066e+02,3.973024e+03
3.046993e+02,3.971892e+03
3.075920e+02,3.961786e+03
3.104847e+02,3.981586e+03
3.133774e+02,3.999122e+03
3.162701e+02,3.988086e+03
3.191628e+02,3.982262e+03
3.220555e+02,3.987410e+03
3.249482e+02,4.011387e+03
3.278409e+02,4.013989e+03
3.307336e+02,4.004722e+03
3.336263e+02,4.007970e+03
3.365190e+02,4.005423e+03
3.394117e+02,4.014590e+03
3.423044e+02,4.042099e+03
3.451971e+02,4.033715e+03
3.480898e+02,4.032337e+03
3.509825e+02,4.032323e+03
3.538752e+02,4.038806e+03
3.567680e+02,4.049126e+03
3.596607e+02,4.047863e+03
3.625534e+02,4.065076e+03
3.654461e+02,4.036813e+03
3.683388e+02,4.058626e+03
3.712315e+02,4.075837e+03
3.741242e+02,4.068112e+03
3.770169e+02,4.082752e+03
3.799096e+02,4.086767e+03
3.828023e+02,4.072540e+03
3.856950e+02,4.062256e+03
3.885877e+02,4.088756e+03
3.914804e+02,4.083988e+03
3.943731e+02,4.108060e+03
3.972658e+02,4.069023e+03
4.001585e+02,4.078176e+03
4.030512e+02,4.104276e+03
4.059439e+02,4.092986e+03
4.088366e+02,4.086898e+03
4.117293e+02,4.080032e+03
4.146220e+02,4.096030e+03
4.175147e+02,4.101192e+03
4.204074e+02,4.084478e+03
4.233001e+02,4.094784e+03
4.261928e+02,4.122383e+03
4.290855e+02,4.095776e+03
4.319782e+02,4.101767e+03
4.348709e+02,4.108741e+03
4.377636e+02,4.104534e+03
4.406563e+02,4.094824e+03
4.435490e+02,4.109389e+03
4.464417e+02,4.107197e+03
4.493344e+02,4.101872e+03
4.522271e+02,4.124218e+03
4.551198e+02,4.103387e+03
4.580125e+02,4.109667e+03
4.609052e+02,4.112789e+03
4.637979e+02,4.091097e+03
4.666906e+02,4.100852e+03
4.695833e+02,4.099310e+03
4.724760e+02,4.090665e+03
4.753687e+02,4.102292e+03
4.782614e+02,4.085609e+03
4.811541e+02,4.097348e+03
4.840468e+02,4.105936e+03
4.869395e+02,4.095867e+03
4.898322e+02,4.100481e+03
4.927249e+02,4.111477e+03
4.956176e+02,4.111536e+03
4.985103e+02,4.149784e+03
5.014030e+02,4.123791e+03
5.042957e+02,4.117928e+03
5.071884e+02,4.116089e+03
5.100811e+02,4.101463e+03
5.129738e+02,4.091813e+03
5.158665e+02,4.113389e+03
5.187592e+02,4.131378e+03
5.216519e+02,4.105021e+03
5.245446e+02,4.108140e+03
5.274373e+02,4.117053e+03
5.303300e+02,4.111873e+03
5.332227e+02,4.105662e+03
5.361154e+02,4.107096e+03
5.390081e+02,4.121286e+03
5.419008e+02,4.151364e+03
5.447935e+02,4.134502e+03
5.476862e+02,4.144365e+03
5.505789e+02,4.130935e+03
5.534716e+02,4.129985e+03
5.563643e+02,4.139635e+03
5.592570e+02,4.129417e+03
5.621497e+02,4.115915e+03
5.650424e+02,4.108600e+03
5.679351e+02,4.084242e+03
5.708278e+02,4.061927e+03
5.737205e+02,4.087119e+03
5.766132e+02,4.083310e+03
5.795059e+02,4.082388e+03
5.823986e+02,4.078838e+03
5.852913e+02,4.066302e+03
5.881840e+02,4.071694e+03
5.910767e+02,4.072958e+03
5.939694e+02,4.076621e+03
5.968621e+02,4.077686e+03
5.997548e+02,4.080680e+03
6.026475e+02,4.063707e+03
6.055402e+02,4.083177e+03
6.084329e+02,4.087796e+03
6.113256e+02,4.077696e+03
6.142183e+02,4.043460e+03
6.171110e+02,4.052637e+03
6.200037e+02,4.043507e+03
6.228964e+02,4.044754e+03
6.257891e+02,4.051232e+03
6.286818e+02,4.038462e+03
6.315745e+02,4.047327e+03
6.344672e+02,4.032818e+03
6.373599e+02,4.032422e+03
6.402526e+02,4.017822e+03
6.431453e+02,4.019905e+03
6.460380e+02,3.991410e+03
6.489307e+02,3.997322e+03
6.518234e+02,3.998437e+03
6.547161e+02,4.006434e+03
6.576088e+02,3.991522e+03
6.605015e+02,3.985941e+03
6.633942e+02,3.984405e+03
6.662869e+02,3.967533e+03
6.691796e+02,3.986058e+03
6.720723e+02,3.989031e+03
6.749650e+02,3.959390e+03
6.778577e+02,3.943928e+03
6.807504e+02,3.945467e+03
6.836431e+02,3.954369e+03
6.865358e+02,3.949189e+03
6.894285e+02,3.942245e+03
6.923212e+02,3.902097e+03
6.952139e+02,3.915635e+03
6.981066e+02,3.917082e+03
7.009993e+02,3.917627e+03
7.038920e+02,3.922079e+03
7.067847e+02,3.918177e+03
7.096774e+02,3.901968e+03
7.125701e+02,3.902525e+03
7.154628e+02,3.904673e+03
7.183555e+02,3.883917e+03
7.212482e+02,3.882879e+03
7.241409e+02,3.883820e+03
7.270336e+02,3.892182e+03
7.299263e+02,3.873463e+03
7.328190e+02,3.851995e+03
7.357117e+02,3.846245e+03
7.386044e+02,3.858710e+03
7.414971e+02,3.848465e+03
7.443898e+02,3.837130e+03
7.472825e+02,3.846716e+03
7.501752e+02,3.838804e+03
7.530679e+02,3.841026e+03
7.559606e+02,3.836414e+03
7.588533e+02,3.825343e+03
7.617460e+02,3.830300e+03
7.646387e+02,3.804263e+03
7.675314e+02,3.823486e+03
7.704241e+02,3.804438e+03
7.733168e+02,3.799309e+03
7.762095e+02,3.801757e+03
7.791022e+02,3.790786e+03
7.819949e+02,3.785134e+03
7.848876e+02,3.787325e+03
7.877803e+02,3.775169e+03
7.906730e+02,3.789652e+03
7.935657e+02,3.762062e+03
7.964584e+02,3.760293e+03
7.993511e+02,3.727985e+03
8.022438e+02,3.737972e+03
8.051365e+02,3.743965e+03
8.080292e+02,3.735576e+03
8.109219e+02,3.732123e+03
8.138146e+02,3.703932e+03
8.167073e+02,3.708823e+03
8.196000e+02,3.707386e+03
8.224927e+02,3.712507e+03
8.253854e+02,3.694806e+03
8.282781e+02,3.697636e+03
8.311708e+02,3.684774e+03
8.340635e+02,3.680456e+03
8.369562e+02,3.693663e+03
8.398489e+02,3.681811e+03
8.427416e+02,3.685908e+03
8.456343e+02,3.656125e+03
8.485270e+02,3.638468e+03
8.514197e+02,3.646967e+03
8.543124e+02,3.651516e+03
8.572051e+02,3.626238e+03
8.600978e+02,3.628385e+03
8.629905e+02,3.616863e+03
8.658832e+02,3.618312e+03
8.687759e+02,3.614659e+03
8.716686e+02,3.592411e+03
8.745613e+02,3.590002e+03
8.774540e+02,3.593015e+03
8.803467e+02,3.609737e+03
8.832394e+02,3.592543e+03
8.861321e+02,3.592971e+03
8.890248e+02,3.593239e+03
8.919175e+02,3.585847e+03
8.948102e+02,3.552340e+03
8.977029e+02,3.547676e+03
9.005956e+02,3.542872e+03
9.034883e+02,3.530138e+03
9.063810e+02,3.531551e+03
9.092737e+02,3.521583e+03
9.121664e+02,3.515336e+03
9.150591e+02,3.498335e+03
9.179518e+02,3.503739e+03
9.208445e+02,3.476845e+03
9.237372e+02,3.475782e+03
9.266299e+02,3.478372e+03
9.295226e+02,3.477394e+03
9.324153e+02,3.473395e+03
9.353080e+02,3.449917e+03
9.382007e+02,3.440638e+03
9.410934e+02,3.447766e+03
9.439861e+02,3.422003e+03
9.468788e+02,3.428402e+03
9.497715e+02,3.429165e+03
9.526642e+02,3.404506e+03
9.555569e+02,3.406297e+03
9.584496e+02,3.407634e+03
9.613423e+02,3.398021e+03
9.642350e+02,3.395528e+03
9.671277e+02,3.379801e+03
9.700204e+02,3.382513e+03
9.729131e+02,3.354982e+03
9.758058e+02,3.350166e+03
9.786985e+02,3.351063e+03
9.815912e+02,3.361173e+03
9.844839e+02,3.345368e+03
9.873766e+02,3.334687e+03
9.902693e+02,3.345084e+03
9.931620e+02,3.337075e+03
9.960547e+02,3.324054e+03
9.989474e+02,3.302480e+03
1.001840e+03,3.297020e+03
1.004733e+03,3.288863e+03
1.007626e+03,3.302967e+03
1.010518e+03,3.275640e+03
1.013411e+03,3.285906e+03
1.016304e+03,3.268854e+03
1.019196e+03,3.271300e+03
1.022089e+03,3.250357e+03
1.024982e+03,3.261062e+03
1.027875e+03,3.256870e+03
1.030767e+03,3.239128e+03
1.033660e+03,3.227447e+03
1.036552e+03,3.232331e+03
1.039445e+03,3.220346e+03
1.042338e+03,3.216997e+03
1.045231e+03,3.208639e+03
1.048123e+03,3.212448e+03
1.051016e+03,3.195856e+03
1.053909e+03,3.207673e+03
1.056802e+03,3.186005e+03
1.059694e+03,3.171217e+03
1.062587e+03,3.170043e+03
1.065479e+03,3.177712e+03
1.068372e+03,3.183328e+03
1.071265e+03,3.180194e+03
1.074158e+03,3.176402e+03
1.077050e+03,3.163783e+03
1.079943e+03,3.167881e+03
1.082836e+03,3.161537e+03
1.085729e+03,3.165228e+03
1.088621e+03,3.159970e+03
1.091514e+03,3.151573e+03
1.094406e+03,3.133768e+03
1.097299e+03,3.102458e+03
1.100192e+03,3.106053e+03
1.103085e+03,3.104245e+03
1.105977e+03,3.094635e+03
1.108870e+03,3.086747e+03
1.111763e+03,3.073808e+03
1.114656e+03,3.081470e+03
1.117548e+03,3.061804e+03
1.120441e+03,3.072758e+03
1.123334e+03,3.057531e+03
1.126226e+03,3.047369e+03
1.129119e+03,3.027265e+03
1.132012e+03,3.042988e+03
1.134904e+03,3.018906e+03
1.137797e+03,3.009788e+03
1.140690e+03,3.016714e+03
1.143583e+03,2.995592e+03
1.146475e+03,2.993883e+03
1.149368e+03,2.990359e+03
1.152261e+03,2.993971e+03
1.155153e+03,2.951120e+03
1.158046e+03,2.960949e+03
1.160939e+03,2.947683e+03
1.163831e+03,2.951780e+03
1.166724e+03,2.941742e+03
1.169617e+03,2.937027e+03
1.172510e+03,2.931796e+03
1.175402e+03,2.933301e+03
1.178295e+03,2.906719e+03
1.181188e+03,2.930646e+03
1.184080e+03,2.920989e+03
1.186973e+03,2.902671e+03
1.189866e+03,2.896962e+03
1.192758e+03,2.884347e+03
1.195651e+03,2.876768e+03
1.198544e+03,2.891674e+03
1.201437e+03,2.867741e+03
1.204329e+03,2.854342e+03
1.207222e+03,2.873008e+03
1.210115e+03,2.847439e+03
1.213007e+03,2.865100e+03
1.215900e+03,2.836656e+03
1.218793e+03,2.852856e+03
1.221685e+03,2.822745e+03
1.224578e+03,2.835737e+03
1.227471e+03,2.834837e+03
1.230364e+03,2.815240e+03
1.233256e+03,2.800817e+03
1.236149e+03,2.795424e+03
1.239042e+03,2.792338e+03
1.241934e+03,2.787935e+03
1.244827e+03,2.785285e+03
1.247720e+03,2.787641e+03
1.250612e+03,2.768827e+03
1.253505e+03,2.764608e+03
1.256398e+03,2.771323e+03
1.259291e+03,2.755451e+03
1.262183e+03,2.747918e+03
1.265076e+03,2.728130e+03
1.267969e+03,2.739114e+03
1.270861e+03,2.739695e+03
1.273754e+03,2.738878e+03
1.276647e+03,2.723192e+03
1.279539e+03,2.723380e+03
1.282432e+03,2.704174e+03
1.285325e+03,2.700818e+03
1.288218e+03,2.715422e+03
1.291110e+03,2.712274e+03
1.294003e+03,2.701103e+03
1.296896e+03,2.674969e+03
1.299788e+03,2.681066e+03
1.302681e+03,2.683643e+03
1.305574e+03,2.682809e+03
1.308466e+03,2.676184e+03
1.311359e+03,2.652926e+03
1.314252e+03,2.667803e+03
1.317145e+03,2.666268e+03
1.320037e+03,2.652699e+03
1.322930e+03,2.646081e+03
1.325823e+03,2.640405e+03
1.328715e+03,2.636917e+03
1.331608e+03,2.627423e+03
1.334501e+03,2.626386e+03
1.337393e+03,2.623958e+03
1.340286e+03,2.601606e+03
1.343179e+03,2.615810e+03
1.346072e+03,2.596059e+03
1.348964e+03,2.605517e+03
1.351857e+03,2.599383e+03
1.354750e+03,2.581227e+03
1.357642e+03,2.582818e+03
1.360535e+03,2.589122e+03
1.363428e+03,2.588048e+03
1.366320e+03,2.588785e+03
1.369213e+03,2.575875e+03
1.372106e+03,2.567718e+03
1.374999e+03,2.556441e+03
1.377891e+03,2.553396e+03
1.380784e+03,2.549502e+03
1.383677e+03,2.552907e+03
1.386569e+03,2.535286e+03
1.389462e+03,2.523981e+03
1.392355e+03,2.512973e+03
1.395247e+03,2.515232e+03
1.398140e+03,2.520604e+03
1.401033e+03,2.495435e+03
1.403926e+03,2.495265e+03
1.406818e+03,2.487944e+03
1.409711e+03,2.494280e+03
1.412604e+03,2.483298e+03
1.415496e+03,2.478838e+03
1.418389e+03,2.482336e+03
1.421282e+03,2.472306e+03
1.424174e+03,2.477039e+03
1.427067e+03,2.461817e+03
1.429960e+03,2.456875e+03
1.432853e+03,2.457176e+03
1.435745e+03,2.434989e+03
1.438638e+03,2.442091e+03
1.441531e+03,2.439487e+03
1.444423e+03,2.436089e+03
1.447316e+03,2.435434e+03
1.450209e+03,2.437126e+03
1.453101e+03,2.428352e+03
1.455994e+03,2.434352e+03
1.458887e+03,2.429673e+03
1.461780e+03,2.417421e+03
1.464672e+03,2.401469e+03
1.467565e+03,2.394292e+03
1.470458e+03,2.392361e+03
1.473350e+03,2.390417e+03
1.476243e+03,2.386229e+03
1.479136e+03,2.393688e+03
1.482028e+03,2.367418e+03
1.484921e+03,2.359250e+03
1.487814e+03,2.370955e+03
1.490707e+03,2.357383e+03
1.493599e+03,2.344004e+03
1.496492e+03,2.345149e+03
1.499385e+03,2.347537e+03
1.502277e+03,2.342202e+03
1.505170e+03,2.352302e+03
1.508063e+03,2.341458e+03
1.510955e+03,2.343638e+03
1.513848e+03,2.320172e+03
1.516741e+03,2.309576e+03
1.519634e+03,2.332707e+03
1.522526e+03,2.312634e+03
1.525419e+03,2.330390e+03
1.528312e+03,2.291906e+03
1.531204e+03,2.291292e+03
1.534097e+03,2.302339e+03
1.536990e+03,2.294691e+03
1.539882e+03,2.291830e+03
1.542775e+03,2.283098e+03
1.545668e+03,2.269503e+03
1.548561e+03,2.272730e+03
1.551453e+03,2.271132e+03
1.554346e+03,2.285959e+03
1.557239e+03,2.280269e+03
1.560131e+03,2.261766e+03
1.563024e+03,2.280181e+03
1.565917e+03,2.297903e+03
1.568809e+03,2.312509e+03
1.571702e+03,2.309425e+03
1.574595e+03,2.286161e+03
1.577488e+03,2.276783e+03
1.580380e+03,2.280965e+03
1.583273e+03,2.255962e+03
1.586166e+03,2.233137e+03
1.589058e+03,2.240606e+03
1.591951e+03,2.221124e+03
1.594844e+03,2.222735e+03
1.597736e+03,2.219138e+03
1.600629e+03,2.200312e+03
1.603522e+03,2.191853e+03
1.606415e+03,2.194845e+03
1.609307e+03,2.190741e+03
1.612200e+03,2.197029e+03
1.615093e+03,2.188914e+03
1.617985e+03,2.171752e+03
1.620878e+03,2.176658e+03
1.623771e+03,2.166245e+03
1.626663e+03,2.171953e+03
1.629556e+03,2.154402e+03
1.632449e+03,2.162982e+03
1.635342e+03,2.152710e+03
1.638234e+03,2.149337e+03
1.641127e+03,2.138032e+03
1.644020e+03,2.141464e+03
1.646912e+03,2.139086e+03
1.649805e+03,2.131317e+03
1.652698e+03,2.122887e+03
1.655590e+03,2.110042e+03
1.658483e+03,2.118063e+03
1.661376e+03,2.106629e+03
1.664269e+03,2.102254e+03
1.667161e+03,2.081771e+03
1.670054e+03,2.100488e+03
1.672947e+03,2.086756e+03
1.675839e+03,2.107923e+03
1.678732e+03,2.103886e+03
1.681625e+03,2.081534e+03
1.684517e+03,2.067181e+03
1.687410e+03,2.079815e+03
1.690303e+03,2.064785e+03
1.693196e+03,2.068495e+03
1.696088e+03,2.061349e+03
1.698981e+03,2.061453e+03
1.701874e+03,2.059470e+03
1.704766e+03,2.061611e+03
1.707659e+03,2.040761e+03
1.710552e+03,2.049525e+03
1.713444e+03,2.060799e+03
1.716337e+03,2.032638e+03
1.719230e+03,2.029627e+03
1.722123e+03,2.026932e+03
1.725015e+03,2.016208e+03
1.727908e+03,1.991605e+03
1.730801e+03,2.003440e+03
1.733693e+03,2.015111e+03
1.736586e+03,2.008931e+03
1.739479e+03,1.993474e+03
1.742371e+03,1.992408e+03
1.745264e+03,2.009340e+03
1.748157e+03,1.980578e+03
1.751050e+03,1.969309e+03
1.753942e+03,1.962620e+03
1.756835e+03,1.978395e+03
1.759728e+03,1.958452e+03
1.762620e+03,1.970882e+03
1.765513e+03,1.964307e+03
1.768406e+03,1.957637e+03
1.771298e+03,1.942428e+03
1.774191e+03,1.953722e+03
1.777084e+03,1.938488e+03
1.779977e+03,1.936429e+03
1.782869e+03,1.928184e+03
1.785762e+03,1.931309e+03
1.788655e+03,1.923196e+03
1.791547e+03,1.922840e+03
1.794440e+03,1.902033e+03
1.797333e+03,1.927395e+03
1.800225e+03,1.913259e+03
1.803118e+03,1.905836e+03
1.806011e+03,1.907055e+03
1.808904e+03,1.886923e+03
1.811796e+03,1.884580e+03
1.814689e+03,1.895257e+03
1.817582e+03,1.890374e+03
1.820474e+03,1.880428e+03
1.823367e+03,1.865173e+03
1.826260e+03,1.855667e+03
1.829152e+03,1.864825e+03
1.832045e+03,1.856752e+03
1.834938e+03,1.856988e+03
1.837831e+03,1.841430e+03
1.840723e+03,1.841761e+03
1.843616e+03,1.853412e+03
1.846509e+03,1.858148e+03
1.849401e+03,1.845969e+03
1.852294e+03,1.827466e+03
1.855187e+03,1.836467e+03
1.858079e+03,1.830954e+03
1.860972e+03,1.813160e+03
1.863865e+03,1.811900e+03
1.866758e+03,1.808689e+03
1.869650e+03,1.810121e+03
1.872543e+03,1.797968e+03
1.875436e+03,1.802652e+03
1.878328e+03,1.794283e+03
1.881221e+03,1.792585e+03
1.884114e+03,1.788528e+03
1.887006e+03,1.781019e+03
1.889899e+03,1.780869e+03
1.892792e+03,1.780159e+03
1.895685e+03,1.767958e+03
1.898577e+03,1.763694e+03
1.901470e+03,1.760094e+03
1.904363e+03,1.746895e+03
1.907255e+03,1.763507e+03
1.910148e+03,1.753107e+03
1.913041e+03,1.737835e+03
1.915933e+03,1.724667e+03
1.918826e+03,1.724182e+03
1.921719e+03,1.734985e+03
1.924612e+03,1.719044e+03
1.927504e+03,1.709470e+03
1.930397e+03,1.717933e+03
1.933290e+03,1.708152e+03
1.936182e+03,1.702184e+03
1.939075e+03,1.699400e+03
1.941968e+03,1.702155e+03
1.944860e+03,1.689602e+03
1.947753e+03,1.678830e+03
1.950646e+03,1.700272e+03
1.953539e+03,1.690225e+03
1.956431e+03,1.678154e+03
1.959324e+03,1.662493e+03
1.962217e+03,1.668412e+03
1.965109e+03,1.661855e+03
1.968002e+03,1.666870e+03
1.970895e+03,1.677252e+03
1.973787e+03,1.655763e+03
1.976680e+03,1.648556e+03
1.979573e+03,1.640089e+03
1.982466e+03,1.660510e+03
1.985358e+03,1.641347e+03
1.988251e+03,1.641494e+03
1.991144e+03,1.623229e+03
1.994036e+03,1.629470e+03
1.996929e+03,1.642132e+03
1.999822e+03,1.606590e+03
2.002714e+03,1.632750e+03
2.005607e+03,1.604980e+03
2.008500e+03,1.618110e+03
2.011393e+03,1.588155e+03
2.014285e+03,1.601473e+03
2.017178e+03,1.593797e+03
2.020071e+03,1.595275e+03
2.022963e+03,1.577781e+03
2.025856e+03,1.586528e+03
2.028749e+03,1.571971e+03
2.031641e+03,1.573149e+03
2.034534e+03,1.567942e+03
2.037427e+03,1.566114e+03
2.040320e+03,1.568561e+03
2.043212e+03,1.554200e+03
2.046105e+03,1.546179e+03
2.048998e+03,1.564999e+03
2.051890e+03,1.551756e+03
2.054783e+03,1.520877e+03
2.057676e+03,1.536450e+03
2.060568e+03,1.536483e+03
2.063461e+03,1.539789e+03
2.066354e+03,1.523994e+03
2.069247e+03,1.521611e+03
2.072139e+03,1.511975e+03
2.075032e+03,1.506757e+03
2.077925e+03,1.525289e+03
2.080817e+03,1.514212e+03
2.083710e+03,1.486533e+03
2.086603e+03,1.501917e+03
2.089496e+03,1.490332e+03
2.092388e+03,1.479897e+03
2.095281e+03,1.478794e+03
2.098174e+03,1.480861e+03
2.101066e+03,1.474814e+03
2.103959e+03,1.460440e+03
2.106852e+03,1.470565e+03
2.109744e+03,1.486857e+03
2.112637e+03,1.435846e+03
2.115530e+03,1.441440e+03
2.118422e+03,1.446100e+03
2.121315e+03,1.458623e+03
2.124208e+03,1.452698e+03
2.127101e+03,1.434298e+03
2.129993e+03,1.424874e+03
2.132886e+03,1.426428e+03
2.135779e+03,1.418684e+03
2.138671e+03,1.418638e+03
2.141564e+03,1.423206e+03
2.144457e+03,1.419104e+03
2.147350e+03,1.377974e+03
2.150242e+03,1.410817e+03
2.153135e+03,1.408610e+03
2.156028e+03,1.401806e+03
2.158920e+03,1.384753e+03
2.161813e+03,1.379572e+03
2.164706e+03,1.375105e+03
2.167598e+03,1.368068e+03
2.170491e+03,1.372319e+03
2.173384e+03,1.375249e+03
2.176277e+03,1.358212e+03
2.179169e+03,1.360078e+03
2.182062e+03,1.364498e+03
2.184955e+03,1.359279e+03
2.187847e+03,1.356446e+03
2.190740e+03,1.343450e+03
2.193633e+03,1.316318e+03
2.196525e+03,1.325424e+03
2.199418e+03,1.331486e+03
2.202311e+03,1.346005e+03
2.205204e+03,1.336503e+03
2.208096e+03,1.324619e+03
2.210989e+03,1.305224e+03
2.213882e+03,1.316483e+03
2.216774e+03,1.313422e+03
2.219667e+03,1.311206e+03
2.222560e+03,1.287273e+03
2.225452e+03,1.296667e+03
2.228345e+03,1.285779e+03
2.231238e+03,1.295284e+03
2.234131e+03,1.282446e+03
2.237023e+03,1.290055e+03
2.239916e+03,1.264259e+03
2.242809e+03,1.259302e+03
2.245701e+03,1.258156e+03
2.248594e+03,1.258780e+03
2.251487e+03,1.259440e+03
2.254379e+03,1.262981e+03
2.257272e+03,1.244052e+03
2.260165e+03,1.253734e+03
2.263058e+03,1.245303e+03
2.265950e+03,1.241306e+03
2.268843e+03,1.228123e+03
2.271736e+03,1.221768e+03
2.274628e+03,1.229768e+03
2.277521e+03,1.218235e+03
2.280414e+03,1.219836e+03
2.283306e+03,1.202513e+03
2.286199e+03,1.210279e+03
2.289092e+03,1.209275e+03
2.291985e+03,1.200117e+03
2.294877e+03,1.204320e+03
2.297770e+03,1.201457e+03
2.300663e+03,1.197592e+03
2.303555e+03,1.187458e+03
2.306448e+03,1.184703e+03
2.309341e+03,1.187907e+03
2.312233e+03,1.168518e+03
2.315126e+03,1.169766e+03
2.318019e+03,1.171861e+03
2.320912e+03,1.165586e+03
2.323804e+03,1.166600e+03
2.326697e+03,1.153567e+03
2.329590e+03,1.161861e+03
2.332482e+03,1.161646e+03
2.335375e+03,1.148363e+03
2.338268e+03,1.145931e+03
2.341160e+03,1.135039e+03
2.344053e+03,1.147242e+03
2.346946e+03,1.134539e+03
2.349839e+03,1.128583e+03
2.352731e+03,1.127745e+03
2.355624e+03,1.119930e+03
2.358517e+03,1.120212e+03
2.361409e+03,1.118935e+03
2.364302e+03,1.110416e+03
2.367195e+03,1.101637e+03
2.370087e+03,1.108665e+03
2.372980e+03,1.098694e+03
2.375873e+03,1.092664e+03
2.378766e+03,1.094337e+03
2.381658e+03,1.089427e+03
2.384551e+03,1.084519e+03
2.387444e+03,1.070086e+03
2.390336e+03,1.097085e+03
2.393229e+03,1.081070e+03
2.396122e+03,1.074752e+03
2.399014e+03,1.070436e+03
2.401907e+03,1.071373e+03
2.404800e+03,1.074401e+03
2.407693e+03,1.054766e+03
2.410585e+03,1.052371e+03
2.413478e+03,1.049124e+03
2.416371e+03,1.060477e+03
2.419263e+03,1.039696e+03
2.422156e+03,1.037274e+03
2.425049e+03,1.044941e+03
2.427941e+03,1.048393e+03
2.430834e+03,1.032254e+03
2.433727e+03,1.028218e+03
2.436620e+03,1.035494e+03
2.439512e+03,1.009426e+03
2.442405e+03,1.025403e+03
2.445298e+03,1.015940e+03
2.448190e+03,1.017561e+03
2.451083e+03,1.015566e+03
2.453976e+03,1.022708e+03
2.456868e+03,1.007858e+03
2.459761e+03,1.006938e+03
2.462654e+03,9.919671e+02
2.465547e+03,9.755556e+02
2.468439e+03,9.919642e+02
2.471332e+03,9.891645e+02
2.474225e+03,9.912072e+02
2.477117e+03,9.851481e+02
2.480010e+03,9.981097e+02
2.482903e+03,9.711691e+02
2.485795e+03,9.719200e+02
2.488688e+03,9.672789e+02
2.491581e+03,9.725357e+02
2.494474e+03,9.721166e+02
2.497366e+03,9.759055e+02
2.500259e+03,9.561465e+02
2.503152e+03,9.576224e+02
2.506044e+03,9.709949e+02
2.508937e+03,9.633309e+02
2.511830e+03,9.537953e+02
2.514722e+03,9.330613e+02
2.517615e+03,9.368105e+02
2.520508e+03,9.452323e+02
2.523401e+03,9.281413e+02
2.526293e+03,9.550862e+02
2.529186e+03,9.391631e+02
2.532079e+03,9.350278e+02
2.534971e+03,9.427485e+02
2.537864e+03,9.175836e+02
2.540757e+03,9.173535e+02
2.543649e+03,9.145170e+02
2.546542e+03,9.131240e+02
2.549435e+03,9.243927e+02
2.552328e+03,9.102269e+02
2.555220e+03,9.171445e+02
2.558113e+03,9.031076e+02
2.561006e+03,9.162470e+02
2.563898e+03,9.129114e+02
2.566791e+03,9.131350e+02
2.569684e+03,9.029983e+02
2.572576e+03,9.013766e+02
2.575469e+03,8.911729e+02
2.578362e+03,8.860032e+02
2.581255e+03,8.907405e+02
2.584147e+03,8.873448e+02
2.587040e+03,8.703391e+02
2.589933e+03,8.879041e+02
2.592825e+03,8.723506e+02
2.595718e+03,8.701906e+02
2.598611e+03,8.709318e+02
2.601503e+03,8.635124e+02
2.604396e+03,8.753898e+02
2.607289e+03,8.550593e+02
2.610182e+03,8.667667e+02
2.613074e+03,8.532081e+02
2.615967e+03,8.658828e+02
2.618860e+03,8.521783e+02
2.621752e+03,8.364389e+02
2.624645e+03,8.436379e+02
2.627538e+03,8.499271e+02
2.630430e+03,8.584683e+02
2.633323e+03,8.342445e+02
2.636216e+03,8.500231e+02
2.639109e+03,8.252634e+02
2.642001e+03,8.329109e+02
2.644894e+03,8.305507e+02
2.647787e+03,8.503124e+02
2.650679e+03,8.388176e+02
2.653572e+03,8.191907e+02
2.656465e+03,8.263549e+02
2.659357e+03,8.152484e+02
2.662250e+03,8.265363e+02
2.665143e+03,8.364489e+02
2.668036e+03,8.351713e+02
2.670928e+03,8.171420e+02
2.673821e+03,8.274623e+02
2.676714e+03,8.161093e+02
2.679606e+03,8.138517e+02
2.682499e+03,7.920526e+02
2.685392e+03,8.081649e+02
2.688284e+03,8.130225e+02
2.691177e+03,7.996771e+02
2.694070e+03,7.979359e+02
2.696963e+03,8.027043e+02
2.699855e+03,7.987936e+02
2.702748e+03,7.799013e+02
2.705641e+03,8.035624e+02
2.708533e+03,8.064646e+02
2.711426e+03,7.868932e+02
2.714319e+03,7.804764e+02
2.717211e+03,7.841113e+02
2.720104e+03,7.847269e+02
2.722997e+03,7.825431e+02
2.725890e+03,7.742582e+02
2.728782e+03,7.816607e+02
2.731675e+03,7.626158e+02
2.734568e+03,7.940710e+02
2.737460e+03,7.656455e+02
2.740353e+03,7.678620e+02
2.743246e+03,7.705228e+02
2.746138e+03,7.688307e+02
2.749031e+03,7.629596e+02
2.751924e+03,7.730897e+02
2.754817e+03,7.411723e+02
2.757709e+03,7.554657e+02
2.760602e+03,7.633800e+02
2.763495e+03,7.441669e+02
2.766387e+03,7.406334e+02
2.769280e+03,7.540989e+02
2.772173e+03,7.655807e+02
2.775065e+03,7.537970e+02
2.777958e+03,7.524944e+02
2.780851e+03,7.397098e+02
2.783744e+03,7.386373e+02
2.786636e+03,7.311338e+02
2.789529e+03,7.350641e+02
2.792422e+03,7.368330e+02
2.795314e+03,7.373222e+02
2.798207e+03,7.325235e+02
2.801100e+03,7.297526e+02
2.803992e+03,7.388990e+02
2.806885e+03,7.346866e+02
2.809778e+03,7.315338e+02
2.812671e+03,7.239825e+02
2.815563e+03,7.170432e+02
2.818456e+03,7.426969e+02
2.821349e+03,6.956346e+02
2.824241e+03,7.339411e+02
2.827134e+03,7.210887e+02
2.830027e+03,7.118746e+02
2.832919e+03,7.082289e+02
2.835812e+03,7.188310e+02
2.838705e+03,7.215797e+02
2.841598e+03,7.202811e+02
2.844490e+03,7.306791e+02
2.847383e+03,6.984688e+02
2.850276e+03,7.097111e+02
2.853168e+03,7.102435e+02
2.856061e+03,6.976874e+02
2.858954e+03,7.176218e+02
2.861846e+03,7.141541e+02
2.864739e+03,7.126430e+02
2.867632e+03,7.067515e+02
2.870525e+03,7.202146e+02
2.873417e+03,7.149707e+02
2.876310e+03,7.305420e+02
2.879203e+03,7.027129e+02
2.882095e+03,7.171658e+02
2.884988e+03,7.282190e+02
2.887881e+03,7.094941e+02
2.890773e+03,7.352553e+02
2.893666e+03,7.269543e+02
2.896559e+03,7.245219e+02
2.899452e+03,7.224710e+02
2.902344e+03,7.372441e+02
2.905237e+03,7.135723e+02
2.908130e+03,6.857658e+02
2.911022e+03,7.247446e+02
2.913915e+03,7.005382e+02
2.916808e+03,6.818702e+02
2.919700e+03,6.793889e+02
2.922593e+03,6.935599e+02
2.925486e+03,6.847794e+02
2.928379e+03,6.918323e+02
2.931271e+03,6.983268e+02
2.934164e+03,6.748560e+02
2.937057e+03,6.959293e+02
2.939949e+03,6.719186e+02
2.942842e+03,6.697004e+02
2.945735e+03,6.794248e+02
2.948627e+03,6.886345e+02
2.951520e+03,6.729519e+02
2.954413e+03,6.812917e+02
2.957306e+03,7.088420e+02
2.960198e+03,6.642867e+02
2.963091e+03,6.724713e+02
2.965984e+03,6.811380e+02
2.968876e+03,6.281217e+02
2.971769e+03,6.544555e+02
2.974662e+03,6.407946e+02
2.977554e+03,6.831208e+02
2.980447e+03,6.566590e+02
2.983340e+03,6.553618e+02
2.986233e+03,6.504833e+02
2.989125e+03,6.426700e+02
2.992018e+03,6.137050e+02
2.994911e+03,6.393063e+02
2.997803e+03,6.581158e+02
3.000696e+03,6.114446e+02
3.003589e+03,6.417567e+02
3.006481e+03,6.306510e+02
3.009374e+03,6.317445e+02
3.012267e+03,6.304233e+02
3.015160e+03,6.472531e+02
3.018052e+03,6.301470e+02
3.020945e+03,6.325192e+02
3.023838e+03,6.573272e+02
3.026730e+03,6.321476e+02
3.029623e+03,6.233708e+02
3.032516e+03,6.120756e+02
3.035408e+03,6.335017e+02
3.038301e+03,6.322122e+02
3.041194e+03,5.877004e+02
3.044087e+03,6.218290e+02
3.046979e+03,6.028950e+02
3.049872e+03,6.251258e+02
3.052765e+03,6.160851e+02
3.055657e+03,6.452370e+02
3.058550e+03,6.319039e+02
3.061443e+03,6.006064e+02
3.064335e+03,6.007180e+02
3.067228e+03,6.069904e+02
3.070121e+03,6.101023e+02
3.073014e+03,6.249594e+02
3.075906e+03,6.193619e+02
3.078799e+03,6.273672e+02
3.081692e+03,6.005416e+02
3.084584e+03,5.989692e+02
3.087477e+03,6.186807e+02
3.090370e+03,6.293017e+02
3.093262e+03,6.198509e+02
3.096155e+03,6.023226e+02
3.099048e+03,5.995872e+02
3.101941e+03,6.205468e+02
3.104833e+03,6.028559e+02
3.107726e+03,6.166550e+02
3.110619e+03,5.915602e+02
3.113511e+03,6.079567e+02
3.116404e+03,6.406830e+02
3.119297e+03,5.899880e+02
3.122189e+03,6.104145e+02
3.125082e+03,6.028314e+02
3.127975e+03,5.874268e+02
3.130868e+03,6.412694e+02
3.133760e+03,6.012058e+02
3.136653e+03,6.235710e+02
3.139546e+03,6.609920e+02
3.142438e+03,6.079354e+02
3.145331e+03,6.188665e+02
3.148224e+03,5.996677e+02
3.151116e+03,5.990458e+02
3.154009e+03,6.100292e+02
3.156902e+03,6.241099e+02
3.159795e+03,6.055128e+02
3.162687e+03,6.487855e+02
3.165580e+03,5.845061e+02
3.168473e+03,5.811677e+02
3.171365e+03,5.812414e+02
3.174258e+03,6.212521e+02
3.177151e+03,6.274941e+02
3.180043e+03,6.319026e+02
3.182936e+03,6.373272e+02
3.185829e+03,6.181905e+02
3.188722e+03,6.283301e+02
3.191614e+03,6.439820e+02
3.194507e+03,5.884362e+02
3.197400e+03,6.612469e+02
3.200292e+03,6.577783e+02
3.203185e+03,0.000000e+00
3.206078e+03,0.000000e+00
3.208970e+03,0.000000e+00
3.211863e+03,0.000000e+00
3.214756e+03,0.000000e+00
3.217649e+03,0.000000e+00
3.220541e+03,0.000000e+00
3.223434e+03,0.000000e+00
3.226327e+03,0.000000e+00
3.229219e+03,0.000000e+00
3.232112e+03,0.000000e+00
3.235005e+03,0.000000e+00
3.237897e+03,0.000000e+00
3.240790e+03,0.000000e+00
3.243683e+03,0.000000e+00
3.246576e+03,0.000000e+00
3.249468e+03,0.000000e+00
3.252361e+03,0.000000e+00
3.255254e+03,0.000000e+00
3.258146e+03,0.000000e+00
3.261039e+03,0.000000e+00
3.263932e+03,0.000000e+00
3.266824e+03,0.000000e+00
3.269717e+03,0.000000e+00
3.272610e+03,0.000000e+00
3.275503e+03,0.000000e+00
3.278395e+03,0.000000e+00
3.281288e+03,0.000000e+00
3.284181e+03,0.000000e+00
3.287073e+03,0.000000e+00
3.289966e+03,0.000000e+00
3.292859e+03,0.000000e+00
3.295751e+03,0.000000e+00
3.298644e+03,0.000000e+00
3.301537e+03,0.000000e+00
3.304430e+03,0.000000e+00
3.307322e+03,0.000000e+00
3.310215e+03,0.000000e+00
3.313108e+03,0.000000e+00
3.316000e+03,0.000000e+00
3.318893e+03,0.000000e+00
3.321786e+03,0.000000e+00
3.324678e+03,0.000000e+00
3.327571e+03,0.000000e+00
3.330464e+03,0.000000e+00
3.333357e+03,0.000000e+00
3.336249e+03,0.000000e+00
3.339142e+03,0.000000e+00
3.342035e+03,0.000000e+00
3.344927e+03,0.000000e+00
3.347820e+03,0.000000e+00
3.350713e+03,0.000000e+00
3.353605e+03,0.000000e+00
3.356498e+03,0.000000e+00
3.359391e+03,0.000000e+00
3.362284e+03,0.000000e+00
3.365176e+03,0.000000e+00
3.368069e+03,0.000000e+00
3.370962e+03,0.000000e+00
3.373854e+03,0.000000e+00
3.376747e+03,0.000000e+00
3.379640e+03,0.000000e+00
3.382532e+03,0.000000e+00
3.385425e+03,0.000000e+00
3.388318e+03,0.000000e+00
3.391211e+03,0.000000e+00
3.394103e+03,0.000000e+00
3.396996e+03,0.000000e+00
3.399889e+03,0.000000e+00
3.402781e+03,0.000000e+00
3.405674e+03,0.000000e+00
3.408567e+03,0.000000e+00
3.411459e+03,0.000000e+00
3.414352e+03,0.000000e+00
3.417245e+03,0.000000e+00
3.420138e+03,0.000000e+00
3.423030e+03,0.000000e+00
3.425923e+03,0.000000e+00
3.428816e+03,0.000000e+00
3.431708e+03,0.000000e+00
3.434601e+03,0.000000e+00
3.437494e+03,0.000000e+00
3.440386e+03,0.000000e+00
3.443279e+03,0.000000e+00
3.446172e+03,0.000000e+00
3.449065e+03,0.000000e+00
3.451957e+03,0.000000e+00
3.454850e+03,0.000000e+00
3.457743e+03,0.000000e+00
3.460635e+03,0.000000e+00
3.463528e+03,0.000000e+00
3.466421e+03,0.000000e+00
3.469313e+03,0.000000e+00
3.472206e+03,0.000000e+00
3.475099e+03,0.000000e+00
3.477992e+03,0.000000e+00
3.480884e+03,0.000000e+00
3.483777e+03,0.000000e+00
3.486670e+03,0.000000e+00
3.489563e+03,0.000000e+00
3.492455e+03,0.000000e+00
3.495348e+03,0.000000e+00
3.498240e+03,0.000000e+00
3.500169e+03,0.000000e+00