File: RAMAN_data/23052023_r3/blue fibre3.CSV
9.931763e+01,0.000000e+00
1.022103e+02,0.000000e+00
1.051030e+02,0.000000e+00
1.079957e+02,0.000000e+00
1.108884e+02,0.000000e+00
1.137811e+02,0.000000e+00
1.166738e+02,0.000000e+00
1.195665e+02,0.000000e+00
1.224592e+02,0.000000e+00
1.253519e+02,0.000000e+00
1.282446e+02,0.000000e+00
1.311373e+02,0.000000e+00
1.340300e+02,0.000000e+00
1.369227e+02,0.000000e+00
1.398154e+02,0.000000e+00
1.427081e+02,0.000000e+00
1.456008e+02,0.000000e+00
1.484935e+02,0.000000e+00
1.513862e+02,0.000000e+00
1.542789e+02,0.000000e+00
1.571716e+02,0.000000e+00
1.600643e+02,0.000000e+00
1.629570e+02,0.000000e+00
1.658497e+02,0.000000e+00
1.687424e+02,0.000000e+00
1.716351e+02,0.000000e+00
1.745278e+02,0.000000e+00
1.774205e+02,0.000000e+00
1.803132e+02,0.000000e+00
1.832059e+02,0.000000e+00
1.860986e+02,0.000000e+00
1.889913e+02,0.000000e+00
1.918840e+02,0.000000e+00
1.947767e+02,0.000000e+00
1.976694e+02,0.000000e+00
2.005621e+02,3.551542e+03
2.034548e+02,3.567156e+03
2.063475e+02,3.573668e+03
2.092402e+02,3.584537e+03
2.121329e+02,3.591912e+03
2.150256e+02,3.612350e+03
2.179183e+02,3.623838e+03
2.208110e+02,3.627353e+03
2.237037e+02,3.665284e+03
2.265964e+02,3.655884e+03
2.294892e+02,3.670015e+03
2.323819e+02,3.699616e+03
2.352746e+02,3.700306e+03
2.381673e+02,3.715635e+03
2.410600e+02,3.724593e+03
2.439527e+02,3.775910e+03
2.468454e+02,3.775781e+03
2.497381e+02,3.816173e+03
2.526308e+02,3.824903e+03
2.555235e+02,3.814648e+03
2.584161e+02,3.835397e+03
2.613088e+02,3.843892e+03
2.642015e+02,3.863183e+03
2.670942e+02,3.863624e+03
2.699869e+02,3.883758e+03
2.728796e+02,3.932047e+03
2.757723e+02,3.957269e+03
2.786650e+02,3.972874e+03
2.815577e+02,3.992319e+03
2.844504e+02,3.998548e+03
2.873431e+02,3.950527e+03
2.902358e+02,3.951877e+03
2.931285e+02,3.965698e+03
2.960212e+02,3.959342e+03
2.989139e+02,3.975082e+03
3.018066e+02,3.972787e+03
3.046993e+02,3.978670e+03
3.075920e+02,3.962056e+03
3.104847e+02,4.006175e+03
3.133774e+02,3.998653e+03
3.162701e+02,3.995209e+03
3.191628e+02,4.008820e+03
3.220555e+02,4.020392e+03
3.249482e+02,4.045614e+03
3.278409e+02,4.027338e+03
3.307336e+02,4.019434e+03
3.336263e+02,4.042626e+03
3.365190e+02,4.070923e+03
3.394117e+02,4.066746e+03
3.423044e+02,4.070708e+03
3.451971e+02,4.075141e+03
3.480898e+02,4.087642e+03
3.509825e+02,4.106003e+03
3.538752e+02,4.109372e+03
3.567680e+02,4.126506e+03
3.596607e+02,4.139162e+03
3.625534e+02,4.135988e+03
3.654461e+02,4.131517e+03
3.683388e+02,4.137120e+03
3.712315e+02,4.138404e+03
3.741242e+02,4.183180e+03
3.770169e+02,4.178046e+03
3.799096e+02,4.186336e+03
3.828023e+02,4.179977e+03
3.856950e+02,4.177650e+03
3.885877e+02,4.188388e+03
3.914804e+02,4.204877e+03
3.943731e+02,4.211252e+03
3.972658e+02,4.222267e+03
4.001585e+02,4.204194e+03
4.030512e+02,4.224156e+03
4.059439e+02,4.235509e+03
4.088366e+02,4.236667e+03
4.117293e+02,4.232654e+03
4.146220e+02,4.259875e+03
4.175147e+02,4.246336e+03
4.204074e+02,4.280122e+03
4.233001e+02,4.253078e+03
4.261928e+02,4.267825e+03
4.290855e+02,4.282620e+03
4.319782e+02,4.281089e+03
4.348709e+02,4.281577e+03
4.377636e+02,4.283140e+03
4.406563e+02,4.283528e+03
4.435490e+02,4.288992e+03
4.464417e+02,4.304178e+03
4.493344e+02,4.309065e+03
4.522271e+02,4.298800e+03
4.551198e+02,4.326624e+03
4.580125e+02,4.325488e+03
4.609052e+02,4.327562e+03
4.637979e+02,4.335829e+03
4.666906e+02,4.335449e+03
4.695833e+02,4.347047e+03
4.724760e+02,4.334661e+03
4.753687e+02,4.333971e+03
4.782614e+02,4.321396e+03
4.811541e+02,4.333317e+03
4.840468e+02,4.353027e+03
4.869395e+02,4.347969e+03
4.898322e+02,4.350935e+03
4.927249e+02,4.341218e+03
4.956176e+02,4.355619e+03
4.985103e+02,4.374850e+03
5.014030e+02,4.377736e+03
5.042957e+02,4.375098e+03
5.071884e+02,4.377728e+03
5.100811e+02,4.376787e+03
5.129738e+02,4.364183e+03
5.158665e+02,4.391411e+03
5.187592e+02,4.409719e+03
5.216519e+02,4.389385e+03
5.245446e+02,4.396224e+03
5.274373e+02,4.416240e+03
5.303300e+02,4.417658e+03
5.332227e+02,4.420193e+03
5.361154e+02,4.447950e+03
5.390081e+02,4.492824e+03
5.419008e+02,4.525644e+03
5.447935e+02,4.497577e+03
5.476862e+02,4.523492e+03
5.505789e+02,4.528521e+03
5.534716e+02,4.535348e+03
5.563643e+02,4.568109e+03
5.592570e+02,4.566400e+03
5.621497e+02,4.537018e+03
5.650424e+02,4.486281e+03
5.679351e+02,4.445734e+03
5.708278e+02,4.421282e+03
5.737205e+02,4.444375e+03
5.766132e+02,4.426558e+03
5.795059e+02,4.441289e+03
5.823986e+02,4.422492e+03
5.852913e+02,4.444093e+03
5.881840e+02,4.440190e+03
5.910767e+02,4.456108e+03
5.939694e+02,4.457444e+03
5.968621e+02,4.476748e+03
5.997548e+02,4.455550e+03
6.026475e+02,4.456084e+03
6.055402e+02,4.494256e+03
6.084329e+02,4.544275e+03
6.113256e+02,4.550782e+03
6.142183e+02,4.487795e+03
6.171110e+02,4.435483e+03
6.200037e+02,4.419798e+03
6.228964e+02,4.440252e+03
6.257891e+02,4.432597e+03
6.286818e+02,4.405531e+03
6.315745e+02,4.407643e+03
6.344672e+02,4.413873e+03
6.373599e+02,4.418450e+03
6.402526e+02,4.405898e+03
6.431453e+02,4.395809e+03
6.460380e+02,4.388244e+03
6.489307e+02,4.400318e+03
6.518234e+02,4.388901e+03
6.547161e+02,4.380171e+03
6.576088e+02,4.376116e+03
6.605015e+02,4.374497e+03
6.633942e+02,4.359831e+03
6.662869e+02,4.366667e+03
6.691796e+02,4.370290e+03
6.720723e+02,4.358383e+03
6.749650e+02,4.373841e+03
6.778577e+02,4.369001e+03
6.807504e+02,4.363313e+03
6.836431e+02,4.355269e+03
6.865358e+02,4.342095e+03
6.894285e+02,4.328301e+03
6.923212e+02,4.318222e+03
6.952139e+02,4.298257e+03
6.981066e+02,4.333823e+03
7.009993e+02,4.312176e+03
7.038920e+02,4.300924e+03
7.067847e+02,4.312891e+03
7.096774e+02,4.300969e+03
7.125701e+02,4.302862e+03
7.154628e+02,4.278569e+03
7.183555e+02,4.282951e+03
7.212482e+02,4.283599e+03
7.241409e+02,4.270750e+03
7.270336e+02,4.287453e+03
7.299263e+02,4.270983e+03
7.328190e+02,4.254646e+03
7.357117e+02,4.240886e+03
7.386044e+02,4.246855e+03
7.414971e+02,4.254351e+03
7.443898e+02,4.243859e+03
7.472825e+02,4.258848e+03
7.501752e+02,4.242241e+03
7.530679e+02,4.232212e+03
7.559606e+02,4.223231e+03
7.588533e+02,4.230038e+03
7.617460e+02,4.230131e+03
7.646387e+02,4.204733e+03
7.675314e+02,4.222583e+03
7.704241e+02,4.230380e+03
7.733168e+02,4.224064e+03
7.762095e+02,4.221291e+03
7.791022e+02,4.250649e+03
7.819949e+02,4.216143e+03
7.848876e+02,4.220057e+03
7.877803e+02,4.204200e+03
7.906730e+02,4.216087e+03
7.935657e+02,4.215619e+03
7.964584e+02,4.151070e+03
7.993511e+02,4.163217e+03
8.022438e+02,4.152913e+03
8.051365e+02,4.131457e+03
8.080292e+02,4.117199e+03
8.109219e+02,4.117800e+03
8.138146e+02,4.099985e+03
8.167073e+02,4.116825e+03
8.196000e+02,4.113905e+03
8.224927e+02,4.102699e+03
8.253854e+02,4.101451e+03
8.282781e+02,4.095626e+03
8.311708e+02,4.073529e+03
8.340635e+02,4.091496e+03
8.369562e+02,4.084684e+03
8.398489e+02,4.079955e+03
8.427416e+02,4.054916e+03
8.456343e+02,4.064795e+03
8.485270e+02,4.062632e+03
8.514197e+02,4.039319e+03
8.543124e+02,4.041013e+03
8.572051e+02,4.016196e+03
8.600978e+02,4.023612e+03
8.629905e+02,4.028870e+03
8.658832e+02,4.005882e+03
8.687759e+02,4.009281e+03
8.716686e+02,4.008719e+03
8.745613e+02,3.994111e+03
8.774540e+02,3.994283e+03
8.803467e+02,3.996382e+03
8.832394e+02,3.985218e+03
8.861321e+02,4.010420e+03
8.890248e+02,3.981664e+03
8.919175e+02,3.966083e+03
8.948102e+02,3.942863e+03
8.977029e+02,3.946550e+03
9.005956e+02,3.947178e+03
9.034883e+02,3.940224e+03
9.063810e+02,3.912273e+03
9.092737e+02,3.898002e+03
9.121664e+02,3.895481e+03
9.150591e+02,3.894435e+03
9.179518e+02,3.889643e+03
9.208445e+02,3.859809e+03
9.237372e+02,3.854959e+03
9.266299e+02,3.860785e+03
9.295226e+02,3.816390e+03
9.324153e+02,3.849740e+03
9.353080e+02,3.847711e+03
9.382007e+02,3.838207e+03
9.410934e+02,3.818739e+03
9.439861e+02,3.807309e+03
9.468788e+02,3.811727e+03
9.497715e+02,3.810365e+03
9.526642e+02,3.776201e+03
9.555569e+02,3.783365e+03
9.584496e+02,3.775754e+03
9.613423e+02,3.769451e+03
9.642350e+02,3.760746e+03
9.671277e+02,3.753806e+03
9.700204e+02,3.743579e+03
9.729131e+02,3.729433e+03
9.758058e+02,3.734045e+03
9.786985e+02,3.723616e+03
9.815912e+02,3.707451e+03
9.844839e+02,3.684208e+03
9.873766e+02,3.691548e+03
9.902693e+02,3.692992e+03
9.931620e+02,3.684980e+03
9.960547e+02,3.667441e+03
9.989474e+02,3.673867e+03
1.001840e+03,3.652955e+03
1.004733e+03,3.646186e+03
1.007626e+03,3.654036e+03
1.010518e+03,3.666424e+03
1.013411e+03,3.642557e+03
1.016304e+03,3.629929e+03
1.019196e+03,3.613090e+03
1.022089e+03,3.610168e+03
1.024982e+03,3.612519e+03
1.027875e+03,3.583387e+03
1.030767e+03,3.586042e+03
1.033660e+03,3.602794e+03
1.036552e+03,3.591877e+03
1.039445e+03,3.572979e+03
1.042338e+03,3.576074e+03
1.045231e+03,3.575570e+03
1.048123e+03,3.541613e+03
1.051016e+03,3.546739e+03
1.053909e+03,3.556419e+03
1.056802e+03,3.544432e+03
1.059694e+03,3.540326e+03
1.062587e+03,3.507343e+03
1.065479e+03,3.532786e+03
1.068372e+03,3.526499e+03
1.071265e+03,3.541594e+03
1.074158e+03,3.536401e+03
1.077050e+03,3.526572e+03
1.079943e+03,3.528816e+03
1.082836e+03,3.538501e+03
1.085729e+03,3.537491e+03
1.088621e+03,3.517650e+03
1.091514e+03,3.488311e+03
1.094406e+03,3.470170e+03
1.097299e+03,3.466946e+03
1.100192e+03,3.460868e+03
1.103085e+03,3.447740e+03
1.105977e+03,3.432485e+03
1.108870e+03,3.426300e+03
1.111763e+03,3.440559e+03
1.114656e+03,3.397730e+03
1.117548e+03,3.424481e+03
1.120441e+03,3.384763e+03
1.123334e+03,3.401170e+03
1.126226e+03,3.380388e+03
1.129119e+03,3.373838e+03
1.132012e+03,3.366515e+03
1.134904e+03,3.359578e+03
1.137797e+03,3.346701e+03
1.140690e+03,3.335723e+03
1.143583e+03,3.332996e+03
1.146475e+03,3.328267e+03
1.149368e+03,3.308357e+03
1.152261e+03,3.313205e+03
1.155153e+03,3.298236e+03
1.158046e+03,3.281107e+03
1.160939e+03,3.281359e+03
1.163831e+03,3.282517e+03
1.166724e+03,3.288539e+03
1.169617e+03,3.262982e+03
1.172510e+03,3.268981e+03
1.175402e+03,3.253675e+03
1.178295e+03,3.262725e+03
1.181188e+03,3.249680e+03
1.184080e+03,3.256972e+03
1.186973e+03,3.243766e+03
1.189866e+03,3.240111e+03
1.192758e+03,3.225739e+03
1.195651e+03,3.223045e+03
1.198544e+03,3.216699e+03
1.201437e+03,3.186413e+03
1.204329e+03,3.179563e+03
1.207222e+03,3.180336e+03
1.210115e+03,3.170446e+03
1.213007e+03,3.168827e+03
1.215900e+03,3.155408e+03
1.218793e+03,3.161203e+03
1.221685e+03,3.165800e+03
1.224578e+03,3.178763e+03
1.227471e+03,3.173864e+03
1.230364e+03,3.160136e+03
1.233256e+03,3.145924e+03
1.236149e+03,3.119992e+03
1.239042e+03,3.137391e+03
1.241934e+03,3.122433e+03
1.244827e+03,3.125280e+03
1.247720e+03,3.099547e+03
1.250612e+03,3.082405e+03
1.253505e+03,3.089183e+03
1.256398e+03,3.074501e+03
1.259291e+03,3.073458e+03
1.262183e+03,3.075002e+03
1.265076e+03,3.054824e+03
1.267969e+03,3.024785e+03
1.270861e+03,3.046962e+03
1.273754e+03,3.035012e+03
1.276647e+03,3.022749e+03
1.279539e+03,3.036444e+03
1.282432e+03,3.005973e+03
1.285325e+03,3.013174e+03
1.288218e+03,3.013422e+03
1.291110e+03,3.021841e+03
1.294003e+03,2.999846e+03
1.296896e+03,2.983402e+03
1.299788e+03,2.987167e+03
1.302681e+03,2.975455e+03
1.305574e+03,2.990949e+03
1.308466e+03,2.992526e+03
1.311359e+03,2.982522e+03
1.314252e+03,2.984741e+03
1.317145e+03,2.984562e+03
1.320037e+03,2.958643e+03
1.322930e+03,2.951217e+03
1.325823e+03,2.935963e+03
1.328715e+03,2.940549e+03
1.331608e+03,2.942953e+03
1.334501e+03,2.940957e+03
1.337393e+03,2.937392e+03
1.340286e+03,2.912175e+03
1.343179e+03,2.906335e+03
1.346072e+03,2.912743e+03
1.348964e+03,2.906712e+03
1.351857e+03,2.903727e+03
1.354750e+03,2.904796e+03
1.357642e+03,2.888409e+03
1.360535e+03,2.880651e+03
1.363428e+03,2.884873e+03
1.366320e+03,2.877581e+03
1.369213e+03,2.878540e+03
1.372106e+03,2.873727e+03
1.374999e+03,2.855958e+03
1.377891e+03,2.844732e+03
1.380784e+03,2.848551e+03
1.383677e+03,2.843037e+03
1.386569e+03,2.821764e+03
1.389462e+03,2.820371e+03
1.392355e+03,2.808914e+03
1.395247e+03,2.809059e+03
1.398140e+03,2.803878e+03
1.401033e+03,2.800477e+03
1.403926e+03,2.796875e+03
1.406818e+03,2.801816e+03
1.409711e+03,2.785375e+03
1.412604e+03,2.789067e+03
1.415496e+03,2.765676e+03
1.418389e+03,2.764092e+03
1.421282e+03,2.757431e+03
1.424174e+03,2.761669e+03
1.427067e+03,2.746250e+03
1.429960e+03,2.746469e+03
1.432853e+03,2.729658e+03
1.435745e+03,2.729213e+03
1.438638e+03,2.732958e+03
1.441531e+03,2.736631e+03
1.444423e+03,2.724153e+03
1.447316e+03,2.744170e+03
1.450209e+03,2.745831e+03
1.453101e+03,2.744448e+03
1.455994e+03,2.744440e+03
1.458887e+03,2.726192e+03
1.461780e+03,2.715957e+03
1.464672e+03,2.688685e+03
1.467565e+03,2.693871e+03
1.470458e+03,2.688181e+03
1.473350e+03,2.684599e+03
1.476243e+03,2.674366e+03
1.479136e+03,2.687822e+03
1.482028e+03,2.664922e+03
1.484921e+03,2.649531e+03
1.487814e+03,2.659560e+03
1.490707e+03,2.650240e+03
1.493599e+03,2.650728e+03
1.496492e+03,2.640414e+03
1.499385e+03,2.643751e+03
1.502277e+03,2.639363e+03
1.505170e+03,2.635514e+03
1.508063e+03,2.645286e+03
1.510955e+03,2.631698e+03
1.513848e+03,2.618402e+03
1.516741e+03,2.619332e+03
1.519634e+03,2.625178e+03
1.522526e+03,2.606414e+03
1.525419e+03,2.596655e+03
1.528312e+03,2.572575e+03
1.531204e+03,2.556073e+03
1.534097e+03,2.574678e+03
1.536990e+03,2.576143e+03
1.539882e+03,2.568589e+03
1.542775e+03,2.565683e+03
1.545668e+03,2.558565e+03
1.548561e+03,2.546912e+03
1.551453e+03,2.560500e+03
1.554346e+03,2.565712e+03
1.557239e+03,2.553994e+03
1.560131e+03,2.588605e+03
1.563024e+03,2.587731e+03
1.565917e+03,2.658424e+03
1.568809e+03,2.691765e+03
1.571702e+03,2.703746e+03
1.574595e+03,2.646193e+03
1.577488e+03,2.618460e+03
1.580380e+03,2.615659e+03
1.583273e+03,2.599663e+03
1.586166e+03,2.560962e+03
1.589058e+03,2.534724e+03
1.591951e+03,2.505092e+03
1.594844e+03,2.501644e+03
1.597736e+03,2.482378e+03
1.600629e+03,2.511808e+03
1.603522e+03,2.478758e+03
1.606415e+03,2.475722e+03
1.609307e+03,2.474500e+03
1.612200e+03,2.464911e+03
1.615093e+03,2.465085e+03
1.617985e+03,2.462981e+03
1.620878e+03,2.454374e+03
1.623771e+03,2.463240e+03
1.626663e+03,2.451454e+03
1.629556e+03,2.456118e+03
1.632449e+03,2.450388e+03
1.635342e+03,2.435487e+03
1.638234e+03,2.415785e+03
1.641127e+03,2.386074e+03
1.644020e+03,2.417569e+03
1.646912e+03,2.390815e+03
1.649805e+03,2.385768e+03
1.652698e+03,2.384371e+03
1.655590e+03,2.365352e+03
1.658483e+03,2.378700e+03
1.661376e+03,2.378480e+03
1.664269e+03,2.365780e+03
1.667161e+03,2.374618e+03
1.670054e+03,2.365496e+03
1.672947e+03,2.360995e+03
1.675839e+03,2.347429e+03
1.678732e+03,2.355108e+03
1.681625e+03,2.340335e+03
1.684517e+03,2.337903e+03
1.687410e+03,2.323804e+03
1.690303e+03,2.323223e+03
1.693196e+03,2.328239e+03
1.696088e+03,2.311594e+03
1.698981e+03,2.305097e+03
1.701874e+03,2.313374e+03
1.704766e+03,2.294591e+03
1.707659e+03,2.290690e+03
1.710552e+03,2.287928e+03
1.713444e+03,2.264445e+03
1.716337e+03,2.268663e+03
1.719230e+03,2.256481e+03
1.722123e+03,2.280960e+03
1.725015e+03,2.260281e+03
1.727908e+03,2.264964e+03
1.730801e+03,2.251865e+03
1.733693e+03,2.245329e+03
1.736586e+03,2.248308e+03
1.739479e+03,2.221965e+03
1.742371e+03,2.244677e+03
1.745264e+03,2.205716e+03
1.748157e+03,2.206292e+03
1.751050e+03,2.219319e+03
1.753942e+03,2.223571e+03
1.756835e+03,2.218095e+03
1.759728e+03,2.206368e+03
1.762620e+03,2.195377e+03
1.765513e+03,2.191827e+03
1.768406e+03,2.184184e+03
1.771298e+03,2.200585e+03
1.774191e+03,2.170518e+03
1.777084e+03,2.165885e+03
1.779977e+03,2.174017e+03
1.782869e+03,2.183563e+03
1.785762e+03,2.151844e+03
1.788655e+03,2.146244e+03
1.791547e+03,2.147824e+03
1.794440e+03,2.155584e+03
1.797333e+03,2.150465e+03
1.800225e+03,2.125189e+03
1.803118e+03,2.140612e+03
1.806011e+03,2.123543e+03
1.808904e+03,2.125698e+03
1.811796e+03,2.116474e+03
1.814689e+03,2.114392e+03
1.817582e+03,2.118311e+03
1.820474e+03,2.103510e+03
1.823367e+03,2.104736e+03
1.826260e+03,2.094447e+03
1.829152e+03,2.088708e+03
1.832045e+03,2.085297e+03
1.834938e+03,2.081784e+03
1.837831e+03,2.064240e+03
1.840723e+03,2.055266e+03
1.843616e+03,2.071470e+03
1.846509e+03,2.058867e+03
1.849401e+03,2.056571e+03
1.852294e+03,2.046804e+03
1.855187e+03,2.037901e+03
1.858079e+03,2.045330e+03
1.860972e+03,2.025476e+03
1.863865e+03,2.041877e+03
1.866758e+03,2.029908e+03
1.869650e+03,2.021902e+03
1.872543e+03,2.018819e+03
1.875436e+03,2.020401e+03
1.878328e+03,2.005015e+03
1.881221e+03,1.987225e+03
1.884114e+03,1.998139e+03
1.887006e+03,1.999700e+03
1.889899e+03,1.990243e+03
1.892792e+03,1.999320e+03
1.895685e+03,1.965012e+03
1.898577e+03,1.955110e+03
1.901470e+03,1.977163e+03
1.904363e+03,1.957631e+03
1.907255e+03,1.964879e+03
1.910148e+03,1.952331e+03
1.913041e+03,1.952037e+03
1.915933e+03,1.928166e+03
1.918826e+03,1.921164e+03
1.921719e+03,1.919550e+03
1.924612e+03,1.933056e+03
1.927504e+03,1.933662e+03
1.930397e+03,1.910291e+03
1.933290e+03,1.907536e+03
1.936182e+03,1.909842e+03
1.939075e+03,1.894332e+03
1.941968e+03,1.899032e+03
1.944860e+03,1.884492e+03
1.947753e+03,1.888840e+03
1.950646e+03,1.887543e+03
1.953539e+03,1.889846e+03
1.956431e+03,1.878463e+03
1.959324e+03,1.876261e+03
1.962217e+03,1.860111e+03
1.965109e+03,1.847343e+03
1.968002e+03,1.848772e+03
1.970895e+03,1.852865e+03
1.973787e+03,1.847464e+03
1.976680e+03,1.839322e+03
1.979573e+03,1.839192e+03
1.982466e+03,1.836971e+03
1.985358e+03,1.841435e+03
1.988251e+03,1.818983e+03
1.991144e+03,1.807499e+03
1.994036e+03,1.797044e+03
1.996929e+03,1.823786e+03
1.999822e+03,1.813475e+03
2.002714e+03,1.812687e+03
2.005607e+03,1.788489e+03
2.008500e+03,1.789210e+03
2.011393e+03,1.769955e+03
2.014285e+03,1.773761e+03
2.017178e+03,1.777842e+03
2.020071e+03,1.768208e+03
2.022963e+03,1.779432e+03
2.025856e+03,1.743254e+03
2.028749e+03,1.759365e+03
2.031641e+03,1.747428e+03
2.034534e+03,1.748812e+03
2.037427e+03,1.740292e+03
2.040320e+03,1.707094e+03
2.043212e+03,1.707137e+03
2.046105e+03,1.718998e+03
2.048998e+03,1.719615e+03
2.051890e+03,1.710009e+03
2.054783e+03,1.703524e+03
2.057676e+03,1.700200e+03
2.060568e+03,1.711246e+03
2.063461e+03,1.710799e+03
2.066354e+03,1.691197e+03
2.069247e+03,1.682582e+03
2.072139e+03,1.665202e+03
2.075032e+03,1.674073e+03
2.077925e+03,1.685684e+03
2.080817e+03,1.662564e+03
2.083710e+03,1.648918e+03
2.086603e+03,1.651486e+03
2.089496e+03,1.654627e+03
2.092388e+03,1.656304e+03
2.095281e+03,1.654153e+03
2.098174e+03,1.643963e+03
2.101066e+03,1.628455e+03
2.103959e+03,1.636631e+03
2.106852e+03,1.612409e+03
2.109744e+03,1.633152e+03
2.112637e+03,1.614689e+03
2.115530e+03,1.613366e+03
2.118422e+03,1.612106e+03
2.121315e+03,1.619746e+03
2.124208e+03,1.600705e+03
2.127101e+03,1.581752e+03
2.129993e+03,1.605015e+03
2.132886e+03,1.587946e+03
2.135779e+03,1.588699e+03
2.138671e+03,1.571111e+03
2.141564e+03,1.578029e+03
2.144457e+03,1.558559e+03
2.147350e+03,1.527257e+03
2.150242e+03,1.552797e+03
2.153135e+03,1.548878e+03
2.156028e+03,1.535557e+03
2.158920e+03,1.526713e+03
2.161813e+03,1.538416e+03
2.164706e+03,1.518871e+03
2.167598e+03,1.539286e+03
2.170491e+03,1.523792e+03
2.173384e+03,1.516266e+03
2.176277e+03,1.511529e+03
2.179169e+03,1.505326e+03
2.182062e+03,1.495964e+03
2.184955e+03,1.491320e+03
2.187847e+03,1.482385e+03
2.190740e+03,1.478861e+03
2.193633e+03,1.487974e+03
2.196525e+03,1.484859e+03
2.199418e+03,1.481424e+03
2.202311e+03,1.483582e+03
2.205204e+03,1.482752e+03
2.208096e+03,1.459426e+03
2.210989e+03,1.436229e+03
2.213882e+03,1.449707e+03
2.216774e+03,1.448059e+03
2.219667e+03,1.451229e+03
2.222560e+03,1.439525e+03
2.225452e+03,1.423174e+03
2.228345e+03,1.423473e+03
2.231238e+03,1.423248e+03
2.234131e+03,1.432506e+03
2.237023e+03,1.407757e+03
2.239916e+03,1.411260e+03
2.242809e+03,1.418524e+03
2.245701e+03,1.400318e+03
2.248594e+03,1.390832e+03
2.251487e+03,1.389652e+03
2.254379e+03,1.394393e+03
2.257272e+03,1.381533e+03
2.260165e+03,1.381912e+03
2.263058e+03,1.381835e+03
2.265950e+03,1.372457e+03
2.268843e+03,1.395254e+03
2.271736e+03,1.338468e+03
2.274628e+03,1.363197e+03
2.277521e+03,1.353064e+03
2.280414e+03,1.361345e+03
2.283306e+03,1.358600e+03
2.286199e+03,1.336853e+03
2.289092e+03,1.346440e+03
2.291985e+03,1.326967e+03
2.294877e+03,1.327741e+03
2.297770e+03,1.329681e+03
2.300663e+03,1.332107e+03
2.303555e+03,1.315604e+03
2.306448e+03,1.317171e+03
2.309341e+03,1.319330e+03
2.312233e+03,1.305439e+03
2.315126e+03,1.310905e+03
2.318019e+03,1.293685e+03
2.320912e+03,1.298909e+03
2.323804e+03,1.285114e+03
2.326697e+03,1.297021e+03
2.329590e+03,1.291115e+03
2.332482e+03,1.281100e+03
2.335375e+03,1.274997e+03
2.338268e+03,1.283978e+03
2.341160e+03,1.261849e+03
2.344053e+03,1.275129e+03
2.346946e+03,1.257307e+03
2.349839e+03,1.262441e+03
2.352731e+03,1.266279e+03
2.355624e+03,1.254188e+03
2.358517e+03,1.247622e+03
2.361409e+03,1.242486e+03
2.364302e+03,1.234522e+03
2.367195e+03,1.222407e+03
2.370087e+03,1.233068e+03
2.372980e+03,1.222503e+03
2.375873e+03,1.217126e+03
2.378766e+03,1.212267e+03
2.381658e+03,1.201277e+03
2.384551e+03,1.212504e+03
2.387444e+03,1.216490e+03
2.390336e+03,1.207907e+03
2.393229e+03,1.192689e+03
2.396122e+03,1.193835e+03
2.399014e+03,1.201971e+03
2.401907e+03,1.177382e+03
2.404800e+03,1.183566e+03
2.407693e+03,1.189086e+03
2.410585e+03,1.182215e+03
2.413478e+03,1.176783e+03
2.416371e+03,1.169684e+03
2.419263e+03,1.166557e+03
2.422156e+03,1.156569e+03
2.425049e+03,1.167930e+03
2.427941e+03,1.150682e+03
2.430834e+03,1.155651e+03
2.433727e+03,1.156817e+03
2.436620e+03,1.145671e+03
2.439512e+03,1.160279e+03
2.442405e+03,1.145164e+03
2.445298e+03,1.132926e+03
2.448190e+03,1.140112e+03
2.451083e+03,1.129638e+03
2.453976e+03,1.123064e+03
2.456868e+03,1.130058e+03
2.459761e+03,1.112677e+03
2.462654e+03,1.119037e+03
2.465547e+03,1.112595e+03
2.468439e+03,1.108211e+03
2.471332e+03,1.117722e+03
2.474225e+03,1.106848e+03
2.477117e+03,1.098290e+03
2.480010e+03,1.111193e+03
2.482903e+03,1.104001e+03
2.485795e+03,1.107642e+03
2.488688e+03,1.082965e+03
2.491581e+03,1.088415e+03
2.494474e+03,1.088062e+03
2.497366e+03,1.076121e+03
2.500259e+03,1.089848e+03
2.503152e+03,1.072274e+03
2.506044e+03,1.070716e+03
2.508937e+03,1.054929e+03
2.511830e+03,1.059843e+03
2.514722e+03,1.063277e+03
2.517615e+03,1.052015e+03
2.520508e+03,1.043009e+03
2.523401e+03,1.055175e+03
2.526293e+03,1.046493e+03
2.529186e+03,1.044463e+03
2.532079e+03,1.050171e+03
2.534971e+03,1.043761e+03
2.537864e+03,1.031748e+03
2.540757e+03,1.027345e+03
2.543649e+03,1.038282e+03
2.546542e+03,1.029544e+03
2.549435e+03,1.011944e+03
2.552328e+03,1.022876e+03
2.555220e+03,1.029852e+03
2.558113e+03,1.013861e+03
2.561006e+03,1.012579e+03
2.563898e+03,1.018360e+03
2.566791e+03,1.008261e+03
2.569684e+03,1.007042e+03
2.572576e+03,1.017322e+03
2.575469e+03,9.976445e+02
2.578362e+03,9.859249e+02
2.581255e+03,1.010598e+03
2.584147e+03,9.908601e+02
2.587040e+03,9.728381e+02
2.589933e+03,9.900302e+02
2.592825e+03,9.898819e+02
2.595718e+03,9.743129e+02
2.598611e+03,9.731278e+02
2.601503e+03,9.784147e+02
2.604396e+03,9.650349e+02
2.607289e+03,9.561385e+02
2.610182e+03,9.691334e+02
2.613074e+03,9.630342e+02
2.615967e+03,9.666465e+02
2.618860e+03,9.540400e+02
2.621752e+03,9.723991e+02
2.624645e+03,9.602415e+02
2.627538e+03,9.503655e+02
2.630430e+03,9.589052e+02
2.633323e+03,9.368766e+02
2.636216e+03,9.405170e+02
2.639109e+03,9.288599e+02
2.642001e+03,9.290234e+02
2.644894e+03,9.212659e+02
2.647787e+03,9.342198e+02
2.650679e+03,9.239650e+02
2.653572e+03,9.196191e+02
2.656465e+03,9.227560e+02
2.659357e+03,9.124590e+02
2.662250e+03,9.163034e+02
2.665143e+03,9.149103e+02
2.668036e+03,9.068904e+02
2.670928e+03,9.251641e+02
2.673821e+03,9.208682e+02
2.676714e+03,9.242051e+02
2.679606e+03,9.026229e+02
2.682499e+03,8.958441e+02
2.685392e+03,9.101379e+02
2.688284e+03,9.138530e+02
2.691177e+03,8.792655e+02
2.694070e+03,8.866560e+02
2.696963e+03,9.050143e+02
2.699855e+03,8.849952e+02
2.702748e+03,8.894122e+02
2.705641e+03,8.940259e+02
2.708533e+03,8.897578e+02
2.711426e+03,8.809332e+02
2.714319e+03,8.965258e+02
2.717211e+03,8.890336e+02
2.720104e+03,8.843597e+02
2.722997e+03,8.725707e+02
2.725890e+03,8.763990e+02
2.728782e+03,8.638264e+02
2.731675e+03,8.762317e+02
2.734568e+03,8.808821e+02
2.737460e+03,8.457393e+02
2.740353e+03,8.545074e+02
2.743246e+03,8.536590e+02
2.746138e+03,8.410924e+02
2.749031e+03,8.517758e+02
2.751924e+03,8.397019e+02
2.754817e+03,8.458409e+02
2.757709e+03,8.513950e+02
2.760602e+03,8.457231e+02
2.763495e+03,8.427822e+02
2.766387e+03,8.361863e+02
2.769280e+03,8.427791e+02
2.772173e+03,8.408121e+02
2.775065e+03,8.582500e+02
2.777958e+03,8.095403e+02
2.780851e+03,8.131000e+02
2.783744e+03,8.238386e+02
2.786636e+03,8.264490e+02
2.789529e+03,8.279858e+02
2.792422e+03,8.325048e+02
2.795314e+03,8.228004e+02
2.798207e+03,8.207812e+02
2.801100e+03,8.289642e+02
2.803992e+03,7.975297e+02
2.806885e+03,8.235341e+02
2.809778e+03,8.122264e+02
2.812671e+03,7.943066e+02
2.815563e+03,8.153705e+02
2.818456e+03,8.068528e+02
2.821349e+03,7.885834e+02
2.824241e+03,7.936680e+02
2.827134e+03,8.193712e+02
2.830027e+03,8.027486e+02
2.832919e+03,8.021851e+02
2.835812e+03,7.987479e+02
2.838705e+03,8.063771e+02
2.841598e+03,7.879532e+02
2.844490e+03,7.819382e+02
2.847383e+03,7.779688e+02
2.850276e+03,7.981642e+02
2.853168e+03,7.770178e+02
2.856061e+03,7.920313e+02
2.858954e+03,7.938970e+02
2.861846e+03,7.790599e+02
2.864739e+03,7.890071e+02
2.867632e+03,7.868063e+02
2.870525e+03,8.022018e+02
2.873417e+03,7.965839e+02
2.876310e+03,7.631675e+02
2.879203e+03,8.156662e+02
2.882095e+03,8.005359e+02
2.884988e+03,7.972161e+02
2.887881e+03,8.071551e+02
2.890773e+03,7.828385e+02
2.893666e+03,7.887153e+02
2.896559e+03,8.091960e+02
2.899452e+03,7.863281e+02
2.902344e+03,7.825566e+02
2.905237e+03,7.986154e+02
2.908130e+03,7.633884e+02
2.911022e+03,7.814517e+02
2.913915e+03,7.768571e+02
2.916808e+03,7.591625e+02
2.919700e+03,7.884472e+02
2.922593e+03,7.696403e+02
2.925486e+03,7.370795e+02
2.928379e+03,7.515032e+02
2.931271e+03,7.577155e+02
2.934164e+03,7.573617e+02
2.937057e+03,7.617319e+02
2.939949e+03,7.370508e+02
2.942842e+03,7.553493e+02
2.945735e+03,7.534486e+02
2.948627e+03,7.444372e+02
2.951520e+03,7.421334e+02
2.954413e+03,7.325519e+02
2.957306e+03,7.788283e+02
2.960198e+03,7.363347e+02
2.963091e+03,7.461893e+02
2.965984e+03,7.078025e+02
2.968876e+03,7.371347e+02
2.971769e+03,7.143724e+02
2.974662e+03,6.766209e+02
2.977554e+03,7.266978e+02
2.980447e+03,7.288953e+02
2.983340e+03,7.296184e+02
2.986233e+03,7.347658e+02
2.989125e+03,7.092392e+02
2.992018e+03,6.815906e+02
2.994911e+03,7.064750e+02
2.997803e+03,7.136562e+02
3.000696e+03,6.808905e+02
3.003589e+03,7.060524e+02
3.006481e+03,6.854814e+02
3.009374e+03,7.141223e+02
3.012267e+03,7.179258e+02
3.015160e+03,7.037400e+02
3.018052e+03,6.826844e+02
3.020945e+03,7.099925e+02
3.023838e+03,6.693287e+02
3.026730e+03,7.110501e+02
3.029623e+03,7.287419e+02
3.032516e+03,6.849353e+02
3.035408e+03,6.906891e+02
3.038301e+03,7.178383e+02
3.041194e+03,6.621093e+02
3.044087e+03,6.717698e+02
3.046979e+03,6.730699e+02
3.049872e+03,6.937316e+02
3.052765e+03,6.652414e+02
3.055657e+03,7.027176e+02
3.058550e+03,7.143282e+02
3.061443e+03,6.721002e+02
3.064335e+03,6.763547e+02
3.067228e+03,6.956459e+02
3.070121e+03,6.752469e+02
3.073014e+03,7.075703e+02
3.075906e+03,6.699581e+02
3.078799e+03,6.769524e+02
3.081692e+03,6.797883e+02
3.084584e+03,6.965872e+02
3.087477e+03,6.774454e+02
3.090370e+03,7.139736e+02
3.093262e+03,6.724761e+02
3.096155e+03,6.853519e+02
3.099048e+03,6.802720e+02
3.101941e+03,6.874288e+02
3.104833e+03,6.440311e+02
3.107726e+03,6.703961e+02
3.110619e+03,6.798918e+02
3.113511e+03,6.891537e+02
3.116404e+03,6.798910e+02
3.119297e+03,6.891013e+02
3.122189e+03,6.810759e+02
3.125082e+03,7.120428e+02
3.127975e+03,6.726739e+02
3.130868e+03,7.021509e+02
3.133760e+03,7.067888e+02
3.136653e+03,6.959260e+02
3.139546e+03,7.018018e+02
3.142438e+03,7.086449e+02
3.145331e+03,6.583590e+02
3.148224e+03,6.753212e+02
3.151116e+03,6.774659e+02
3.154009e+03,6.671325e+02
3.156902e+03,7.058589e+02
3.159795e+03,7.071403e+02
3.162687e+03,7.004803e+02
3.165580e+03,6.687515e+02
3.168473e+03,6.771197e+02
3.171365e+03,6.666960e+02
3.174258e+03,6.759349e+02
3.177151e+03,6.887186e+02
3.180043e+03,6.661649e+02
3.182936e+03,6.976342e+02
3.185829e+03,6.854817e+02
3.188722e+03,6.701624e+02
3.191614e+03,6.471011e+02
3.194507e+03,6.844318e+02
3.197400e+03,6.731512e+02
3.200292e+03,7.133625e+02
3.203185e+03,0.000000e+00
3.206078e+03,0.000000e+00
3.208970e+03,0.000000e+00
3.211863e+03,0.000000e+00
3.214756e+03,0.000000e+00
3.217649e+03,0.000000e+00
3.220541e+03,0.000000e+00
3.223434e+03,0.000000e+00
3.226327e+03,0.000000e+00
3.229219e+03,0.000000e+00
3.232112e+03,0.000000e+00
3.235005e+03,0.000000e+00
3.237897e+03,0.000000e+00
3.240790e+03,0.000000e+00
3.243683e+03,0.000000e+00
3.246576e+03,0.000000e+00
3.249468e+03,0.000000e+00
3.252361e+03,0.000000e+00
3.255254e+03,0.000000e+00
3.258146e+03,0.000000e+00
3.261039e+03,0.000000e+00
3.263932e+03,0.000000e+00
3.266824e+03,0.000000e+00
3.269717e+03,0.000000e+00
3.272610e+03,0.000000e+00
3.275503e+03,0.000000e+00
3.278395e+03,0.000000e+00
3.281288e+03,0.000000e+00
3.284181e+03,0.000000e+00
3.287073e+03,0.000000e+00
3.289966e+03,0.000000e+00
3.292859e+03,0.000000e+00
3.295751e+03,0.000000e+00
3.298644e+03,0.000000e+00
3.301537e+03,0.000000e+00
3.304430e+03,0.000000e+00
3.307322e+03,0.000000e+00
3.310215e+03,0.000000e+00
3.313108e+03,0.000000e+00
3.316000e+03,0.000000e+00
3.318893e+03,0.000000e+00
3.321786e+03,0.000000e+00
3.324678e+03,0.000000e+00
3.327571e+03,0.000000e+00
3.330464e+03,0.000000e+00
3.333357e+03,0.000000e+00
3.336249e+03,0.000000e+00
3.339142e+03,0.000000e+00
3.342035e+03,0.000000e+00
3.344927e+03,0.000000e+00
3.347820e+03,0.000000e+00
3.350713e+03,0.000000e+00
3.353605e+03,0.000000e+00
3.356498e+03,0.000000e+00
3.359391e+03,0.000000e+00
3.362284e+03,0.000000e+00
3.365176e+03,0.000000e+00
3.368069e+03,0.000000e+00
3.370962e+03,0.000000e+00
3.373854e+03,0.000000e+00
3.376747e+03,0.000000e+00
3.379640e+03,0.000000e+00
3.382532e+03,0.000000e+00
3.385425e+03,0.000000e+00
3.388318e+03,0.000000e+00
3.391211e+03,0.000000e+00
3.394103e+03,0.000000e+00
3.396996e+03,0.000000e+00
3.399889e+03,0.000000e+00
3.402781e+03,0.000000e+00
3.405674e+03,0.000000e+00
3.408567e+03,0.000000e+00
3.411459e+03,0.000000e+00
3.414352e+03,0.000000e+00
3.417245e+03,0.000000e+00
3.420138e+03,0.000000e+00
3.423030e+03,0.000000e+00
3.425923e+03,0.000000e+00
3.428816e+03,0.000000e+00
3.431708e+03,0.000000e+00
3.434601e+03,0.000000e+00
3.437494e+03,0.000000e+00
3.440386e+03,0.000000e+00
3.443279e+03,0.000000e+00
3.446172e+03,0.000000e+00
3.449065e+03,0.000000e+00
3.451957e+03,0.000000e+00
3.454850e+03,0.000000e+00
3.457743e+03,0.000000e+00
3.460635e+03,0.000000e+00
3.463528e+03,0.000000e+00
3.466421e+03,0.000000e+00
3.469313e+03,0.000000e+00
3.472206e+03,0.000000e+00
3.475099e+03,0.000000e+00
3.477992e+03,0.000000e+00
3.480884e+03,0.000000e+00
3.483777e+03,0.000000e+00
3.486670e+03,0.000000e+00
3.489563e+03,0.000000e+00
3.492455e+03,0.000000e+00
3.495348e+03,0.000000e+00
3.498240e+03,0.000000e+00
3.500169e+03,0.000000e+00