File: RAMAN_data/23052023_r3/blue fibre2.CSV
9.931763e+01,0.000000e+00
1.022103e+02,0.000000e+00
1.051030e+02,0.000000e+00
1.079957e+02,0.000000e+00
1.108884e+02,0.000000e+00
1.137811e+02,0.000000e+00
1.166738e+02,0.000000e+00
1.195665e+02,0.000000e+00
1.224592e+02,0.000000e+00
1.253519e+02,0.000000e+00
1.282446e+02,0.000000e+00
1.311373e+02,0.000000e+00
1.340300e+02,0.000000e+00
1.369227e+02,0.000000e+00
1.398154e+02,0.000000e+00
1.427081e+02,0.000000e+00
1.456008e+02,0.000000e+00
1.484935e+02,0.000000e+00
1.513862e+02,0.000000e+00
1.542789e+02,0.000000e+00
1.571716e+02,0.000000e+00
1.600643e+02,0.000000e+00
1.629570e+02,0.000000e+00
1.658497e+02,0.000000e+00
1.687424e+02,0.000000e+00
1.716351e+02,0.000000e+00
1.745278e+02,0.000000e+00
1.774205e+02,0.000000e+00
1.803132e+02,0.000000e+00
1.832059e+02,0.000000e+00
1.860986e+02,0.000000e+00
1.889913e+02,0.000000e+00
1.918840e+02,0.000000e+00
1.947767e+02,0.000000e+00
1.976694e+02,0.000000e+00
2.005621e+02,6.824127e+03
2.034548e+02,6.836128e+03
2.063475e+02,6.853891e+03
2.092402e+02,6.892389e+03
2.121329e+02,6.878653e+03
2.150256e+02,6.892500e+03
2.179183e+02,6.920412e+03
2.208110e+02,6.983180e+03
2.237037e+02,6.990909e+03
2.265964e+02,6.989490e+03
2.294892e+02,7.009213e+03
2.323819e+02,7.041439e+03
2.352746e+02,7.076167e+03
2.381673e+02,7.085029e+03
2.410600e+02,7.078786e+03
2.439527e+02,7.144380e+03
2.468454e+02,7.203523e+03
2.497381e+02,7.216881e+03
2.526308e+02,7.247954e+03
2.555235e+02,7.221046e+03
2.584161e+02,7.254052e+03
2.613088e+02,7.273017e+03
2.642015e+02,7.320356e+03
2.670942e+02,7.384373e+03
2.699869e+02,7.397157e+03
2.728796e+02,7.434489e+03
2.757723e+02,7.497938e+03
2.786650e+02,7.517320e+03
2.815577e+02,7.525388e+03
2.844504e+02,7.524927e+03
2.873431e+02,7.481675e+03
2.902358e+02,7.483850e+03
2.931285e+02,7.483985e+03
2.960212e+02,7.494349e+03
2.989139e+02,7.520885e+03
3.018066e+02,7.531696e+03
3.046993e+02,7.526177e+03
3.075920e+02,7.532065e+03
3.104847e+02,7.541982e+03
3.133774e+02,7.574167e+03
3.162701e+02,7.566753e+03
3.191628e+02,7.564862e+03
3.220555e+02,7.574712e+03
3.249482e+02,7.620474e+03
3.278409e+02,7.632423e+03
3.307336e+02,7.657257e+03
3.336263e+02,7.668414e+03
3.365190e+02,7.640219e+03
3.394117e+02,7.672752e+03
3.423044e+02,7.675178e+03
3.451971e+02,7.726452e+03
3.480898e+02,7.723433e+03
3.509825e+02,7.726675e+03
3.538752e+02,7.750186e+03
3.567680e+02,7.751206e+03
3.596607e+02,7.781640e+03
3.625534e+02,7.789483e+03
3.654461e+02,7.765195e+03
3.683388e+02,7.808575e+03
3.712315e+02,7.819221e+03
3.741242e+02,7.840054e+03
3.770169e+02,7.851111e+03
3.799096e+02,7.862825e+03
3.828023e+02,7.849790e+03
3.856950e+02,7.888994e+03
3.885877e+02,7.896966e+03
3.914804e+02,7.902828e+03
3.943731e+02,7.904392e+03
3.972658e+02,7.907084e+03
4.001585e+02,7.936927e+03
4.030512e+02,7.939653e+03
4.059439e+02,7.927367e+03
4.088366e+02,7.943866e+03
4.117293e+02,7.947958e+03
4.146220e+02,7.953484e+03
4.175147e+02,7.952242e+03
4.204074e+02,7.978182e+03
4.233001e+02,8.006103e+03
4.261928e+02,7.982370e+03
4.290855e+02,7.994909e+03
4.319782e+02,8.004286e+03
4.348709e+02,7.993140e+03
4.377636e+02,7.993794e+03
4.406563e+02,8.023085e+03
4.435490e+02,8.007952e+03
4.464417e+02,8.038472e+03
4.493344e+02,8.017541e+03
4.522271e+02,8.066887e+03
4.551198e+02,8.049985e+03
4.580125e+02,8.041899e+03
4.609052e+02,8.050398e+03
4.637979e+02,8.065827e+03
4.666906e+02,8.089147e+03
4.695833e+02,8.082114e+03
4.724760e+02,8.073515e+03
4.753687e+02,8.075937e+03
4.782614e+02,8.064764e+03
4.811541e+02,8.086482e+03
4.840468e+02,8.097261e+03
4.869395e+02,8.110419e+03
4.898322e+02,8.100364e+03
4.927249e+02,8.122388e+03
4.956176e+02,8.119993e+03
4.985103e+02,8.112942e+03
5.014030e+02,8.128609e+03
5.042957e+02,8.107722e+03
5.071884e+02,8.098044e+03
5.100811e+02,8.110292e+03
5.129738e+02,8.136601e+03
5.158665e+02,8.163055e+03
5.187592e+02,8.146624e+03
5.216519e+02,8.170493e+03
5.245446e+02,8.146721e+03
5.274373e+02,8.166044e+03
5.303300e+02,8.176898e+03
5.332227e+02,8.205885e+03
5.361154e+02,8.234776e+03
5.390081e+02,8.237096e+03
5.419008e+02,8.304870e+03
5.447935e+02,8.310452e+03
5.476862e+02,8.296691e+03
5.505789e+02,8.294033e+03
5.534716e+02,8.345280e+03
5.563643e+02,8.352541e+03
5.592570e+02,8.376396e+03
5.621497e+02,8.306768e+03
5.650424e+02,8.263462e+03
5.679351e+02,8.193382e+03
5.708278e+02,8.143295e+03
5.737205e+02,8.154844e+03
5.766132e+02,8.166986e+03
5.795059e+02,8.167320e+03
5.823986e+02,8.175571e+03
5.852913e+02,8.189328e+03
5.881840e+02,8.180594e+03
5.910767e+02,8.199441e+03
5.939694e+02,8.217882e+03
5.968621e+02,8.244421e+03
5.997548e+02,8.244062e+03
6.026475e+02,8.231562e+03
6.055402e+02,8.265926e+03
6.084329e+02,8.345193e+03
6.113256e+02,8.332442e+03
6.142183e+02,8.217620e+03
6.171110e+02,8.168765e+03
6.200037e+02,8.161252e+03
6.228964e+02,8.141608e+03
6.257891e+02,8.160239e+03
6.286818e+02,8.129189e+03
6.315745e+02,8.159057e+03
6.344672e+02,8.122818e+03
6.373599e+02,8.140936e+03
6.402526e+02,8.118615e+03
6.431453e+02,8.118048e+03
6.460380e+02,8.090008e+03
6.489307e+02,8.086102e+03
6.518234e+02,8.103217e+03
6.547161e+02,8.081583e+03
6.576088e+02,8.056333e+03
6.605015e+02,8.047600e+03
6.633942e+02,8.034214e+03
6.662869e+02,8.065653e+03
6.691796e+02,8.066852e+03
6.720723e+02,8.059367e+03
6.749650e+02,8.037497e+03
6.778577e+02,8.038328e+03
6.807504e+02,8.032778e+03
6.836431e+02,8.033491e+03
6.865358e+02,8.014744e+03
6.894285e+02,7.985560e+03
6.923212e+02,7.979512e+03
6.952139e+02,7.977728e+03
6.981066e+02,7.950792e+03
7.009993e+02,7.930175e+03
7.038920e+02,7.942745e+03
7.067847e+02,7.936188e+03
7.096774e+02,7.918965e+03
7.125701e+02,7.934745e+03
7.154628e+02,7.918713e+03
7.183555e+02,7.933787e+03
7.212482e+02,7.906824e+03
7.241409e+02,7.893703e+03
7.270336e+02,7.887768e+03
7.299263e+02,7.857120e+03
7.328190e+02,7.871450e+03
7.357117e+02,7.837432e+03
7.386044e+02,7.814840e+03
7.414971e+02,7.845603e+03
7.443898e+02,7.839279e+03
7.472825e+02,7.840573e+03
7.501752e+02,7.809487e+03
7.530679e+02,7.800509e+03
7.559606e+02,7.808853e+03
7.588533e+02,7.818736e+03
7.617460e+02,7.793345e+03
7.646387e+02,7.776508e+03
7.675314e+02,7.788366e+03
7.704241e+02,7.757276e+03
7.733168e+02,7.752461e+03
7.762095e+02,7.785974e+03
7.791022e+02,7.755624e+03
7.819949e+02,7.778239e+03
7.848876e+02,7.768487e+03
7.877803e+02,7.751031e+03
7.906730e+02,7.756921e+03
7.935657e+02,7.731131e+03
7.964584e+02,7.659788e+03
7.993511e+02,7.665850e+03
8.022438e+02,7.650269e+03
8.051365e+02,7.649933e+03
8.080292e+02,7.641835e+03
8.109219e+02,7.626029e+03
8.138146e+02,7.591205e+03
8.167073e+02,7.595369e+03
8.196000e+02,7.582688e+03
8.224927e+02,7.568619e+03
8.253854e+02,7.548532e+03
8.282781e+02,7.531518e+03
8.311708e+02,7.548961e+03
8.340635e+02,7.561765e+03
8.369562e+02,7.526511e+03
8.398489e+02,7.552283e+03
8.427416e+02,7.517345e+03
8.456343e+02,7.483712e+03
8.485270e+02,7.504436e+03
8.514197e+02,7.486516e+03
8.543124e+02,7.476365e+03
8.572051e+02,7.459075e+03
8.600978e+02,7.442432e+03
8.629905e+02,7.442846e+03
8.658832e+02,7.407531e+03
8.687759e+02,7.398540e+03
8.716686e+02,7.407789e+03
8.745613e+02,7.383995e+03
8.774540e+02,7.357322e+03
8.803467e+02,7.342245e+03
8.832394e+02,7.356587e+03
8.861321e+02,7.368251e+03
8.890248e+02,7.328763e+03
8.919175e+02,7.334472e+03
8.948102e+02,7.309082e+03
8.977029e+02,7.296703e+03
9.005956e+02,7.275316e+03
9.034883e+02,7.267875e+03
9.063810e+02,7.241359e+03
9.092737e+02,7.199210e+03
9.121664e+02,7.190687e+03
9.150591e+02,7.194659e+03
9.179518e+02,7.207696e+03
9.208445e+02,7.168986e+03
9.237372e+02,7.158443e+03
9.266299e+02,7.148548e+03
9.295226e+02,7.134522e+03
9.324153e+02,7.127218e+03
9.353080e+02,7.110420e+03
9.382007e+02,7.102293e+03
9.410934e+02,7.085479e+03
9.439861e+02,7.072479e+03
9.468788e+02,7.067995e+03
9.497715e+02,7.043843e+03
9.526642e+02,7.021279e+03
9.555569e+02,7.004821e+03
9.584496e+02,6.991115e+03
9.613423e+02,7.001611e+03
9.642350e+02,6.997352e+03
9.671277e+02,6.967079e+03
9.700204e+02,6.956626e+03
9.729131e+02,6.915501e+03
9.758058e+02,6.905443e+03
9.786985e+02,6.914694e+03
9.815912e+02,6.883966e+03
9.844839e+02,6.844298e+03
9.873766e+02,6.858268e+03
9.902693e+02,6.839596e+03
9.931620e+02,6.853831e+03
9.960547e+02,6.853073e+03
9.989474e+02,6.822635e+03
1.001840e+03,6.789167e+03
1.004733e+03,6.780215e+03
1.007626e+03,6.792389e+03
1.010518e+03,6.788674e+03
1.013411e+03,6.757354e+03
1.016304e+03,6.728810e+03
1.019196e+03,6.708005e+03
1.022089e+03,6.717781e+03
1.024982e+03,6.713430e+03
1.027875e+03,6.686908e+03
1.030767e+03,6.659900e+03
1.033660e+03,6.666662e+03
1.036552e+03,6.636578e+03
1.039445e+03,6.654298e+03
1.042338e+03,6.650193e+03
1.045231e+03,6.629982e+03
1.048123e+03,6.591452e+03
1.051016e+03,6.580509e+03
1.053909e+03,6.609479e+03
1.056802e+03,6.594483e+03
1.059694e+03,6.591471e+03
1.062587e+03,6.548669e+03
1.065479e+03,6.544061e+03
1.068372e+03,6.550204e+03
1.071265e+03,6.568292e+03
1.074158e+03,6.560037e+03
1.077050e+03,6.566675e+03
1.079943e+03,6.557600e+03
1.082836e+03,6.557042e+03
1.085729e+03,6.531620e+03
1.088621e+03,6.513343e+03
1.091514e+03,6.474743e+03
1.094406e+03,6.438932e+03
1.097299e+03,6.411502e+03
1.100192e+03,6.406318e+03
1.103085e+03,6.393311e+03
1.105977e+03,6.389801e+03
1.108870e+03,6.385131e+03
1.111763e+03,6.369286e+03
1.114656e+03,6.336664e+03
1.117548e+03,6.342762e+03
1.120441e+03,6.343925e+03
1.123334e+03,6.315463e+03
1.126226e+03,6.276854e+03
1.129119e+03,6.283109e+03
1.132012e+03,6.256896e+03
1.134904e+03,6.241292e+03
1.137797e+03,6.229719e+03
1.140690e+03,6.238940e+03
1.143583e+03,6.230394e+03
1.146475e+03,6.218640e+03
1.149368e+03,6.196539e+03
1.152261e+03,6.198204e+03
1.155153e+03,6.168875e+03
1.158046e+03,6.159542e+03
1.160939e+03,6.126524e+03
1.163831e+03,6.138483e+03
1.166724e+03,6.113680e+03
1.169617e+03,6.094100e+03
1.172510e+03,6.091557e+03
1.175402e+03,6.079858e+03
1.178295e+03,6.092536e+03
1.181188e+03,6.082966e+03
1.184080e+03,6.072826e+03
1.186973e+03,6.036621e+03
1.189866e+03,6.034814e+03
1.192758e+03,6.057608e+03
1.195651e+03,6.013842e+03
1.198544e+03,6.030231e+03
1.201437e+03,5.972377e+03
1.204329e+03,5.935006e+03
1.207222e+03,5.940411e+03
1.210115e+03,5.936906e+03
1.213007e+03,5.917770e+03
1.215900e+03,5.926995e+03
1.218793e+03,5.924384e+03
1.221685e+03,5.924601e+03
1.224578e+03,5.922239e+03
1.227471e+03,5.925333e+03
1.230364e+03,5.887493e+03
1.233256e+03,5.852708e+03
1.236149e+03,5.832086e+03
1.239042e+03,5.846136e+03
1.241934e+03,5.849258e+03
1.244827e+03,5.805303e+03
1.247720e+03,5.787070e+03
1.250612e+03,5.775056e+03
1.253505e+03,5.763900e+03
1.256398e+03,5.761577e+03
1.259291e+03,5.748904e+03
1.262183e+03,5.733199e+03
1.265076e+03,5.713058e+03
1.267969e+03,5.687536e+03
1.270861e+03,5.703230e+03
1.273754e+03,5.692554e+03
1.276647e+03,5.687405e+03
1.279539e+03,5.649666e+03
1.282432e+03,5.617521e+03
1.285325e+03,5.650310e+03
1.288218e+03,5.645802e+03
1.291110e+03,5.612986e+03
1.294003e+03,5.604158e+03
1.296896e+03,5.590194e+03
1.299788e+03,5.568333e+03
1.302681e+03,5.565440e+03
1.305574e+03,5.575517e+03
1.308466e+03,5.579525e+03
1.311359e+03,5.565007e+03
1.314252e+03,5.545323e+03
1.317145e+03,5.534791e+03
1.320037e+03,5.552018e+03
1.322930e+03,5.533384e+03
1.325823e+03,5.509501e+03
1.328715e+03,5.485893e+03
1.331608e+03,5.495368e+03
1.334501e+03,5.499904e+03
1.337393e+03,5.481668e+03
1.340286e+03,5.463584e+03
1.343179e+03,5.426483e+03
1.346072e+03,5.437103e+03
1.348964e+03,5.426370e+03
1.351857e+03,5.415755e+03
1.354750e+03,5.416286e+03
1.357642e+03,5.385114e+03
1.360535e+03,5.399042e+03
1.363428e+03,5.398431e+03
1.366320e+03,5.389686e+03
1.369213e+03,5.365912e+03
1.372106e+03,5.343835e+03
1.374999e+03,5.320216e+03
1.377891e+03,5.315000e+03
1.380784e+03,5.316036e+03
1.383677e+03,5.281658e+03
1.386569e+03,5.273734e+03
1.389462e+03,5.265704e+03
1.392355e+03,5.274351e+03
1.395247e+03,5.246281e+03
1.398140e+03,5.264689e+03
1.401033e+03,5.257554e+03
1.403926e+03,5.229644e+03
1.406818e+03,5.207866e+03
1.409711e+03,5.212139e+03
1.412604e+03,5.193674e+03
1.415496e+03,5.173259e+03
1.418389e+03,5.182377e+03
1.421282e+03,5.164817e+03
1.424174e+03,5.143893e+03
1.427067e+03,5.139059e+03
1.429960e+03,5.148829e+03
1.432853e+03,5.133567e+03
1.435745e+03,5.113404e+03
1.438638e+03,5.089221e+03
1.441531e+03,5.112957e+03
1.444423e+03,5.106158e+03
1.447316e+03,5.104133e+03
1.450209e+03,5.116603e+03
1.453101e+03,5.101585e+03
1.455994e+03,5.085570e+03
1.458887e+03,5.082889e+03
1.461780e+03,5.066281e+03
1.464672e+03,5.059870e+03
1.467565e+03,5.026893e+03
1.470458e+03,5.002266e+03
1.473350e+03,5.002555e+03
1.476243e+03,5.022181e+03
1.479136e+03,5.002007e+03
1.482028e+03,4.993250e+03
1.484921e+03,4.988475e+03
1.487814e+03,4.978899e+03
1.490707e+03,4.968303e+03
1.493599e+03,4.943122e+03
1.496492e+03,4.947670e+03
1.499385e+03,4.934290e+03
1.502277e+03,4.909726e+03
1.505170e+03,4.939581e+03
1.508063e+03,4.945892e+03
1.510955e+03,4.923205e+03
1.513848e+03,4.900211e+03
1.516741e+03,4.878913e+03
1.519634e+03,4.869224e+03
1.522526e+03,4.859005e+03
1.525419e+03,4.847275e+03
1.528312e+03,4.829458e+03
1.531204e+03,4.810094e+03
1.534097e+03,4.812619e+03
1.536990e+03,4.799127e+03
1.539882e+03,4.804171e+03
1.542775e+03,4.780815e+03
1.545668e+03,4.782866e+03
1.548561e+03,4.785005e+03
1.551453e+03,4.800833e+03
1.554346e+03,4.749928e+03
1.557239e+03,4.775417e+03
1.560131e+03,4.794506e+03
1.563024e+03,4.797247e+03
1.565917e+03,4.854671e+03
1.568809e+03,4.927649e+03
1.571702e+03,4.914249e+03
1.574595e+03,4.854581e+03
1.577488e+03,4.816666e+03
1.580380e+03,4.816671e+03
1.583273e+03,4.795212e+03
1.586166e+03,4.737992e+03
1.589058e+03,4.689545e+03
1.591951e+03,4.653279e+03
1.594844e+03,4.643460e+03
1.597736e+03,4.656709e+03
1.600629e+03,4.630570e+03
1.603522e+03,4.644662e+03
1.606415e+03,4.614081e+03
1.609307e+03,4.603843e+03
1.612200e+03,4.610894e+03
1.615093e+03,4.573530e+03
1.617985e+03,4.590911e+03
1.620878e+03,4.587333e+03
1.623771e+03,4.569313e+03
1.626663e+03,4.582697e+03
1.629556e+03,4.565640e+03
1.632449e+03,4.546597e+03
1.635342e+03,4.533805e+03
1.638234e+03,4.516067e+03
1.641127e+03,4.497586e+03
1.644020e+03,4.491870e+03
1.646912e+03,4.484557e+03
1.649805e+03,4.445004e+03
1.652698e+03,4.439153e+03
1.655590e+03,4.441792e+03
1.658483e+03,4.437097e+03
1.661376e+03,4.435641e+03
1.664269e+03,4.407270e+03
1.667161e+03,4.403296e+03
1.670054e+03,4.397595e+03
1.672947e+03,4.420623e+03
1.675839e+03,4.396484e+03
1.678732e+03,4.393159e+03
1.681625e+03,4.373555e+03
1.684517e+03,4.370549e+03
1.687410e+03,4.352530e+03
1.690303e+03,4.333206e+03
1.693196e+03,4.321745e+03
1.696088e+03,4.318358e+03
1.698981e+03,4.308485e+03
1.701874e+03,4.326560e+03
1.704766e+03,4.315897e+03
1.707659e+03,4.251219e+03
1.710552e+03,4.260528e+03
1.713444e+03,4.272050e+03
1.716337e+03,4.262890e+03
1.719230e+03,4.249375e+03
1.722123e+03,4.230045e+03
1.725015e+03,4.206166e+03
1.727908e+03,4.218791e+03
1.730801e+03,4.213534e+03
1.733693e+03,4.204394e+03
1.736586e+03,4.210957e+03
1.739479e+03,4.166841e+03
1.742371e+03,4.174810e+03
1.745264e+03,4.144568e+03
1.748157e+03,4.138667e+03
1.751050e+03,4.151921e+03
1.753942e+03,4.119565e+03
1.756835e+03,4.134734e+03
1.759728e+03,4.118581e+03
1.762620e+03,4.096216e+03
1.765513e+03,4.083082e+03
1.768406e+03,4.120435e+03
1.771298e+03,4.105234e+03
1.774191e+03,4.067096e+03
1.777084e+03,4.058766e+03
1.779977e+03,4.047902e+03
1.782869e+03,4.065539e+03
1.785762e+03,4.053497e+03
1.788655e+03,4.016325e+03
1.791547e+03,4.025436e+03
1.794440e+03,4.022845e+03
1.797333e+03,4.016522e+03
1.800225e+03,4.012348e+03
1.803118e+03,3.968614e+03
1.806011e+03,3.980755e+03
1.808904e+03,3.959658e+03
1.811796e+03,3.968260e+03
1.814689e+03,3.933572e+03
1.817582e+03,3.951074e+03
1.820474e+03,3.944513e+03
1.823367e+03,3.903829e+03
1.826260e+03,3.911324e+03
1.829152e+03,3.911614e+03
1.832045e+03,3.902057e+03
1.834938e+03,3.875503e+03
1.837831e+03,3.877226e+03
1.840723e+03,3.867627e+03
1.843616e+03,3.871220e+03
1.846509e+03,3.850433e+03
1.849401e+03,3.835069e+03
1.852294e+03,3.829406e+03
1.855187e+03,3.803711e+03
1.858079e+03,3.815904e+03
1.860972e+03,3.804426e+03
1.863865e+03,3.828913e+03
1.866758e+03,3.812183e+03
1.869650e+03,3.798305e+03
1.872543e+03,3.793828e+03
1.875436e+03,3.772376e+03
1.878328e+03,3.779132e+03
1.881221e+03,3.759856e+03
1.884114e+03,3.720614e+03
1.887006e+03,3.740050e+03
1.889899e+03,3.730355e+03
1.892792e+03,3.724952e+03
1.895685e+03,3.681478e+03
1.898577e+03,3.700672e+03
1.901470e+03,3.687420e+03
1.904363e+03,3.670277e+03
1.907255e+03,3.657831e+03
1.910148e+03,3.653204e+03
1.913041e+03,3.628621e+03
1.915933e+03,3.605015e+03
1.918826e+03,3.629505e+03
1.921719e+03,3.631792e+03
1.924612e+03,3.636026e+03
1.927504e+03,3.609456e+03
1.930397e+03,3.594138e+03
1.933290e+03,3.574084e+03
1.936182e+03,3.590698e+03
1.939075e+03,3.567063e+03
1.941968e+03,3.548637e+03
1.944860e+03,3.541485e+03
1.947753e+03,3.516228e+03
1.950646e+03,3.534189e+03
1.953539e+03,3.556640e+03
1.956431e+03,3.516157e+03
1.959324e+03,3.495859e+03
1.962217e+03,3.488134e+03
1.965109e+03,3.481420e+03
1.968002e+03,3.482582e+03
1.970895e+03,3.472585e+03
1.973787e+03,3.473145e+03
1.976680e+03,3.454019e+03
1.979573e+03,3.464317e+03
1.982466e+03,3.438548e+03
1.985358e+03,3.432749e+03
1.988251e+03,3.411349e+03
1.991144e+03,3.414341e+03
1.994036e+03,3.418306e+03
1.996929e+03,3.399142e+03
1.999822e+03,3.396419e+03
2.002714e+03,3.391094e+03
2.005607e+03,3.356577e+03
2.008500e+03,3.361757e+03
2.011393e+03,3.360643e+03
2.014285e+03,3.370359e+03
2.017178e+03,3.344734e+03
2.020071e+03,3.331464e+03
2.022963e+03,3.306481e+03
2.025856e+03,3.295616e+03
2.028749e+03,3.299457e+03
2.031641e+03,3.265083e+03
2.034534e+03,3.283437e+03
2.037427e+03,3.264534e+03
2.040320e+03,3.238766e+03
2.043212e+03,3.225984e+03
2.046105e+03,3.253337e+03
2.048998e+03,3.256877e+03
2.051890e+03,3.218707e+03
2.054783e+03,3.221052e+03
2.057676e+03,3.198136e+03
2.060568e+03,3.177769e+03
2.063461e+03,3.183439e+03
2.066354e+03,3.161155e+03
2.069247e+03,3.176796e+03
2.072139e+03,3.176239e+03
2.075032e+03,3.135810e+03
2.077925e+03,3.156185e+03
2.080817e+03,3.130319e+03
2.083710e+03,3.107765e+03
2.086603e+03,3.117980e+03
2.089496e+03,3.103035e+03
2.092388e+03,3.115804e+03
2.095281e+03,3.090935e+03
2.098174e+03,3.094298e+03
2.101066e+03,3.071077e+03
2.103959e+03,3.039876e+03
2.106852e+03,3.061211e+03
2.109744e+03,3.054781e+03
2.112637e+03,3.035775e+03
2.115530e+03,3.008331e+03
2.118422e+03,3.014052e+03
2.121315e+03,3.037788e+03
2.124208e+03,3.006997e+03
2.127101e+03,2.974720e+03
2.129993e+03,2.978780e+03
2.132886e+03,2.973245e+03
2.135779e+03,2.979259e+03
2.138671e+03,2.970560e+03
2.141564e+03,2.927813e+03
2.144457e+03,2.935105e+03
2.147350e+03,2.910765e+03
2.150242e+03,2.930556e+03
2.153135e+03,2.910012e+03
2.156028e+03,2.902213e+03
2.158920e+03,2.883056e+03
2.161813e+03,2.893808e+03
2.164706e+03,2.867693e+03
2.167598e+03,2.874175e+03
2.170491e+03,2.871555e+03
2.173384e+03,2.873296e+03
2.176277e+03,2.855087e+03
2.179169e+03,2.828924e+03
2.182062e+03,2.824979e+03
2.184955e+03,2.825190e+03
2.187847e+03,2.805985e+03
2.190740e+03,2.784823e+03
2.193633e+03,2.790742e+03
2.196525e+03,2.790524e+03
2.199418e+03,2.753288e+03
2.202311e+03,2.775473e+03
2.205204e+03,2.780882e+03
2.208096e+03,2.751665e+03
2.210989e+03,2.718827e+03
2.213882e+03,2.726717e+03
2.216774e+03,2.747855e+03
2.219667e+03,2.715198e+03
2.222560e+03,2.706971e+03
2.225452e+03,2.684837e+03
2.228345e+03,2.681415e+03
2.231238e+03,2.692690e+03
2.234131e+03,2.673270e+03
2.237023e+03,2.647166e+03
2.239916e+03,2.668822e+03
2.242809e+03,2.642736e+03
2.245701e+03,2.637247e+03
2.248594e+03,2.612534e+03
2.251487e+03,2.627595e+03
2.254379e+03,2.629068e+03
2.257272e+03,2.605394e+03
2.260165e+03,2.605572e+03
2.263058e+03,2.583316e+03
2.265950e+03,2.583463e+03
2.268843e+03,2.566327e+03
2.271736e+03,2.551589e+03
2.274628e+03,2.565505e+03
2.277521e+03,2.548228e+03
2.280414e+03,2.538101e+03
2.283306e+03,2.519400e+03
2.286199e+03,2.528058e+03
2.289092e+03,2.509155e+03
2.291985e+03,2.503022e+03
2.294877e+03,2.520000e+03
2.297770e+03,2.500127e+03
2.300663e+03,2.479500e+03
2.303555e+03,2.471212e+03
2.306448e+03,2.461563e+03
2.309341e+03,2.472715e+03
2.312233e+03,2.458856e+03
2.315126e+03,2.442899e+03
2.318019e+03,2.434527e+03
2.320912e+03,2.439188e+03
2.323804e+03,2.418869e+03
2.326697e+03,2.417507e+03
2.329590e+03,2.429074e+03
2.332482e+03,2.386612e+03
2.335375e+03,2.386966e+03
2.338268e+03,2.390856e+03
2.341160e+03,2.373112e+03
2.344053e+03,2.384248e+03
2.346946e+03,2.367329e+03
2.349839e+03,2.347661e+03
2.352731e+03,2.352319e+03
2.355624e+03,2.343281e+03
2.358517e+03,2.349950e+03
2.361409e+03,2.331313e+03
2.364302e+03,2.321234e+03
2.367195e+03,2.312445e+03
2.370087e+03,2.315445e+03
2.372980e+03,2.304328e+03
2.375873e+03,2.289123e+03
2.378766e+03,2.295254e+03
2.381658e+03,2.274876e+03
2.384551e+03,2.256400e+03
2.387444e+03,2.255520e+03
2.390336e+03,2.262177e+03
2.393229e+03,2.248037e+03
2.396122e+03,2.246941e+03
2.399014e+03,2.234742e+03
2.401907e+03,2.231773e+03
2.404800e+03,2.231094e+03
2.407693e+03,2.205683e+03
2.410585e+03,2.235153e+03
2.413478e+03,2.214276e+03
2.416371e+03,2.189472e+03
2.419263e+03,2.208694e+03
2.422156e+03,2.204983e+03
2.425049e+03,2.189667e+03
2.427941e+03,2.164924e+03
2.430834e+03,2.186703e+03
2.433727e+03,2.189124e+03
2.436620e+03,2.162313e+03
2.439512e+03,2.155844e+03
2.442405e+03,2.127067e+03
2.445298e+03,2.140718e+03
2.448190e+03,2.131138e+03
2.451083e+03,2.121116e+03
2.453976e+03,2.123010e+03
2.456868e+03,2.093132e+03
2.459761e+03,2.110073e+03
2.462654e+03,2.102762e+03
2.465547e+03,2.102375e+03
2.468439e+03,2.108153e+03
2.471332e+03,2.073509e+03
2.474225e+03,2.070508e+03
2.477117e+03,2.063779e+03
2.480010e+03,2.070681e+03
2.482903e+03,2.045240e+03
2.485795e+03,2.064408e+03
2.488688e+03,2.045332e+03
2.491581e+03,2.047140e+03
2.494474e+03,2.040314e+03
2.497366e+03,2.051021e+03
2.500259e+03,2.014453e+03
2.503152e+03,2.006298e+03
2.506044e+03,2.004690e+03
2.508937e+03,2.016862e+03
2.511830e+03,1.996539e+03
2.514722e+03,1.978581e+03
2.517615e+03,2.010317e+03
2.520508e+03,2.001815e+03
2.523401e+03,1.968623e+03
2.526293e+03,1.983352e+03
2.529186e+03,1.940802e+03
2.532079e+03,1.958211e+03
2.534971e+03,1.957132e+03
2.537864e+03,1.937429e+03
2.540757e+03,1.938294e+03
2.543649e+03,1.928507e+03
2.546542e+03,1.927111e+03
2.549435e+03,1.910221e+03
2.552328e+03,1.937684e+03
2.555220e+03,1.929221e+03
2.558113e+03,1.905725e+03
2.561006e+03,1.921817e+03
2.563898e+03,1.915367e+03
2.566791e+03,1.907417e+03
2.569684e+03,1.875662e+03
2.572576e+03,1.887300e+03
2.575469e+03,1.892271e+03
2.578362e+03,1.852952e+03
2.581255e+03,1.874860e+03
2.584147e+03,1.866462e+03
2.587040e+03,1.849828e+03
2.589933e+03,1.848944e+03
2.592825e+03,1.831064e+03
2.595718e+03,1.851564e+03
2.598611e+03,1.829188e+03
2.601503e+03,1.817506e+03
2.604396e+03,1.814811e+03
2.607289e+03,1.801909e+03
2.610182e+03,1.809642e+03
2.613074e+03,1.808159e+03
2.615967e+03,1.799508e+03
2.618860e+03,1.811367e+03
2.621752e+03,1.781835e+03
2.624645e+03,1.786943e+03
2.627538e+03,1.775974e+03
2.630430e+03,1.777651e+03
2.633323e+03,1.771732e+03
2.636216e+03,1.777480e+03
2.639109e+03,1.751907e+03
2.642001e+03,1.752481e+03
2.644894e+03,1.731468e+03
2.647787e+03,1.768151e+03
2.650679e+03,1.754493e+03
2.653572e+03,1.747538e+03
2.656465e+03,1.737552e+03
2.659357e+03,1.724998e+03
2.662250e+03,1.725212e+03
2.665143e+03,1.739607e+03
2.668036e+03,1.729623e+03
2.670928e+03,1.730157e+03
2.673821e+03,1.709782e+03
2.676714e+03,1.697110e+03
2.679606e+03,1.682796e+03
2.682499e+03,1.713634e+03
2.685392e+03,1.690484e+03
2.688284e+03,1.679953e+03
2.691177e+03,1.681562e+03
2.694070e+03,1.671506e+03
2.696963e+03,1.666535e+03
2.699855e+03,1.682013e+03
2.702748e+03,1.656487e+03
2.705641e+03,1.657803e+03
2.708533e+03,1.652114e+03
2.711426e+03,1.648939e+03
2.714319e+03,1.649468e+03
2.717211e+03,1.637463e+03
2.720104e+03,1.645140e+03
2.722997e+03,1.610750e+03
2.725890e+03,1.618670e+03
2.728782e+03,1.631421e+03
2.731675e+03,1.631530e+03
2.734568e+03,1.636532e+03
2.737460e+03,1.608368e+03
2.740353e+03,1.636401e+03
2.743246e+03,1.609689e+03
2.746138e+03,1.606003e+03
2.749031e+03,1.588237e+03
2.751924e+03,1.594658e+03
2.754817e+03,1.580378e+03
2.757709e+03,1.576073e+03
2.760602e+03,1.585544e+03
2.763495e+03,1.575439e+03
2.766387e+03,1.576604e+03
2.769280e+03,1.567501e+03
2.772173e+03,1.553863e+03
2.775065e+03,1.542327e+03
2.777958e+03,1.570706e+03
2.780851e+03,1.548791e+03
2.783744e+03,1.530574e+03
2.786636e+03,1.534717e+03
2.789529e+03,1.538727e+03
2.792422e+03,1.553512e+03
2.795314e+03,1.525581e+03
2.798207e+03,1.538875e+03
2.801100e+03,1.518812e+03
2.803992e+03,1.505469e+03
2.806885e+03,1.519027e+03
2.809778e+03,1.534578e+03
2.812671e+03,1.494065e+03
2.815563e+03,1.500054e+03
2.818456e+03,1.506639e+03
2.821349e+03,1.506401e+03
2.824241e+03,1.490980e+03
2.827134e+03,1.477848e+03
2.830027e+03,1.508611e+03
2.832919e+03,1.507012e+03
2.835812e+03,1.496929e+03
2.838705e+03,1.485694e+03
2.841598e+03,1.470256e+03
2.844490e+03,1.485872e+03
2.847383e+03,1.478256e+03
2.850276e+03,1.468559e+03
2.853168e+03,1.482880e+03
2.856061e+03,1.486589e+03
2.858954e+03,1.464496e+03
2.861846e+03,1.446040e+03
2.864739e+03,1.447552e+03
2.867632e+03,1.478364e+03
2.870525e+03,1.442939e+03
2.873417e+03,1.475143e+03
2.876310e+03,1.462995e+03
2.879203e+03,1.439310e+03
2.882095e+03,1.465966e+03
2.884988e+03,1.457006e+03
2.887881e+03,1.431617e+03
2.890773e+03,1.458125e+03
2.893666e+03,1.442668e+03
2.896559e+03,1.450368e+03
2.899452e+03,1.432338e+03
2.902344e+03,1.432063e+03
2.905237e+03,1.436913e+03
2.908130e+03,1.404428e+03
2.911022e+03,1.427475e+03
2.913915e+03,1.402056e+03
2.916808e+03,1.413108e+03
2.919700e+03,1.399691e+03
2.922593e+03,1.385830e+03
2.925486e+03,1.427577e+03
2.928379e+03,1.401356e+03
2.931271e+03,1.388222e+03
2.934164e+03,1.402056e+03
2.937057e+03,1.396071e+03
2.939949e+03,1.368927e+03
2.942842e+03,1.389681e+03
2.945735e+03,1.392195e+03
2.948627e+03,1.349827e+03
2.951520e+03,1.405221e+03
2.954413e+03,1.391815e+03
2.957306e+03,1.374833e+03
2.960198e+03,1.374241e+03
2.963091e+03,1.380463e+03
2.965984e+03,1.351912e+03
2.968876e+03,1.345391e+03
2.971769e+03,1.300182e+03
2.974662e+03,1.339223e+03
2.977554e+03,1.329667e+03
2.980447e+03,1.349995e+03
2.983340e+03,1.337305e+03
2.986233e+03,1.328311e+03
2.989125e+03,1.334014e+03
2.992018e+03,1.340796e+03
2.994911e+03,1.297111e+03
2.997803e+03,1.321045e+03
3.000696e+03,1.297264e+03
3.003589e+03,1.294195e+03
3.006481e+03,1.357555e+03
3.009374e+03,1.320059e+03
3.012267e+03,1.283480e+03
3.015160e+03,1.298182e+03
3.018052e+03,1.307431e+03
3.020945e+03,1.290353e+03
3.023838e+03,1.310699e+03
3.026730e+03,1.251848e+03
3.029623e+03,1.287183e+03
3.032516e+03,1.253791e+03
3.035408e+03,1.294421e+03
3.038301e+03,1.268476e+03
3.041194e+03,1.304828e+03
3.044087e+03,1.295796e+03
3.046979e+03,1.309068e+03
3.049872e+03,1.298825e+03
3.052765e+03,1.274599e+03
3.055657e+03,1.258153e+03
3.058550e+03,1.286529e+03
3.061443e+03,1.265434e+03
3.064335e+03,1.269344e+03
3.067228e+03,1.263679e+03
3.070121e+03,1.266157e+03
3.073014e+03,1.274460e+03
3.075906e+03,1.257193e+03
3.078799e+03,1.239088e+03
3.081692e+03,1.263889e+03
3.084584e+03,1.262538e+03
3.087477e+03,1.292487e+03
3.090370e+03,1.288958e+03
3.093262e+03,1.300653e+03
3.096155e+03,1.231858e+03
3.099048e+03,1.251896e+03
3.101941e+03,1.291831e+03
3.104833e+03,1.201447e+03
3.107726e+03,1.228430e+03
3.110619e+03,1.270894e+03
3.113511e+03,1.241026e+03
3.116404e+03,1.267568e+03
3.119297e+03,1.243527e+03
3.122189e+03,1.263033e+03
3.125082e+03,1.251684e+03
3.127975e+03,1.250902e+03
3.130868e+03,1.267187e+03
3.133760e+03,1.259056e+03
3.136653e+03,1.278273e+03
3.139546e+03,1.289312e+03
3.142438e+03,1.213514e+03
3.145331e+03,1.250910e+03
3.148224e+03,1.257729e+03
3.151116e+03,1.261005e+03
3.154009e+03,1.211628e+03
3.156902e+03,1.203545e+03
3.159795e+03,1.245194e+03
3.162687e+03,1.295878e+03
3.165580e+03,1.232387e+03
3.168473e+03,1.264416e+03
3.171365e+03,1.247915e+03
3.174258e+03,1.253173e+03
3.177151e+03,1.218205e+03
3.180043e+03,1.240514e+03
3.182936e+03,1.248630e+03
3.185829e+03,1.252548e+03
3.188722e+03,1.191805e+03
3.191614e+03,1.225012e+03
3.194507e+03,1.208986e+03
3.197400e+03,1.283899e+03
3.200292e+03,1.299949e+03
3.203185e+03,0.000000e+00
3.206078e+03,0.000000e+00
3.208970e+03,0.000000e+00
3.211863e+03,0.000000e+00
3.214756e+03,0.000000e+00
3.217649e+03,0.000000e+00
3.220541e+03,0.000000e+00
3.223434e+03,0.000000e+00
3.226327e+03,0.000000e+00
3.229219e+03,0.000000e+00
3.232112e+03,0.000000e+00
3.235005e+03,0.000000e+00
3.237897e+03,0.000000e+00
3.240790e+03,0.000000e+00
3.243683e+03,0.000000e+00
3.246576e+03,0.000000e+00
3.249468e+03,0.000000e+00
3.252361e+03,0.000000e+00
3.255254e+03,0.000000e+00
3.258146e+03,0.000000e+00
3.261039e+03,0.000000e+00
3.263932e+03,0.000000e+00
3.266824e+03,0.000000e+00
3.269717e+03,0.000000e+00
3.272610e+03,0.000000e+00
3.275503e+03,0.000000e+00
3.278395e+03,0.000000e+00
3.281288e+03,0.000000e+00
3.284181e+03,0.000000e+00
3.287073e+03,0.000000e+00
3.289966e+03,0.000000e+00
3.292859e+03,0.000000e+00
3.295751e+03,0.000000e+00
3.298644e+03,0.000000e+00
3.301537e+03,0.000000e+00
3.304430e+03,0.000000e+00
3.307322e+03,0.000000e+00
3.310215e+03,0.000000e+00
3.313108e+03,0.000000e+00
3.316000e+03,0.000000e+00
3.318893e+03,0.000000e+00
3.321786e+03,0.000000e+00
3.324678e+03,0.000000e+00
3.327571e+03,0.000000e+00
3.330464e+03,0.000000e+00
3.333357e+03,0.000000e+00
3.336249e+03,0.000000e+00
3.339142e+03,0.000000e+00
3.342035e+03,0.000000e+00
3.344927e+03,0.000000e+00
3.347820e+03,0.000000e+00
3.350713e+03,0.000000e+00
3.353605e+03,0.000000e+00
3.356498e+03,0.000000e+00
3.359391e+03,0.000000e+00
3.362284e+03,0.000000e+00
3.365176e+03,0.000000e+00
3.368069e+03,0.000000e+00
3.370962e+03,0.000000e+00
3.373854e+03,0.000000e+00
3.376747e+03,0.000000e+00
3.379640e+03,0.000000e+00
3.382532e+03,0.000000e+00
3.385425e+03,0.000000e+00
3.388318e+03,0.000000e+00
3.391211e+03,0.000000e+00
3.394103e+03,0.000000e+00
3.396996e+03,0.000000e+00
3.399889e+03,0.000000e+00
3.402781e+03,0.000000e+00
3.405674e+03,0.000000e+00
3.408567e+03,0.000000e+00
3.411459e+03,0.000000e+00
3.414352e+03,0.000000e+00
3.417245e+03,0.000000e+00
3.420138e+03,0.000000e+00
3.423030e+03,0.000000e+00
3.425923e+03,0.000000e+00
3.428816e+03,0.000000e+00
3.431708e+03,0.000000e+00
3.434601e+03,0.000000e+00
3.437494e+03,0.000000e+00
3.440386e+03,0.000000e+00
3.443279e+03,0.000000e+00
3.446172e+03,0.000000e+00
3.449065e+03,0.000000e+00
3.451957e+03,0.000000e+00
3.454850e+03,0.000000e+00
3.457743e+03,0.000000e+00
3.460635e+03,0.000000e+00
3.463528e+03,0.000000e+00
3.466421e+03,0.000000e+00
3.469313e+03,0.000000e+00
3.472206e+03,0.000000e+00
3.475099e+03,0.000000e+00
3.477992e+03,0.000000e+00
3.480884e+03,0.000000e+00
3.483777e+03,0.000000e+00
3.486670e+03,0.000000e+00
3.489563e+03,0.000000e+00
3.492455e+03,0.000000e+00
3.495348e+03,0.000000e+00
3.498240e+03,0.000000e+00
3.500169e+03,0.000000e+00