File: RAMAN_data/23052023_r3/blue fibre11.CSV
9.931763e+01,0.000000e+00
1.022103e+02,0.000000e+00
1.051030e+02,0.000000e+00
1.079957e+02,0.000000e+00
1.108884e+02,0.000000e+00
1.137811e+02,0.000000e+00
1.166738e+02,0.000000e+00
1.195665e+02,0.000000e+00
1.224592e+02,0.000000e+00
1.253519e+02,0.000000e+00
1.282446e+02,0.000000e+00
1.311373e+02,0.000000e+00
1.340300e+02,0.000000e+00
1.369227e+02,0.000000e+00
1.398154e+02,0.000000e+00
1.427081e+02,0.000000e+00
1.456008e+02,0.000000e+00
1.484935e+02,0.000000e+00
1.513862e+02,0.000000e+00
1.542789e+02,0.000000e+00
1.571716e+02,0.000000e+00
1.600643e+02,0.000000e+00
1.629570e+02,0.000000e+00
1.658497e+02,0.000000e+00
1.687424e+02,0.000000e+00
1.716351e+02,0.000000e+00
1.745278e+02,0.000000e+00
1.774205e+02,0.000000e+00
1.803132e+02,0.000000e+00
1.832059e+02,0.000000e+00
1.860986e+02,0.000000e+00
1.889913e+02,0.000000e+00
1.918840e+02,0.000000e+00
1.947767e+02,0.000000e+00
1.976694e+02,0.000000e+00
2.005621e+02,7.028762e+03
2.034548e+02,7.050767e+03
2.063475e+02,7.094598e+03
2.092402e+02,7.107470e+03
2.121329e+02,7.117963e+03
2.150256e+02,7.135764e+03
2.179183e+02,7.140589e+03
2.208110e+02,7.162391e+03
2.237037e+02,7.170928e+03
2.265964e+02,7.168354e+03
2.294892e+02,7.194464e+03
2.323819e+02,7.248977e+03
2.352746e+02,7.263697e+03
2.381673e+02,7.291477e+03
2.410600e+02,7.270967e+03
2.439527e+02,7.314122e+03
2.468454e+02,7.325087e+03
2.497381e+02,7.347524e+03
2.526308e+02,7.358552e+03
2.555235e+02,7.355963e+03
2.584161e+02,7.353826e+03
2.613088e+02,7.413656e+03
2.642015e+02,7.459090e+03
2.670942e+02,7.465601e+03
2.699869e+02,7.508339e+03
2.728796e+02,7.517777e+03
2.757723e+02,7.546739e+03
2.786650e+02,7.585900e+03
2.815577e+02,7.573694e+03
2.844504e+02,7.557998e+03
2.873431e+02,7.563146e+03
2.902358e+02,7.558500e+03
2.931285e+02,7.552081e+03
2.960212e+02,7.578683e+03
2.989139e+02,7.587557e+03
3.018066e+02,7.623603e+03
3.046993e+02,7.627139e+03
3.075920e+02,7.613436e+03
3.104847e+02,7.632897e+03
3.133774e+02,7.613894e+03
3.162701e+02,7.678708e+03
3.191628e+02,7.655274e+03
3.220555e+02,7.649516e+03
3.249482e+02,7.691423e+03
3.278409e+02,7.695557e+03
3.307336e+02,7.698937e+03
3.336263e+02,7.701642e+03
3.365190e+02,7.693684e+03
3.394117e+02,7.726079e+03
3.423044e+02,7.731308e+03
3.451971e+02,7.736835e+03
3.480898e+02,7.735361e+03
3.509825e+02,7.744772e+03
3.538752e+02,7.748974e+03
3.567680e+02,7.752022e+03
3.596607e+02,7.779712e+03
3.625534e+02,7.799618e+03
3.654461e+02,7.775075e+03
3.683388e+02,7.778617e+03
3.712315e+02,7.812676e+03
3.741242e+02,7.821777e+03
3.770169e+02,7.839307e+03
3.799096e+02,7.819172e+03
3.828023e+02,7.839937e+03
3.856950e+02,7.829469e+03
3.885877e+02,7.824926e+03
3.914804e+02,7.855078e+03
3.943731e+02,7.846034e+03
3.972658e+02,7.856474e+03
4.001585e+02,7.829010e+03
4.030512e+02,7.873481e+03
4.059439e+02,7.876005e+03
4.088366e+02,7.871318e+03
4.117293e+02,7.861696e+03
4.146220e+02,7.880502e+03
4.175147e+02,7.894526e+03
4.204074e+02,7.871985e+03
4.233001e+02,7.894740e+03
4.261928e+02,7.897186e+03
4.290855e+02,7.862702e+03
4.319782e+02,7.897554e+03
4.348709e+02,7.880814e+03
4.377636e+02,7.884387e+03
4.406563e+02,7.873902e+03
4.435490e+02,7.896198e+03
4.464417e+02,7.886453e+03
4.493344e+02,7.923839e+03
4.522271e+02,7.907106e+03
4.551198e+02,7.920471e+03
4.580125e+02,7.901791e+03
4.609052e+02,7.903215e+03
4.637979e+02,7.890529e+03
4.666906e+02,7.894241e+03
4.695833e+02,7.912976e+03
4.724760e+02,7.902812e+03
4.753687e+02,7.905978e+03
4.782614e+02,7.885900e+03
4.811541e+02,7.876296e+03
4.840468e+02,7.876752e+03
4.869395e+02,7.880183e+03
4.898322e+02,7.891685e+03
4.927249e+02,7.903442e+03
4.956176e+02,7.895047e+03
4.985103e+02,7.907096e+03
5.014030e+02,7.894282e+03
5.042957e+02,7.888147e+03
5.071884e+02,7.902590e+03
5.100811e+02,7.887294e+03
5.129738e+02,7.905698e+03
5.158665e+02,7.918659e+03
5.187592e+02,7.914609e+03
5.216519e+02,7.878625e+03
5.245446e+02,7.888666e+03
5.274373e+02,7.902496e+03
5.303300e+02,7.900257e+03
5.332227e+02,7.909031e+03
5.361154e+02,7.906281e+03
5.390081e+02,7.914799e+03
5.419008e+02,7.963961e+03
5.447935e+02,7.967237e+03
5.476862e+02,7.923127e+03
5.505789e+02,7.947483e+03
5.534716e+02,7.955736e+03
5.563643e+02,7.970569e+03
5.592570e+02,7.982055e+03
5.621497e+02,7.927285e+03
5.650424e+02,7.919969e+03
5.679351e+02,7.854259e+03
5.708278e+02,7.824190e+03
5.737205e+02,7.846585e+03
5.766132e+02,7.862090e+03
5.795059e+02,7.863209e+03
5.823986e+02,7.847086e+03
5.852913e+02,7.806007e+03
5.881840e+02,7.833830e+03
5.910767e+02,7.838553e+03
5.939694e+02,7.830608e+03
5.968621e+02,7.848205e+03
5.997548e+02,7.843562e+03
6.026475e+02,7.842903e+03
6.055402e+02,7.833914e+03
6.084329e+02,7.887580e+03
6.113256e+02,7.872794e+03
6.142183e+02,7.807979e+03
6.171110e+02,7.774448e+03
6.200037e+02,7.753973e+03
6.228964e+02,7.778128e+03
6.257891e+02,7.778758e+03
6.286818e+02,7.771242e+03
6.315745e+02,7.766586e+03
6.344672e+02,7.753325e+03
6.373599e+02,7.713063e+03
6.402526e+02,7.710822e+03
6.431453e+02,7.717370e+03
6.460380e+02,7.706565e+03
6.489307e+02,7.721048e+03
6.518234e+02,7.689970e+03
6.547161e+02,7.672939e+03
6.576088e+02,7.707275e+03
6.605015e+02,7.639993e+03
6.633942e+02,7.658623e+03
6.662869e+02,7.662743e+03
6.691796e+02,7.682769e+03
6.720723e+02,7.651505e+03
6.749650e+02,7.613310e+03
6.778577e+02,7.617219e+03
6.807504e+02,7.586515e+03
6.836431e+02,7.606031e+03
6.865358e+02,7.612003e+03
6.894285e+02,7.592725e+03
6.923212e+02,7.556948e+03
6.952139e+02,7.585485e+03
6.981066e+02,7.568314e+03
7.009993e+02,7.554116e+03
7.038920e+02,7.515599e+03
7.067847e+02,7.497937e+03
7.096774e+02,7.482592e+03
7.125701e+02,7.513877e+03
7.154628e+02,7.477126e+03
7.183555e+02,7.496830e+03
7.212482e+02,7.480177e+03
7.241409e+02,7.442403e+03
7.270336e+02,7.439873e+03
7.299263e+02,7.431512e+03
7.328190e+02,7.423040e+03
7.357117e+02,7.426666e+03
7.386044e+02,7.393339e+03
7.414971e+02,7.375114e+03
7.443898e+02,7.381774e+03
7.472825e+02,7.376046e+03
7.501752e+02,7.366862e+03
7.530679e+02,7.380608e+03
7.559606e+02,7.358987e+03
7.588533e+02,7.348799e+03
7.617460e+02,7.332758e+03
7.646387e+02,7.320234e+03
7.675314e+02,7.326917e+03
7.704241e+02,7.302367e+03
7.733168e+02,7.270597e+03
7.762095e+02,7.323354e+03
7.791022e+02,7.291023e+03
7.819949e+02,7.285474e+03
7.848876e+02,7.274668e+03
7.877803e+02,7.274033e+03
7.906730e+02,7.245479e+03
7.935657e+02,7.233041e+03
7.964584e+02,7.199536e+03
7.993511e+02,7.191214e+03
8.022438e+02,7.175745e+03
8.051365e+02,7.178858e+03
8.080292e+02,7.182354e+03
8.109219e+02,7.148157e+03
8.138146e+02,7.120553e+03
8.167073e+02,7.105025e+03
8.196000e+02,7.093679e+03
8.224927e+02,7.089249e+03
8.253854e+02,7.112642e+03
8.282781e+02,7.073665e+03
8.311708e+02,7.074485e+03
8.340635e+02,7.061841e+03
8.369562e+02,7.070519e+03
8.398489e+02,7.044290e+03
8.427416e+02,7.029517e+03
8.456343e+02,7.011809e+03
8.485270e+02,7.015422e+03
8.514197e+02,6.989217e+03
8.543124e+02,6.992716e+03
8.572051e+02,6.967265e+03
8.600978e+02,6.948083e+03
8.629905e+02,6.955214e+03
8.658832e+02,6.914989e+03
8.687759e+02,6.889576e+03
8.716686e+02,6.902480e+03
8.745613e+02,6.888808e+03
8.774540e+02,6.881977e+03
8.803467e+02,6.864104e+03
8.832394e+02,6.881519e+03
8.861321e+02,6.865700e+03
8.890248e+02,6.835221e+03
8.919175e+02,6.798729e+03
8.948102e+02,6.801860e+03
8.977029e+02,6.779254e+03
9.005956e+02,6.766619e+03
9.034883e+02,6.765399e+03
9.063810e+02,6.766707e+03
9.092737e+02,6.742745e+03
9.121664e+02,6.697811e+03
9.150591e+02,6.661953e+03
9.179518e+02,6.701073e+03
9.208445e+02,6.679073e+03
9.237372e+02,6.641550e+03
9.266299e+02,6.620950e+03
9.295226e+02,6.621994e+03
9.324153e+02,6.631854e+03
9.353080e+02,6.590158e+03
9.382007e+02,6.577064e+03
9.410934e+02,6.578490e+03
9.439861e+02,6.576680e+03
9.468788e+02,6.563367e+03
9.497715e+02,6.563646e+03
9.526642e+02,6.537009e+03
9.555569e+02,6.493982e+03
9.584496e+02,6.488039e+03
9.613423e+02,6.484765e+03
9.642350e+02,6.456869e+03
9.671277e+02,6.443068e+03
9.700204e+02,6.439982e+03
9.729131e+02,6.420896e+03
9.758058e+02,6.442824e+03
9.786985e+02,6.396551e+03
9.815912e+02,6.385995e+03
9.844839e+02,6.326279e+03
9.873766e+02,6.328604e+03
9.902693e+02,6.336217e+03
9.931620e+02,6.333366e+03
9.960547e+02,6.340895e+03
9.989474e+02,6.301887e+03
1.001840e+03,6.285270e+03
1.004733e+03,6.277886e+03
1.007626e+03,6.267968e+03
1.010518e+03,6.280771e+03
1.013411e+03,6.255498e+03
1.016304e+03,6.218835e+03
1.019196e+03,6.222603e+03
1.022089e+03,6.211864e+03
1.024982e+03,6.210487e+03
1.027875e+03,6.177073e+03
1.030767e+03,6.158771e+03
1.033660e+03,6.152100e+03
1.036552e+03,6.146876e+03
1.039445e+03,6.128968e+03
1.042338e+03,6.101333e+03
1.045231e+03,6.099060e+03
1.048123e+03,6.126462e+03
1.051016e+03,6.088908e+03
1.053909e+03,6.083533e+03
1.056802e+03,6.079747e+03
1.059694e+03,6.029690e+03
1.062587e+03,6.022274e+03
1.065479e+03,6.017297e+03
1.068372e+03,6.022497e+03
1.071265e+03,6.052649e+03
1.074158e+03,6.055886e+03
1.077050e+03,5.994940e+03
1.079943e+03,5.988854e+03
1.082836e+03,6.003808e+03
1.085729e+03,5.987534e+03
1.088621e+03,5.970842e+03
1.091514e+03,5.942206e+03
1.094406e+03,5.918083e+03
1.097299e+03,5.908718e+03
1.100192e+03,5.887669e+03
1.103085e+03,5.882606e+03
1.105977e+03,5.873102e+03
1.108870e+03,5.862603e+03
1.111763e+03,5.852049e+03
1.114656e+03,5.840544e+03
1.117548e+03,5.848241e+03
1.120441e+03,5.825639e+03
1.123334e+03,5.821709e+03
1.126226e+03,5.786736e+03
1.129119e+03,5.758123e+03
1.132012e+03,5.750870e+03
1.134904e+03,5.741999e+03
1.137797e+03,5.730404e+03
1.140690e+03,5.712073e+03
1.143583e+03,5.711939e+03
1.146475e+03,5.713894e+03
1.149368e+03,5.693379e+03
1.152261e+03,5.690455e+03
1.155153e+03,5.651936e+03
1.158046e+03,5.635173e+03
1.160939e+03,5.620269e+03
1.163831e+03,5.625284e+03
1.166724e+03,5.598808e+03
1.169617e+03,5.587197e+03
1.172510e+03,5.567016e+03
1.175402e+03,5.564875e+03
1.178295e+03,5.576002e+03
1.181188e+03,5.558170e+03
1.184080e+03,5.526511e+03
1.186973e+03,5.503557e+03
1.189866e+03,5.505307e+03
1.192758e+03,5.488442e+03
1.195651e+03,5.501813e+03
1.198544e+03,5.497835e+03
1.201437e+03,5.456286e+03
1.204329e+03,5.458896e+03
1.207222e+03,5.440704e+03
1.210115e+03,5.434862e+03
1.213007e+03,5.424248e+03
1.215900e+03,5.420269e+03
1.218793e+03,5.427173e+03
1.221685e+03,5.378030e+03
1.224578e+03,5.399618e+03
1.227471e+03,5.386049e+03
1.230364e+03,5.369239e+03
1.233256e+03,5.325372e+03
1.236149e+03,5.315461e+03
1.239042e+03,5.309798e+03
1.241934e+03,5.319125e+03
1.244827e+03,5.301290e+03
1.247720e+03,5.288986e+03
1.250612e+03,5.282909e+03
1.253505e+03,5.254870e+03
1.256398e+03,5.236516e+03
1.259291e+03,5.248327e+03
1.262183e+03,5.231298e+03
1.265076e+03,5.203671e+03
1.267969e+03,5.187727e+03
1.270861e+03,5.182079e+03
1.273754e+03,5.192217e+03
1.276647e+03,5.172174e+03
1.279539e+03,5.166801e+03
1.282432e+03,5.120690e+03
1.285325e+03,5.145189e+03
1.288218e+03,5.140727e+03
1.291110e+03,5.119204e+03
1.294003e+03,5.098935e+03
1.296896e+03,5.073552e+03
1.299788e+03,5.094415e+03
1.302681e+03,5.081809e+03
1.305574e+03,5.076937e+03
1.308466e+03,5.077169e+03
1.311359e+03,5.063235e+03
1.314252e+03,5.038814e+03
1.317145e+03,5.024416e+03
1.320037e+03,5.034057e+03
1.322930e+03,5.011911e+03
1.325823e+03,4.979554e+03
1.328715e+03,4.972706e+03
1.331608e+03,4.982039e+03
1.334501e+03,4.980278e+03
1.337393e+03,4.978349e+03
1.340286e+03,4.938174e+03
1.343179e+03,4.915876e+03
1.346072e+03,4.922333e+03
1.348964e+03,4.925664e+03
1.351857e+03,4.911919e+03
1.354750e+03,4.923765e+03
1.357642e+03,4.894061e+03
1.360535e+03,4.872709e+03
1.363428e+03,4.877896e+03
1.366320e+03,4.894982e+03
1.369213e+03,4.863555e+03
1.372106e+03,4.837154e+03
1.374999e+03,4.817490e+03
1.377891e+03,4.811554e+03
1.380784e+03,4.808804e+03
1.383677e+03,4.797933e+03
1.386569e+03,4.778369e+03
1.389462e+03,4.789911e+03
1.392355e+03,4.744438e+03
1.395247e+03,4.751062e+03
1.398140e+03,4.761111e+03
1.401033e+03,4.745307e+03
1.403926e+03,4.730327e+03
1.406818e+03,4.688737e+03
1.409711e+03,4.700407e+03
1.412604e+03,4.705841e+03
1.415496e+03,4.698704e+03
1.418389e+03,4.673360e+03
1.421282e+03,4.662314e+03
1.424174e+03,4.635762e+03
1.427067e+03,4.651031e+03
1.429960e+03,4.645343e+03
1.432853e+03,4.613597e+03
1.435745e+03,4.637823e+03
1.438638e+03,4.617521e+03
1.441531e+03,4.614303e+03
1.444423e+03,4.602726e+03
1.447316e+03,4.602338e+03
1.450209e+03,4.586550e+03
1.453101e+03,4.582946e+03
1.455994e+03,4.583220e+03
1.458887e+03,4.560364e+03
1.461780e+03,4.578929e+03
1.464672e+03,4.530454e+03
1.467565e+03,4.519633e+03
1.470458e+03,4.506431e+03
1.473350e+03,4.520822e+03
1.476243e+03,4.519504e+03
1.479136e+03,4.507460e+03
1.482028e+03,4.465721e+03
1.484921e+03,4.468803e+03
1.487814e+03,4.456280e+03
1.490707e+03,4.464268e+03
1.493599e+03,4.443809e+03
1.496492e+03,4.420298e+03
1.499385e+03,4.420850e+03
1.502277e+03,4.429759e+03
1.505170e+03,4.424084e+03
1.508063e+03,4.412913e+03
1.510955e+03,4.398806e+03
1.513848e+03,4.387194e+03
1.516741e+03,4.379722e+03
1.519634e+03,4.370104e+03
1.522526e+03,4.354342e+03
1.525419e+03,4.335735e+03
1.528312e+03,4.337250e+03
1.531204e+03,4.311479e+03
1.534097e+03,4.320902e+03
1.536990e+03,4.313110e+03
1.539882e+03,4.277051e+03
1.542775e+03,4.293683e+03
1.545668e+03,4.284971e+03
1.548561e+03,4.278142e+03
1.551453e+03,4.262188e+03
1.554346e+03,4.296542e+03
1.557239e+03,4.285622e+03
1.560131e+03,4.266621e+03
1.563024e+03,4.307844e+03
1.565917e+03,4.331822e+03
1.568809e+03,4.360389e+03
1.571702e+03,4.352354e+03
1.574595e+03,4.304684e+03
1.577488e+03,4.288945e+03
1.580380e+03,4.260647e+03
1.583273e+03,4.263975e+03
1.586166e+03,4.212719e+03
1.589058e+03,4.192821e+03
1.591951e+03,4.184179e+03
1.594844e+03,4.145491e+03
1.597736e+03,4.167848e+03
1.600629e+03,4.156372e+03
1.603522e+03,4.115398e+03
1.606415e+03,4.098860e+03
1.609307e+03,4.095562e+03
1.612200e+03,4.085523e+03
1.615093e+03,4.084629e+03
1.617985e+03,4.068588e+03
1.620878e+03,4.081637e+03
1.623771e+03,4.072873e+03
1.626663e+03,4.061595e+03
1.629556e+03,4.061882e+03
1.632449e+03,4.053909e+03
1.635342e+03,4.040222e+03
1.638234e+03,4.018703e+03
1.641127e+03,3.985359e+03
1.644020e+03,3.990422e+03
1.646912e+03,4.005569e+03
1.649805e+03,3.968099e+03
1.652698e+03,3.961800e+03
1.655590e+03,3.942123e+03
1.658483e+03,3.930504e+03
1.661376e+03,3.964001e+03
1.664269e+03,3.946781e+03
1.667161e+03,3.929877e+03
1.670054e+03,3.919179e+03
1.672947e+03,3.911349e+03
1.675839e+03,3.917579e+03
1.678732e+03,3.905789e+03
1.681625e+03,3.873858e+03
1.684517e+03,3.874824e+03
1.687410e+03,3.872590e+03
1.690303e+03,3.871998e+03
1.693196e+03,3.840106e+03
1.696088e+03,3.851931e+03
1.698981e+03,3.827109e+03
1.701874e+03,3.840236e+03
1.704766e+03,3.821062e+03
1.707659e+03,3.832185e+03
1.710552e+03,3.818793e+03
1.713444e+03,3.796291e+03
1.716337e+03,3.793813e+03
1.719230e+03,3.769775e+03
1.722123e+03,3.772838e+03
1.725015e+03,3.749383e+03
1.727908e+03,3.739356e+03
1.730801e+03,3.747164e+03
1.733693e+03,3.716918e+03
1.736586e+03,3.737286e+03
1.739479e+03,3.705365e+03
1.742371e+03,3.707762e+03
1.745264e+03,3.683376e+03
1.748157e+03,3.684386e+03
1.751050e+03,3.673471e+03
1.753942e+03,3.671036e+03
1.756835e+03,3.671238e+03
1.759728e+03,3.659037e+03
1.762620e+03,3.658031e+03
1.765513e+03,3.647994e+03
1.768406e+03,3.653941e+03
1.771298e+03,3.634499e+03
1.774191e+03,3.631431e+03
1.777084e+03,3.618106e+03
1.779977e+03,3.583788e+03
1.782869e+03,3.593376e+03
1.785762e+03,3.596543e+03
1.788655e+03,3.567574e+03
1.791547e+03,3.564933e+03
1.794440e+03,3.534583e+03
1.797333e+03,3.551050e+03
1.800225e+03,3.547056e+03
1.803118e+03,3.548996e+03
1.806011e+03,3.491722e+03
1.808904e+03,3.513336e+03
1.811796e+03,3.511563e+03
1.814689e+03,3.506597e+03
1.817582e+03,3.496650e+03
1.820474e+03,3.481182e+03
1.823367e+03,3.462939e+03
1.826260e+03,3.460390e+03
1.829152e+03,3.455780e+03
1.832045e+03,3.472880e+03
1.834938e+03,3.454773e+03
1.837831e+03,3.419268e+03
1.840723e+03,3.431006e+03
1.843616e+03,3.429758e+03
1.846509e+03,3.409124e+03
1.849401e+03,3.436759e+03
1.852294e+03,3.410638e+03
1.855187e+03,3.378669e+03
1.858079e+03,3.393426e+03
1.860972e+03,3.362612e+03
1.863865e+03,3.362664e+03
1.866758e+03,3.339061e+03
1.869650e+03,3.351668e+03
1.872543e+03,3.332430e+03
1.875436e+03,3.338661e+03
1.878328e+03,3.322231e+03
1.881221e+03,3.327837e+03
1.884114e+03,3.312242e+03
1.887006e+03,3.274414e+03
1.889899e+03,3.279532e+03
1.892792e+03,3.279114e+03
1.895685e+03,3.280997e+03
1.898577e+03,3.274815e+03
1.901470e+03,3.269495e+03
1.904363e+03,3.244801e+03
1.907255e+03,3.229867e+03
1.910148e+03,3.248177e+03
1.913041e+03,3.218675e+03
1.915933e+03,3.216110e+03
1.918826e+03,3.204333e+03
1.921719e+03,3.199865e+03
1.924612e+03,3.162140e+03
1.927504e+03,3.180731e+03
1.930397e+03,3.178949e+03
1.933290e+03,3.152042e+03
1.936182e+03,3.135594e+03
1.939075e+03,3.131530e+03
1.941968e+03,3.147663e+03
1.944860e+03,3.103458e+03
1.947753e+03,3.116138e+03
1.950646e+03,3.123834e+03
1.953539e+03,3.115442e+03
1.956431e+03,3.096426e+03
1.959324e+03,3.097455e+03
1.962217e+03,3.082174e+03
1.965109e+03,3.068622e+03
1.968002e+03,3.059602e+03
1.970895e+03,3.070583e+03
1.973787e+03,3.038108e+03
1.976680e+03,3.049021e+03
1.979573e+03,3.029659e+03
1.982466e+03,3.036355e+03
1.985358e+03,3.026952e+03
1.988251e+03,3.016842e+03
1.991144e+03,2.981550e+03
1.994036e+03,2.985771e+03
1.996929e+03,2.990980e+03
1.999822e+03,2.987685e+03
2.002714e+03,2.969685e+03
2.005607e+03,2.947765e+03
2.008500e+03,2.937111e+03
2.011393e+03,2.949383e+03
2.014285e+03,2.952321e+03
2.017178e+03,2.913670e+03
2.020071e+03,2.902903e+03
2.022963e+03,2.890863e+03
2.025856e+03,2.884103e+03
2.028749e+03,2.883228e+03
2.031641e+03,2.891768e+03
2.034534e+03,2.888103e+03
2.037427e+03,2.870805e+03
2.040320e+03,2.859283e+03
2.043212e+03,2.847115e+03
2.046105e+03,2.831602e+03
2.048998e+03,2.811219e+03
2.051890e+03,2.827812e+03
2.054783e+03,2.801318e+03
2.057676e+03,2.815436e+03
2.060568e+03,2.817155e+03
2.063461e+03,2.804898e+03
2.066354e+03,2.792691e+03
2.069247e+03,2.766107e+03
2.072139e+03,2.739224e+03
2.075032e+03,2.740601e+03
2.077925e+03,2.734872e+03
2.080817e+03,2.737318e+03
2.083710e+03,2.748134e+03
2.086603e+03,2.726689e+03
2.089496e+03,2.751626e+03
2.092388e+03,2.705290e+03
2.095281e+03,2.697050e+03
2.098174e+03,2.722312e+03
2.101066e+03,2.684073e+03
2.103959e+03,2.687650e+03
2.106852e+03,2.680863e+03
2.109744e+03,2.668503e+03
2.112637e+03,2.651635e+03
2.115530e+03,2.619847e+03
2.118422e+03,2.642279e+03
2.121315e+03,2.653676e+03
2.124208e+03,2.617220e+03
2.127101e+03,2.621504e+03
2.129993e+03,2.588333e+03
2.132886e+03,2.606716e+03
2.135779e+03,2.608405e+03
2.138671e+03,2.598067e+03
2.141564e+03,2.582608e+03
2.144457e+03,2.562945e+03
2.147350e+03,2.568537e+03
2.150242e+03,2.549958e+03
2.153135e+03,2.563730e+03
2.156028e+03,2.544485e+03
2.158920e+03,2.546737e+03
2.161813e+03,2.560263e+03
2.164706e+03,2.514450e+03
2.167598e+03,2.498038e+03
2.170491e+03,2.503497e+03
2.173384e+03,2.497243e+03
2.176277e+03,2.479229e+03
2.179169e+03,2.462261e+03
2.182062e+03,2.448945e+03
2.184955e+03,2.449774e+03
2.187847e+03,2.440063e+03
2.190740e+03,2.456371e+03
2.193633e+03,2.435681e+03
2.196525e+03,2.427135e+03
2.199418e+03,2.442890e+03
2.202311e+03,2.400694e+03
2.205204e+03,2.437386e+03
2.208096e+03,2.407560e+03
2.210989e+03,2.374927e+03
2.213882e+03,2.380603e+03
2.216774e+03,2.370128e+03
2.219667e+03,2.374745e+03
2.222560e+03,2.330996e+03
2.225452e+03,2.356150e+03
2.228345e+03,2.344335e+03
2.231238e+03,2.346447e+03
2.234131e+03,2.326018e+03
2.237023e+03,2.326636e+03
2.239916e+03,2.303025e+03
2.242809e+03,2.308540e+03
2.245701e+03,2.301123e+03
2.248594e+03,2.280659e+03
2.251487e+03,2.295576e+03
2.254379e+03,2.284019e+03
2.257272e+03,2.252536e+03
2.260165e+03,2.243752e+03
2.263058e+03,2.262221e+03
2.265950e+03,2.246093e+03
2.268843e+03,2.221257e+03
2.271736e+03,2.208365e+03
2.274628e+03,2.228094e+03
2.277521e+03,2.202870e+03
2.280414e+03,2.200101e+03
2.283306e+03,2.198302e+03
2.286199e+03,2.170453e+03
2.289092e+03,2.197997e+03
2.291985e+03,2.165846e+03
2.294877e+03,2.190556e+03
2.297770e+03,2.178085e+03
2.300663e+03,2.175727e+03
2.303555e+03,2.133903e+03
2.306448e+03,2.163064e+03
2.309341e+03,2.126205e+03
2.312233e+03,2.113072e+03
2.315126e+03,2.108557e+03
2.318019e+03,2.119995e+03
2.320912e+03,2.114282e+03
2.323804e+03,2.102845e+03
2.326697e+03,2.092418e+03
2.329590e+03,2.093023e+03
2.332482e+03,2.072264e+03
2.335375e+03,2.076424e+03
2.338268e+03,2.071436e+03
2.341160e+03,2.035853e+03
2.344053e+03,2.079974e+03
2.346946e+03,2.064179e+03
2.349839e+03,2.022586e+03
2.352731e+03,2.036269e+03
2.355624e+03,2.020695e+03
2.358517e+03,2.033914e+03
2.361409e+03,2.030940e+03
2.364302e+03,2.017232e+03
2.367195e+03,1.992919e+03
2.370087e+03,2.001796e+03
2.372980e+03,2.002093e+03
2.375873e+03,1.976895e+03
2.378766e+03,1.966485e+03
2.381658e+03,1.978682e+03
2.384551e+03,1.971123e+03
2.387444e+03,1.948784e+03
2.390336e+03,1.952010e+03
2.393229e+03,1.959584e+03
2.396122e+03,1.937306e+03
2.399014e+03,1.907565e+03
2.401907e+03,1.914961e+03
2.404800e+03,1.925993e+03
2.407693e+03,1.917264e+03
2.410585e+03,1.892464e+03
2.413478e+03,1.894557e+03
2.416371e+03,1.898433e+03
2.419263e+03,1.870745e+03
2.422156e+03,1.876472e+03
2.425049e+03,1.886361e+03
2.427941e+03,1.849002e+03
2.430834e+03,1.860575e+03
2.433727e+03,1.851195e+03
2.436620e+03,1.869717e+03
2.439512e+03,1.854059e+03
2.442405e+03,1.835960e+03
2.445298e+03,1.834353e+03
2.448190e+03,1.822313e+03
2.451083e+03,1.820161e+03
2.453976e+03,1.820875e+03
2.456868e+03,1.810364e+03
2.459761e+03,1.808708e+03
2.462654e+03,1.795094e+03
2.465547e+03,1.782960e+03
2.468439e+03,1.786072e+03
2.471332e+03,1.772102e+03
2.474225e+03,1.768524e+03
2.477117e+03,1.770505e+03
2.480010e+03,1.765607e+03
2.482903e+03,1.773434e+03
2.485795e+03,1.734222e+03
2.488688e+03,1.744864e+03
2.491581e+03,1.750108e+03
2.494474e+03,1.753388e+03
2.497366e+03,1.742159e+03
2.500259e+03,1.731392e+03
2.503152e+03,1.727152e+03
2.506044e+03,1.723602e+03
2.508937e+03,1.715332e+03
2.511830e+03,1.732877e+03
2.514722e+03,1.713799e+03
2.517615e+03,1.692763e+03
2.520508e+03,1.680636e+03
2.523401e+03,1.683990e+03
2.526293e+03,1.689566e+03
2.529186e+03,1.682640e+03
2.532079e+03,1.657537e+03
2.534971e+03,1.681106e+03
2.537864e+03,1.664752e+03
2.540757e+03,1.657669e+03
2.543649e+03,1.650507e+03
2.546542e+03,1.643142e+03
2.549435e+03,1.633898e+03
2.552328e+03,1.632995e+03
2.555220e+03,1.657823e+03
2.558113e+03,1.642372e+03
2.561006e+03,1.637134e+03
2.563898e+03,1.646977e+03
2.566791e+03,1.620096e+03
2.569684e+03,1.597969e+03
2.572576e+03,1.611885e+03
2.575469e+03,1.616486e+03
2.578362e+03,1.591311e+03
2.581255e+03,1.596535e+03
2.584147e+03,1.574504e+03
2.587040e+03,1.571441e+03
2.589933e+03,1.605234e+03
2.592825e+03,1.567675e+03
2.595718e+03,1.563434e+03
2.598611e+03,1.552655e+03
2.601503e+03,1.551814e+03
2.604396e+03,1.558947e+03
2.607289e+03,1.536873e+03
2.610182e+03,1.560083e+03
2.613074e+03,1.542285e+03
2.615967e+03,1.531017e+03
2.618860e+03,1.519092e+03
2.621752e+03,1.506834e+03
2.624645e+03,1.522152e+03
2.627538e+03,1.537144e+03
2.630430e+03,1.509580e+03
2.633323e+03,1.498225e+03
2.636216e+03,1.503885e+03
2.639109e+03,1.510256e+03
2.642001e+03,1.504137e+03
2.644894e+03,1.506195e+03
2.647787e+03,1.486309e+03
2.650679e+03,1.486257e+03
2.653572e+03,1.468507e+03
2.656465e+03,1.479758e+03
2.659357e+03,1.443195e+03
2.662250e+03,1.459720e+03
2.665143e+03,1.491152e+03
2.668036e+03,1.448632e+03
2.670928e+03,1.439703e+03
2.673821e+03,1.453454e+03
2.676714e+03,1.455319e+03
2.679606e+03,1.462125e+03
2.682499e+03,1.432159e+03
2.685392e+03,1.456727e+03
2.688284e+03,1.448938e+03
2.691177e+03,1.426422e+03
2.694070e+03,1.423909e+03
2.696963e+03,1.411591e+03
2.699855e+03,1.414092e+03
2.702748e+03,1.401206e+03
2.705641e+03,1.429911e+03
2.708533e+03,1.412831e+03
2.711426e+03,1.377192e+03
2.714319e+03,1.392836e+03
2.717211e+03,1.391612e+03
2.720104e+03,1.403709e+03
2.722997e+03,1.379840e+03
2.725890e+03,1.395036e+03
2.728782e+03,1.363165e+03
2.731675e+03,1.389624e+03
2.734568e+03,1.390293e+03
2.737460e+03,1.378758e+03
2.740353e+03,1.364688e+03
2.743246e+03,1.359064e+03
2.746138e+03,1.357542e+03
2.749031e+03,1.357396e+03
2.751924e+03,1.345080e+03
2.754817e+03,1.345314e+03
2.757709e+03,1.336346e+03
2.760602e+03,1.326773e+03
2.763495e+03,1.339203e+03
2.766387e+03,1.339777e+03
2.769280e+03,1.320937e+03
2.772173e+03,1.335064e+03
2.775065e+03,1.341580e+03
2.777958e+03,1.315069e+03
2.780851e+03,1.322401e+03
2.783744e+03,1.314409e+03
2.786636e+03,1.288454e+03
2.789529e+03,1.291630e+03
2.792422e+03,1.301410e+03
2.795314e+03,1.308893e+03
2.798207e+03,1.298685e+03
2.801100e+03,1.299852e+03
2.803992e+03,1.287359e+03
2.806885e+03,1.284420e+03
2.809778e+03,1.276052e+03
2.812671e+03,1.266656e+03
2.815563e+03,1.285754e+03
2.818456e+03,1.270682e+03
2.821349e+03,1.274017e+03
2.824241e+03,1.264673e+03
2.827134e+03,1.249881e+03
2.830027e+03,1.266375e+03
2.832919e+03,1.278141e+03
2.835812e+03,1.268789e+03
2.838705e+03,1.237101e+03
2.841598e+03,1.253334e+03
2.844490e+03,1.249421e+03
2.847383e+03,1.257862e+03
2.850276e+03,1.242600e+03
2.853168e+03,1.233961e+03
2.856061e+03,1.257320e+03
2.858954e+03,1.260179e+03
2.861846e+03,1.249879e+03
2.864739e+03,1.230015e+03
2.867632e+03,1.234348e+03
2.870525e+03,1.229907e+03
2.873417e+03,1.237495e+03
2.876310e+03,1.241509e+03
2.879203e+03,1.214730e+03
2.882095e+03,1.230062e+03
2.884988e+03,1.223445e+03
2.887881e+03,1.249383e+03
2.890773e+03,1.227644e+03
2.893666e+03,1.242627e+03
2.896559e+03,1.211774e+03
2.899452e+03,1.253738e+03
2.902344e+03,1.215473e+03
2.905237e+03,1.209192e+03
2.908130e+03,1.232569e+03
2.911022e+03,1.229308e+03
2.913915e+03,1.197502e+03
2.916808e+03,1.224460e+03
2.919700e+03,1.189543e+03
2.922593e+03,1.199506e+03
2.925486e+03,1.184891e+03
2.928379e+03,1.194649e+03
2.931271e+03,1.212574e+03
2.934164e+03,1.168292e+03
2.937057e+03,1.174618e+03
2.939949e+03,1.189645e+03
2.942842e+03,1.181836e+03
2.945735e+03,1.165434e+03
2.948627e+03,1.167553e+03
2.951520e+03,1.166208e+03
2.954413e+03,1.189973e+03
2.957306e+03,1.223286e+03
2.960198e+03,1.167698e+03
2.963091e+03,1.163303e+03
2.965984e+03,1.156828e+03
2.968876e+03,1.159474e+03
2.971769e+03,1.153964e+03
2.974662e+03,1.125498e+03
2.977554e+03,1.154115e+03
2.980447e+03,1.142134e+03
2.983340e+03,1.124821e+03
2.986233e+03,1.131814e+03
2.989125e+03,1.112532e+03
2.992018e+03,1.098816e+03
2.994911e+03,1.088734e+03
2.997803e+03,1.120314e+03
3.000696e+03,1.092153e+03
3.003589e+03,1.120646e+03
3.006481e+03,1.118447e+03
3.009374e+03,1.079582e+03
3.012267e+03,1.123558e+03
3.015160e+03,1.110686e+03
3.018052e+03,1.102379e+03
3.020945e+03,1.113798e+03
3.023838e+03,1.109795e+03
3.026730e+03,1.131453e+03
3.029623e+03,1.076641e+03
3.032516e+03,1.078396e+03
3.035408e+03,1.084413e+03
3.038301e+03,1.114268e+03
3.041194e+03,1.059669e+03
3.044087e+03,1.087969e+03
3.046979e+03,1.085410e+03
3.049872e+03,1.064030e+03
3.052765e+03,1.093406e+03
3.055657e+03,1.088314e+03
3.058550e+03,1.086275e+03
3.061443e+03,1.099121e+03
3.064335e+03,1.090776e+03
3.067228e+03,1.075987e+03
3.070121e+03,1.064153e+03
3.073014e+03,1.097547e+03
3.075906e+03,1.077668e+03
3.078799e+03,1.068454e+03
3.081692e+03,1.081354e+03
3.084584e+03,1.071863e+03
3.087477e+03,1.087386e+03
3.090370e+03,1.112930e+03
3.093262e+03,1.082322e+03
3.096155e+03,1.069768e+03
3.099048e+03,1.073333e+03
3.101941e+03,1.107581e+03
3.104833e+03,1.081304e+03
3.107726e+03,1.046892e+03
3.110619e+03,1.093358e+03
3.113511e+03,1.062373e+03
3.116404e+03,1.081669e+03
3.119297e+03,1.069355e+03
3.122189e+03,1.067079e+03
3.125082e+03,1.067848e+03
3.127975e+03,1.070315e+03
3.130868e+03,1.079150e+03
3.133760e+03,1.051190e+03
3.136653e+03,1.046708e+03
3.139546e+03,1.104416e+03
3.142438e+03,1.083168e+03
3.145331e+03,1.088159e+03
3.148224e+03,1.061812e+03
3.151116e+03,1.047647e+03
3.154009e+03,1.048887e+03
3.156902e+03,1.071466e+03
3.159795e+03,1.051537e+03
3.162687e+03,1.094583e+03
3.165580e+03,1.055681e+03
3.168473e+03,1.090562e+03
3.171365e+03,1.078695e+03
3.174258e+03,1.067612e+03
3.177151e+03,1.075000e+03
3.180043e+03,1.052221e+03
3.182936e+03,1.083506e+03
3.185829e+03,1.059809e+03
3.188722e+03,1.071976e+03
3.191614e+03,1.123105e+03
3.194507e+03,1.071618e+03
3.197400e+03,1.105328e+03
3.200292e+03,1.123819e+03
3.203185e+03,0.000000e+00
3.206078e+03,0.000000e+00
3.208970e+03,0.000000e+00
3.211863e+03,0.000000e+00
3.214756e+03,0.000000e+00
3.217649e+03,0.000000e+00
3.220541e+03,0.000000e+00
3.223434e+03,0.000000e+00
3.226327e+03,0.000000e+00
3.229219e+03,0.000000e+00
3.232112e+03,0.000000e+00
3.235005e+03,0.000000e+00
3.237897e+03,0.000000e+00
3.240790e+03,0.000000e+00
3.243683e+03,0.000000e+00
3.246576e+03,0.000000e+00
3.249468e+03,0.000000e+00
3.252361e+03,0.000000e+00
3.255254e+03,0.000000e+00
3.258146e+03,0.000000e+00
3.261039e+03,0.000000e+00
3.263932e+03,0.000000e+00
3.266824e+03,0.000000e+00
3.269717e+03,0.000000e+00
3.272610e+03,0.000000e+00
3.275503e+03,0.000000e+00
3.278395e+03,0.000000e+00
3.281288e+03,0.000000e+00
3.284181e+03,0.000000e+00
3.287073e+03,0.000000e+00
3.289966e+03,0.000000e+00
3.292859e+03,0.000000e+00
3.295751e+03,0.000000e+00
3.298644e+03,0.000000e+00
3.301537e+03,0.000000e+00
3.304430e+03,0.000000e+00
3.307322e+03,0.000000e+00
3.310215e+03,0.000000e+00
3.313108e+03,0.000000e+00
3.316000e+03,0.000000e+00
3.318893e+03,0.000000e+00
3.321786e+03,0.000000e+00
3.324678e+03,0.000000e+00
3.327571e+03,0.000000e+00
3.330464e+03,0.000000e+00
3.333357e+03,0.000000e+00
3.336249e+03,0.000000e+00
3.339142e+03,0.000000e+00
3.342035e+03,0.000000e+00
3.344927e+03,0.000000e+00
3.347820e+03,0.000000e+00
3.350713e+03,0.000000e+00
3.353605e+03,0.000000e+00
3.356498e+03,0.000000e+00
3.359391e+03,0.000000e+00
3.362284e+03,0.000000e+00
3.365176e+03,0.000000e+00
3.368069e+03,0.000000e+00
3.370962e+03,0.000000e+00
3.373854e+03,0.000000e+00
3.376747e+03,0.000000e+00
3.379640e+03,0.000000e+00
3.382532e+03,0.000000e+00
3.385425e+03,0.000000e+00
3.388318e+03,0.000000e+00
3.391211e+03,0.000000e+00
3.394103e+03,0.000000e+00
3.396996e+03,0.000000e+00
3.399889e+03,0.000000e+00
3.402781e+03,0.000000e+00
3.405674e+03,0.000000e+00
3.408567e+03,0.000000e+00
3.411459e+03,0.000000e+00
3.414352e+03,0.000000e+00
3.417245e+03,0.000000e+00
3.420138e+03,0.000000e+00
3.423030e+03,0.000000e+00
3.425923e+03,0.000000e+00
3.428816e+03,0.000000e+00
3.431708e+03,0.000000e+00
3.434601e+03,0.000000e+00
3.437494e+03,0.000000e+00
3.440386e+03,0.000000e+00
3.443279e+03,0.000000e+00
3.446172e+03,0.000000e+00
3.449065e+03,0.000000e+00
3.451957e+03,0.000000e+00
3.454850e+03,0.000000e+00
3.457743e+03,0.000000e+00
3.460635e+03,0.000000e+00
3.463528e+03,0.000000e+00
3.466421e+03,0.000000e+00
3.469313e+03,0.000000e+00
3.472206e+03,0.000000e+00
3.475099e+03,0.000000e+00
3.477992e+03,0.000000e+00
3.480884e+03,0.000000e+00
3.483777e+03,0.000000e+00
3.486670e+03,0.000000e+00
3.489563e+03,0.000000e+00
3.492455e+03,0.000000e+00
3.495348e+03,0.000000e+00
3.498240e+03,0.000000e+00
3.500169e+03,0.000000e+00