File: RAMAN_data/23052023_r3/blue fibre14.CSV
9.931763e+01,0.000000e+00
1.022103e+02,0.000000e+00
1.051030e+02,0.000000e+00
1.079957e+02,0.000000e+00
1.108884e+02,0.000000e+00
1.137811e+02,0.000000e+00
1.166738e+02,0.000000e+00
1.195665e+02,0.000000e+00
1.224592e+02,0.000000e+00
1.253519e+02,0.000000e+00
1.282446e+02,0.000000e+00
1.311373e+02,0.000000e+00
1.340300e+02,0.000000e+00
1.369227e+02,0.000000e+00
1.398154e+02,0.000000e+00
1.427081e+02,0.000000e+00
1.456008e+02,0.000000e+00
1.484935e+02,0.000000e+00
1.513862e+02,0.000000e+00
1.542789e+02,0.000000e+00
1.571716e+02,0.000000e+00
1.600643e+02,0.000000e+00
1.629570e+02,0.000000e+00
1.658497e+02,0.000000e+00
1.687424e+02,0.000000e+00
1.716351e+02,0.000000e+00
1.745278e+02,0.000000e+00
1.774205e+02,0.000000e+00
1.803132e+02,0.000000e+00
1.832059e+02,0.000000e+00
1.860986e+02,0.000000e+00
1.889913e+02,0.000000e+00
1.918840e+02,0.000000e+00
1.947767e+02,0.000000e+00
1.976694e+02,0.000000e+00
2.005621e+02,4.220556e+03
2.034548e+02,4.236233e+03
2.063475e+02,4.248276e+03
2.092402e+02,4.262555e+03
2.121329e+02,4.282227e+03
2.150256e+02,4.312808e+03
2.179183e+02,4.307962e+03
2.208110e+02,4.330402e+03
2.237037e+02,4.336581e+03
2.265964e+02,4.342959e+03
2.294892e+02,4.366252e+03
2.323819e+02,4.388013e+03
2.352746e+02,4.406456e+03
2.381673e+02,4.441679e+03
2.410600e+02,4.421685e+03
2.439527e+02,4.440869e+03
2.468454e+02,4.503805e+03
2.497381e+02,4.535099e+03
2.526308e+02,4.521162e+03
2.555235e+02,4.524080e+03
2.584161e+02,4.535335e+03
2.613088e+02,4.562648e+03
2.642015e+02,4.585397e+03
2.670942e+02,4.569666e+03
2.699869e+02,4.625507e+03
2.728796e+02,4.652521e+03
2.757723e+02,4.678841e+03
2.786650e+02,4.719870e+03
2.815577e+02,4.697795e+03
2.844504e+02,4.709574e+03
2.873431e+02,4.692788e+03
2.902358e+02,4.676368e+03
2.931285e+02,4.676413e+03
2.960212e+02,4.681733e+03
2.989139e+02,4.713309e+03
3.018066e+02,4.727858e+03
3.046993e+02,4.718835e+03
3.075920e+02,4.714511e+03
3.104847e+02,4.709167e+03
3.133774e+02,4.736496e+03
3.162701e+02,4.760667e+03
3.191628e+02,4.763840e+03
3.220555e+02,4.766469e+03
3.249482e+02,4.772596e+03
3.278409e+02,4.768536e+03
3.307336e+02,4.789835e+03
3.336263e+02,4.788312e+03
3.365190e+02,4.802220e+03
3.394117e+02,4.799174e+03
3.423044e+02,4.828718e+03
3.451971e+02,4.852786e+03
3.480898e+02,4.855085e+03
3.509825e+02,4.834667e+03
3.538752e+02,4.828603e+03
3.567680e+02,4.868969e+03
3.596607e+02,4.893533e+03
3.625534e+02,4.886030e+03
3.654461e+02,4.894213e+03
3.683388e+02,4.902992e+03
3.712315e+02,4.908625e+03
3.741242e+02,4.928827e+03
3.770169e+02,4.933367e+03
3.799096e+02,4.944058e+03
3.828023e+02,4.953195e+03
3.856950e+02,4.949434e+03
3.885877e+02,4.967374e+03
3.914804e+02,4.956763e+03
3.943731e+02,4.989000e+03
3.972658e+02,4.963545e+03
4.001585e+02,4.967707e+03
4.030512e+02,5.005574e+03
4.059439e+02,5.006292e+03
4.088366e+02,5.001648e+03
4.117293e+02,4.996134e+03
4.146220e+02,5.007553e+03
4.175147e+02,5.015508e+03
4.204074e+02,5.028540e+03
4.233001e+02,5.029711e+03
4.261928e+02,5.048120e+03
4.290855e+02,5.041938e+03
4.319782e+02,5.041304e+03
4.348709e+02,5.062101e+03
4.377636e+02,5.061530e+03
4.406563e+02,5.060486e+03
4.435490e+02,5.063879e+03
4.464417e+02,5.084011e+03
4.493344e+02,5.087999e+03
4.522271e+02,5.087254e+03
4.551198e+02,5.079137e+03
4.580125e+02,5.085451e+03
4.609052e+02,5.075305e+03
4.637979e+02,5.097438e+03
4.666906e+02,5.092987e+03
4.695833e+02,5.111416e+03
4.724760e+02,5.128979e+03
4.753687e+02,5.124741e+03
4.782614e+02,5.114190e+03
4.811541e+02,5.112022e+03
4.840468e+02,5.130788e+03
4.869395e+02,5.134100e+03
4.898322e+02,5.159766e+03
4.927249e+02,5.145041e+03
4.956176e+02,5.136520e+03
4.985103e+02,5.151448e+03
5.014030e+02,5.152856e+03
5.042957e+02,5.157146e+03
5.071884e+02,5.160050e+03
5.100811e+02,5.169778e+03
5.129738e+02,5.157092e+03
5.158665e+02,5.189041e+03
5.187592e+02,5.207382e+03
5.216519e+02,5.181497e+03
5.245446e+02,5.178357e+03
5.274373e+02,5.195364e+03
5.303300e+02,5.187670e+03
5.332227e+02,5.204562e+03
5.361154e+02,5.252092e+03
5.390081e+02,5.257397e+03
5.419008e+02,5.319318e+03
5.447935e+02,5.286522e+03
5.476862e+02,5.298255e+03
5.505789e+02,5.298041e+03
5.534716e+02,5.319845e+03
5.563643e+02,5.332428e+03
5.592570e+02,5.360546e+03
5.621497e+02,5.314426e+03
5.650424e+02,5.277791e+03
5.679351e+02,5.234839e+03
5.708278e+02,5.201785e+03
5.737205e+02,5.210467e+03
5.766132e+02,5.220341e+03
5.795059e+02,5.205285e+03
5.823986e+02,5.214491e+03
5.852913e+02,5.180955e+03
5.881840e+02,5.240331e+03
5.910767e+02,5.240163e+03
5.939694e+02,5.249302e+03
5.968621e+02,5.254898e+03
5.997548e+02,5.241610e+03
6.026475e+02,5.249163e+03
6.055402e+02,5.265216e+03
6.084329e+02,5.321685e+03
6.113256e+02,5.316959e+03
6.142183e+02,5.284016e+03
6.171110e+02,5.222660e+03
6.200037e+02,5.212932e+03
6.228964e+02,5.233299e+03
6.257891e+02,5.228725e+03
6.286818e+02,5.210021e+03
6.315745e+02,5.205120e+03
6.344672e+02,5.220735e+03
6.373599e+02,5.208127e+03
6.402526e+02,5.216559e+03
6.431453e+02,5.192947e+03
6.460380e+02,5.184755e+03
6.489307e+02,5.189231e+03
6.518234e+02,5.186217e+03
6.547161e+02,5.197195e+03
6.576088e+02,5.160873e+03
6.605015e+02,5.182029e+03
6.633942e+02,5.173679e+03
6.662869e+02,5.185817e+03
6.691796e+02,5.183969e+03
6.720723e+02,5.184593e+03
6.749650e+02,5.162147e+03
6.778577e+02,5.179779e+03
6.807504e+02,5.165812e+03
6.836431e+02,5.163599e+03
6.865358e+02,5.143751e+03
6.894285e+02,5.145513e+03
6.923212e+02,5.144408e+03
6.952139e+02,5.125193e+03
6.981066e+02,5.131648e+03
7.009993e+02,5.096127e+03
7.038920e+02,5.110221e+03
7.067847e+02,5.106524e+03
7.096774e+02,5.085634e+03
7.125701e+02,5.100375e+03
7.154628e+02,5.100682e+03
7.183555e+02,5.095618e+03
7.212482e+02,5.078401e+03
7.241409e+02,5.050444e+03
7.270336e+02,5.056508e+03
7.299263e+02,5.074198e+03
7.328190e+02,5.047340e+03
7.357117e+02,5.046346e+03
7.386044e+02,5.023299e+03
7.414971e+02,5.022252e+03
7.443898e+02,5.027481e+03
7.472825e+02,5.038843e+03
7.501752e+02,5.041744e+03
7.530679e+02,5.020972e+03
7.559606e+02,5.001280e+03
7.588533e+02,5.024450e+03
7.617460e+02,5.024021e+03
7.646387e+02,4.996280e+03
7.675314e+02,5.000162e+03
7.704241e+02,4.983797e+03
7.733168e+02,4.983743e+03
7.762095e+02,4.997608e+03
7.791022e+02,4.992576e+03
7.819949e+02,5.002313e+03
7.848876e+02,5.002883e+03
7.877803e+02,4.984779e+03
7.906730e+02,4.984904e+03
7.935657e+02,4.978398e+03
7.964584e+02,4.927061e+03
7.993511e+02,4.930188e+03
8.022438e+02,4.917075e+03
8.051365e+02,4.902161e+03
8.080292e+02,4.908683e+03
8.109219e+02,4.899546e+03
8.138146e+02,4.887499e+03
8.167073e+02,4.873432e+03
8.196000e+02,4.866078e+03
8.224927e+02,4.879522e+03
8.253854e+02,4.892469e+03
8.282781e+02,4.877975e+03
8.311708e+02,4.861524e+03
8.340635e+02,4.858577e+03
8.369562e+02,4.847841e+03
8.398489e+02,4.859959e+03
8.427416e+02,4.835159e+03
8.456343e+02,4.844846e+03
8.485270e+02,4.837136e+03
8.514197e+02,4.801561e+03
8.543124e+02,4.817171e+03
8.572051e+02,4.812813e+03
8.600978e+02,4.776713e+03
8.629905e+02,4.781179e+03
8.658832e+02,4.780446e+03
8.687759e+02,4.764352e+03
8.716686e+02,4.760532e+03
8.745613e+02,4.770917e+03
8.774540e+02,4.759051e+03
8.803467e+02,4.728530e+03
8.832394e+02,4.747627e+03
8.861321e+02,4.764302e+03
8.890248e+02,4.696905e+03
8.919175e+02,4.715696e+03
8.948102e+02,4.724260e+03
8.977029e+02,4.709771e+03
9.005956e+02,4.697476e+03
9.034883e+02,4.695595e+03
9.063810e+02,4.666484e+03
9.092737e+02,4.655700e+03
9.121664e+02,4.645397e+03
9.150591e+02,4.630399e+03
9.179518e+02,4.635031e+03
9.208445e+02,4.621129e+03
9.237372e+02,4.615612e+03
9.266299e+02,4.589322e+03
9.295226e+02,4.614077e+03
9.324153e+02,4.589717e+03
9.353080e+02,4.579792e+03
9.382007e+02,4.566520e+03
9.410934e+02,4.566596e+03
9.439861e+02,4.558494e+03
9.468788e+02,4.535132e+03
9.497715e+02,4.552240e+03
9.526642e+02,4.527113e+03
9.555569e+02,4.519724e+03
9.584496e+02,4.509205e+03
9.613423e+02,4.491229e+03
9.642350e+02,4.502278e+03
9.671277e+02,4.468108e+03
9.700204e+02,4.481680e+03
9.729131e+02,4.473009e+03
9.758058e+02,4.460430e+03
9.786985e+02,4.452616e+03
9.815912e+02,4.444991e+03
9.844839e+02,4.412719e+03
9.873766e+02,4.405310e+03
9.902693e+02,4.392167e+03
9.931620e+02,4.410009e+03
9.960547e+02,4.410907e+03
9.989474e+02,4.390717e+03
1.001840e+03,4.348609e+03
1.004733e+03,4.374888e+03
1.007626e+03,4.363577e+03
1.010518e+03,4.365150e+03
1.013411e+03,4.345972e+03
1.016304e+03,4.348325e+03
1.019196e+03,4.310790e+03
1.022089e+03,4.311346e+03
1.024982e+03,4.293164e+03
1.027875e+03,4.275977e+03
1.030767e+03,4.279758e+03
1.033660e+03,4.275197e+03
1.036552e+03,4.255329e+03
1.039445e+03,4.281502e+03
1.042338e+03,4.259775e+03
1.045231e+03,4.241985e+03
1.048123e+03,4.238928e+03
1.051016e+03,4.230218e+03
1.053909e+03,4.220082e+03
1.056802e+03,4.214096e+03
1.059694e+03,4.204741e+03
1.062587e+03,4.184613e+03
1.065479e+03,4.232177e+03
1.068372e+03,4.220709e+03
1.071265e+03,4.232375e+03
1.074158e+03,4.227593e+03
1.077050e+03,4.190361e+03
1.079943e+03,4.208030e+03
1.082836e+03,4.215787e+03
1.085729e+03,4.195179e+03
1.088621e+03,4.192360e+03
1.091514e+03,4.167190e+03
1.094406e+03,4.141702e+03
1.097299e+03,4.121732e+03
1.100192e+03,4.097012e+03
1.103085e+03,4.114340e+03
1.105977e+03,4.109073e+03
1.108870e+03,4.083503e+03
1.111763e+03,4.099378e+03
1.114656e+03,4.053869e+03
1.117548e+03,4.074275e+03
1.120441e+03,4.045490e+03
1.123334e+03,4.016669e+03
1.126226e+03,4.029615e+03
1.129119e+03,4.018565e+03
1.132012e+03,4.009861e+03
1.134904e+03,4.026804e+03
1.137797e+03,3.989577e+03
1.140690e+03,4.006289e+03
1.143583e+03,3.968879e+03
1.146475e+03,3.974650e+03
1.149368e+03,3.977778e+03
1.152261e+03,3.963434e+03
1.155153e+03,3.947904e+03
1.158046e+03,3.911552e+03
1.160939e+03,3.936816e+03
1.163831e+03,3.924952e+03
1.166724e+03,3.932941e+03
1.169617e+03,3.907083e+03
1.172510e+03,3.902532e+03
1.175402e+03,3.894574e+03
1.178295e+03,3.895369e+03
1.181188e+03,3.896449e+03
1.184080e+03,3.871466e+03
1.186973e+03,3.871263e+03
1.189866e+03,3.853865e+03
1.192758e+03,3.832676e+03
1.195651e+03,3.880349e+03
1.198544e+03,3.859888e+03
1.201437e+03,3.818210e+03
1.204329e+03,3.815785e+03
1.207222e+03,3.794919e+03
1.210115e+03,3.797863e+03
1.213007e+03,3.799433e+03
1.215900e+03,3.794987e+03
1.218793e+03,3.797696e+03
1.221685e+03,3.779364e+03
1.224578e+03,3.796164e+03
1.227471e+03,3.790102e+03
1.230364e+03,3.770385e+03
1.233256e+03,3.750770e+03
1.236149e+03,3.741432e+03
1.239042e+03,3.733528e+03
1.241934e+03,3.744100e+03
1.244827e+03,3.718529e+03
1.247720e+03,3.713656e+03
1.250612e+03,3.680303e+03
1.253505e+03,3.670437e+03
1.256398e+03,3.667363e+03
1.259291e+03,3.668238e+03
1.262183e+03,3.659866e+03
1.265076e+03,3.634920e+03
1.267969e+03,3.633186e+03
1.270861e+03,3.645630e+03
1.273754e+03,3.635228e+03
1.276647e+03,3.629230e+03
1.279539e+03,3.614613e+03
1.282432e+03,3.596151e+03
1.285325e+03,3.605849e+03
1.288218e+03,3.597369e+03
1.291110e+03,3.589923e+03
1.294003e+03,3.586570e+03
1.296896e+03,3.561898e+03
1.299788e+03,3.558309e+03
1.302681e+03,3.544556e+03
1.305574e+03,3.555449e+03
1.308466e+03,3.556055e+03
1.311359e+03,3.552914e+03
1.314252e+03,3.541290e+03
1.317145e+03,3.525702e+03
1.320037e+03,3.535056e+03
1.322930e+03,3.515858e+03
1.325823e+03,3.516707e+03
1.328715e+03,3.504600e+03
1.331608e+03,3.499538e+03
1.334501e+03,3.492297e+03
1.337393e+03,3.506139e+03
1.340286e+03,3.471317e+03
1.343179e+03,3.454835e+03
1.346072e+03,3.455532e+03
1.348964e+03,3.453815e+03
1.351857e+03,3.454588e+03
1.354750e+03,3.445774e+03
1.357642e+03,3.444743e+03
1.360535e+03,3.429983e+03
1.363428e+03,3.433095e+03
1.366320e+03,3.441359e+03
1.369213e+03,3.426211e+03
1.372106e+03,3.397743e+03
1.374999e+03,3.402482e+03
1.377891e+03,3.378326e+03
1.380784e+03,3.389182e+03
1.383677e+03,3.378698e+03
1.386569e+03,3.362325e+03
1.389462e+03,3.356507e+03
1.392355e+03,3.329026e+03
1.395247e+03,3.339774e+03
1.398140e+03,3.345541e+03
1.401033e+03,3.327075e+03
1.403926e+03,3.343407e+03
1.406818e+03,3.312252e+03
1.409711e+03,3.323015e+03
1.412604e+03,3.305409e+03
1.415496e+03,3.308035e+03
1.418389e+03,3.290158e+03
1.421282e+03,3.297875e+03
1.424174e+03,3.266837e+03
1.427067e+03,3.269409e+03
1.429960e+03,3.260130e+03
1.432853e+03,3.254356e+03
1.435745e+03,3.257753e+03
1.438638e+03,3.256545e+03
1.441531e+03,3.253714e+03
1.444423e+03,3.261974e+03
1.447316e+03,3.260157e+03
1.450209e+03,3.258644e+03
1.453101e+03,3.263649e+03
1.455994e+03,3.256352e+03
1.458887e+03,3.254751e+03
1.461780e+03,3.238853e+03
1.464672e+03,3.210951e+03
1.467565e+03,3.219022e+03
1.470458e+03,3.195564e+03
1.473350e+03,3.200147e+03
1.476243e+03,3.192091e+03
1.479136e+03,3.188383e+03
1.482028e+03,3.192952e+03
1.484921e+03,3.196255e+03
1.487814e+03,3.174470e+03
1.490707e+03,3.168581e+03
1.493599e+03,3.170647e+03
1.496492e+03,3.157804e+03
1.499385e+03,3.148230e+03
1.502277e+03,3.140551e+03
1.505170e+03,3.134671e+03
1.508063e+03,3.154827e+03
1.510955e+03,3.150189e+03
1.513848e+03,3.144267e+03
1.516741e+03,3.127208e+03
1.519634e+03,3.105621e+03
1.522526e+03,3.106533e+03
1.525419e+03,3.104571e+03
1.528312e+03,3.074337e+03
1.531204e+03,3.075727e+03
1.534097e+03,3.068602e+03
1.536990e+03,3.073946e+03
1.539882e+03,3.056591e+03
1.542775e+03,3.053364e+03
1.545668e+03,3.057481e+03
1.548561e+03,3.072016e+03
1.551453e+03,3.055926e+03
1.554346e+03,3.054432e+03
1.557239e+03,3.062342e+03
1.560131e+03,3.086287e+03
1.563024e+03,3.082417e+03
1.565917e+03,3.136699e+03
1.568809e+03,3.185942e+03
1.571702e+03,3.178949e+03
1.574595e+03,3.147094e+03
1.577488e+03,3.118081e+03
1.580380e+03,3.108011e+03
1.583273e+03,3.082085e+03
1.586166e+03,3.043560e+03
1.589058e+03,3.018874e+03
1.591951e+03,2.995613e+03
1.594844e+03,2.995329e+03
1.597736e+03,2.974092e+03
1.600629e+03,2.953552e+03
1.603522e+03,2.974698e+03
1.606415e+03,2.963640e+03
1.609307e+03,2.949442e+03
1.612200e+03,2.942656e+03
1.615093e+03,2.936811e+03
1.617985e+03,2.942550e+03
1.620878e+03,2.926165e+03
1.623771e+03,2.925740e+03
1.626663e+03,2.951140e+03
1.629556e+03,2.928152e+03
1.632449e+03,2.908840e+03
1.635342e+03,2.908818e+03
1.638234e+03,2.884853e+03
1.641127e+03,2.860200e+03
1.644020e+03,2.873538e+03
1.646912e+03,2.858059e+03
1.649805e+03,2.841178e+03
1.652698e+03,2.850771e+03
1.655590e+03,2.840723e+03
1.658483e+03,2.838962e+03
1.661376e+03,2.830938e+03
1.664269e+03,2.829463e+03
1.667161e+03,2.823852e+03
1.670054e+03,2.812931e+03
1.672947e+03,2.824387e+03
1.675839e+03,2.807500e+03
1.678732e+03,2.814016e+03
1.681625e+03,2.821008e+03
1.684517e+03,2.802385e+03
1.687410e+03,2.781185e+03
1.690303e+03,2.781447e+03
1.693196e+03,2.774261e+03
1.696088e+03,2.764199e+03
1.698981e+03,2.772080e+03
1.701874e+03,2.757266e+03
1.704766e+03,2.747820e+03
1.707659e+03,2.757075e+03
1.710552e+03,2.731039e+03
1.713444e+03,2.733680e+03
1.716337e+03,2.712837e+03
1.719230e+03,2.737184e+03
1.722123e+03,2.718055e+03
1.725015e+03,2.703243e+03
1.727908e+03,2.723413e+03
1.730801e+03,2.691392e+03
1.733693e+03,2.709667e+03
1.736586e+03,2.689729e+03
1.739479e+03,2.689233e+03
1.742371e+03,2.669653e+03
1.745264e+03,2.679008e+03
1.748157e+03,2.674851e+03
1.751050e+03,2.681083e+03
1.753942e+03,2.661958e+03
1.756835e+03,2.653879e+03
1.759728e+03,2.647277e+03
1.762620e+03,2.658149e+03
1.765513e+03,2.639921e+03
1.768406e+03,2.657833e+03
1.771298e+03,2.622166e+03
1.774191e+03,2.613300e+03
1.777084e+03,2.606515e+03
1.779977e+03,2.614538e+03
1.782869e+03,2.614196e+03
1.785762e+03,2.595760e+03
1.788655e+03,2.585378e+03
1.791547e+03,2.560271e+03
1.794440e+03,2.569789e+03
1.797333e+03,2.577153e+03
1.800225e+03,2.584517e+03
1.803118e+03,2.563844e+03
1.806011e+03,2.550175e+03
1.808904e+03,2.552250e+03
1.811796e+03,2.543519e+03
1.814689e+03,2.551458e+03
1.817582e+03,2.557125e+03
1.820474e+03,2.539759e+03
1.823367e+03,2.518862e+03
1.826260e+03,2.495713e+03
1.829152e+03,2.518818e+03
1.832045e+03,2.481948e+03
1.834938e+03,2.515346e+03
1.837831e+03,2.497472e+03
1.840723e+03,2.491619e+03
1.843616e+03,2.495190e+03
1.846509e+03,2.477053e+03
1.849401e+03,2.465300e+03
1.852294e+03,2.462653e+03
1.855187e+03,2.458966e+03
1.858079e+03,2.471561e+03
1.860972e+03,2.430648e+03
1.863865e+03,2.431323e+03
1.866758e+03,2.436722e+03
1.869650e+03,2.425205e+03
1.872543e+03,2.428571e+03
1.875436e+03,2.428471e+03
1.878328e+03,2.418302e+03
1.881221e+03,2.402902e+03
1.884114e+03,2.392837e+03
1.887006e+03,2.408913e+03
1.889899e+03,2.401992e+03
1.892792e+03,2.394531e+03
1.895685e+03,2.377004e+03
1.898577e+03,2.372268e+03
1.901470e+03,2.361933e+03
1.904363e+03,2.359992e+03
1.907255e+03,2.345878e+03
1.910148e+03,2.362219e+03
1.913041e+03,2.333403e+03
1.915933e+03,2.331989e+03
1.918826e+03,2.325096e+03
1.921719e+03,2.333633e+03
1.924612e+03,2.312230e+03
1.927504e+03,2.304734e+03
1.930397e+03,2.307192e+03
1.933290e+03,2.298903e+03
1.936182e+03,2.275244e+03
1.939075e+03,2.275764e+03
1.941968e+03,2.283531e+03
1.944860e+03,2.270282e+03
1.947753e+03,2.278979e+03
1.950646e+03,2.261842e+03
1.953539e+03,2.257809e+03
1.956431e+03,2.271272e+03
1.959324e+03,2.253649e+03
1.962217e+03,2.243367e+03
1.965109e+03,2.230676e+03
1.968002e+03,2.240110e+03
1.970895e+03,2.254442e+03
1.973787e+03,2.243121e+03
1.976680e+03,2.224156e+03
1.979573e+03,2.208865e+03
1.982466e+03,2.211231e+03
1.985358e+03,2.205589e+03
1.988251e+03,2.208217e+03
1.991144e+03,2.187450e+03
1.994036e+03,2.171984e+03
1.996929e+03,2.192914e+03
1.999822e+03,2.208436e+03
2.002714e+03,2.178553e+03
2.005607e+03,2.175153e+03
2.008500e+03,2.157007e+03
2.011393e+03,2.157156e+03
2.014285e+03,2.163531e+03
2.017178e+03,2.157967e+03
2.020071e+03,2.136106e+03
2.022963e+03,2.130038e+03
2.025856e+03,2.113854e+03
2.028749e+03,2.104937e+03
2.031641e+03,2.114430e+03
2.034534e+03,2.104776e+03
2.037427e+03,2.098457e+03
2.040320e+03,2.104910e+03
2.043212e+03,2.088787e+03
2.046105e+03,2.091061e+03
2.048998e+03,2.094198e+03
2.051890e+03,2.085411e+03
2.054783e+03,2.065862e+03
2.057676e+03,2.051076e+03
2.060568e+03,2.069919e+03
2.063461e+03,2.053458e+03
2.066354e+03,2.048181e+03
2.069247e+03,2.024221e+03
2.072139e+03,2.027593e+03
2.075032e+03,2.029689e+03
2.077925e+03,2.027981e+03
2.080817e+03,2.037703e+03
2.083710e+03,2.007726e+03
2.086603e+03,1.985102e+03
2.089496e+03,1.992921e+03
2.092388e+03,1.994697e+03
2.095281e+03,1.992291e+03
2.098174e+03,1.983839e+03
2.101066e+03,1.974233e+03
2.103959e+03,1.970549e+03
2.106852e+03,1.970767e+03
2.109744e+03,1.964608e+03
2.112637e+03,1.954781e+03
2.115530e+03,1.938476e+03
2.118422e+03,1.939166e+03
2.121315e+03,1.948358e+03
2.124208e+03,1.959782e+03
2.127101e+03,1.919734e+03
2.129993e+03,1.911862e+03
2.132886e+03,1.911282e+03
2.135779e+03,1.895290e+03
2.138671e+03,1.905436e+03
2.141564e+03,1.898135e+03
2.144457e+03,1.894088e+03
2.147350e+03,1.900913e+03
2.150242e+03,1.893121e+03
2.153135e+03,1.874217e+03
2.156028e+03,1.863772e+03
2.158920e+03,1.878765e+03
2.161813e+03,1.864274e+03
2.164706e+03,1.857058e+03
2.167598e+03,1.827349e+03
2.170491e+03,1.852475e+03
2.173384e+03,1.826157e+03
2.176277e+03,1.842341e+03
2.179169e+03,1.817220e+03
2.182062e+03,1.804050e+03
2.184955e+03,1.811322e+03
2.187847e+03,1.803021e+03
2.190740e+03,1.810514e+03
2.193633e+03,1.781927e+03
2.196525e+03,1.793639e+03
2.199418e+03,1.782842e+03
2.202311e+03,1.769882e+03
2.205204e+03,1.780549e+03
2.208096e+03,1.755396e+03
2.210989e+03,1.738249e+03
2.213882e+03,1.750002e+03
2.216774e+03,1.771216e+03
2.219667e+03,1.725170e+03
2.222560e+03,1.717901e+03
2.225452e+03,1.709508e+03
2.228345e+03,1.714379e+03
2.231238e+03,1.743246e+03
2.234131e+03,1.733553e+03
2.237023e+03,1.728076e+03
2.239916e+03,1.692882e+03
2.242809e+03,1.693007e+03
2.245701e+03,1.697448e+03
2.248594e+03,1.686786e+03
2.251487e+03,1.690513e+03
2.254379e+03,1.687270e+03
2.257272e+03,1.676801e+03
2.260165e+03,1.656605e+03
2.263058e+03,1.661020e+03
2.265950e+03,1.641915e+03
2.268843e+03,1.644051e+03
2.271736e+03,1.629280e+03
2.274628e+03,1.642209e+03
2.277521e+03,1.634440e+03
2.280414e+03,1.624718e+03
2.283306e+03,1.633461e+03
2.286199e+03,1.619216e+03
2.289092e+03,1.606778e+03
2.291985e+03,1.603166e+03
2.294877e+03,1.587224e+03
2.297770e+03,1.616300e+03
2.300663e+03,1.611770e+03
2.303555e+03,1.574534e+03
2.306448e+03,1.583843e+03
2.309341e+03,1.570999e+03
2.312233e+03,1.572552e+03
2.315126e+03,1.589513e+03
2.318019e+03,1.551484e+03
2.320912e+03,1.551553e+03
2.323804e+03,1.551316e+03
2.326697e+03,1.568122e+03
2.329590e+03,1.574517e+03
2.332482e+03,1.539807e+03
2.335375e+03,1.530104e+03
2.338268e+03,1.526127e+03
2.341160e+03,1.518435e+03
2.344053e+03,1.518709e+03
2.346946e+03,1.524967e+03
2.349839e+03,1.529425e+03
2.352731e+03,1.502510e+03
2.355624e+03,1.526254e+03
2.358517e+03,1.501155e+03
2.361409e+03,1.510221e+03
2.364302e+03,1.495464e+03
2.367195e+03,1.486433e+03
2.370087e+03,1.490984e+03
2.372980e+03,1.477423e+03
2.375873e+03,1.478203e+03
2.378766e+03,1.477709e+03
2.381658e+03,1.471743e+03
2.384551e+03,1.458860e+03
2.387444e+03,1.453012e+03
2.390336e+03,1.460798e+03
2.393229e+03,1.442592e+03
2.396122e+03,1.446470e+03
2.399014e+03,1.441378e+03
2.401907e+03,1.433530e+03
2.404800e+03,1.429144e+03
2.407693e+03,1.437557e+03
2.410585e+03,1.422436e+03
2.413478e+03,1.435204e+03
2.416371e+03,1.417533e+03
2.419263e+03,1.411813e+03
2.422156e+03,1.415774e+03
2.425049e+03,1.408500e+03
2.427941e+03,1.393108e+03
2.430834e+03,1.389626e+03
2.433727e+03,1.389302e+03
2.436620e+03,1.394748e+03
2.439512e+03,1.387422e+03
2.442405e+03,1.373191e+03
2.445298e+03,1.382004e+03
2.448190e+03,1.360938e+03
2.451083e+03,1.371381e+03
2.453976e+03,1.380687e+03
2.456868e+03,1.356685e+03
2.459761e+03,1.351203e+03
2.462654e+03,1.337490e+03
2.465547e+03,1.343573e+03
2.468439e+03,1.343514e+03
2.471332e+03,1.326311e+03
2.474225e+03,1.328194e+03
2.477117e+03,1.314898e+03
2.480010e+03,1.348303e+03
2.482903e+03,1.312611e+03
2.485795e+03,1.312611e+03
2.488688e+03,1.315006e+03
2.491581e+03,1.309791e+03
2.494474e+03,1.309811e+03
2.497366e+03,1.306465e+03
2.500259e+03,1.293593e+03
2.503152e+03,1.283005e+03
2.506044e+03,1.278435e+03
2.508937e+03,1.276394e+03
2.511830e+03,1.284560e+03
2.514722e+03,1.268082e+03
2.517615e+03,1.271052e+03
2.520508e+03,1.262251e+03
2.523401e+03,1.256445e+03
2.526293e+03,1.252003e+03
2.529186e+03,1.244207e+03
2.532079e+03,1.250495e+03
2.534971e+03,1.265832e+03
2.537864e+03,1.242668e+03
2.540757e+03,1.220403e+03
2.543649e+03,1.228126e+03
2.546542e+03,1.230668e+03
2.549435e+03,1.233851e+03
2.552328e+03,1.235068e+03
2.555220e+03,1.240752e+03
2.558113e+03,1.232413e+03
2.561006e+03,1.219615e+03
2.563898e+03,1.208331e+03
2.566791e+03,1.216187e+03
2.569684e+03,1.214607e+03
2.572576e+03,1.194309e+03
2.575469e+03,1.197300e+03
2.578362e+03,1.185773e+03
2.581255e+03,1.192574e+03
2.584147e+03,1.183886e+03
2.587040e+03,1.167246e+03
2.589933e+03,1.185506e+03
2.592825e+03,1.186180e+03
2.595718e+03,1.183762e+03
2.598611e+03,1.180082e+03
2.601503e+03,1.144100e+03
2.604396e+03,1.167700e+03
2.607289e+03,1.154359e+03
2.610182e+03,1.145612e+03
2.613074e+03,1.159763e+03
2.615967e+03,1.154779e+03
2.618860e+03,1.156068e+03
2.621752e+03,1.138849e+03
2.624645e+03,1.147750e+03
2.627538e+03,1.153858e+03
2.630430e+03,1.135699e+03
2.633323e+03,1.111360e+03
2.636216e+03,1.117755e+03
2.639109e+03,1.135323e+03
2.642001e+03,1.106066e+03
2.644894e+03,1.117368e+03
2.647787e+03,1.095981e+03
2.650679e+03,1.118871e+03
2.653572e+03,1.088533e+03
2.656465e+03,1.100372e+03
2.659357e+03,1.109024e+03
2.662250e+03,1.104125e+03
2.665143e+03,1.112057e+03
2.668036e+03,1.077930e+03
2.670928e+03,1.089827e+03
2.673821e+03,1.102901e+03
2.676714e+03,1.075562e+03
2.679606e+03,1.077530e+03
2.682499e+03,1.066917e+03
2.685392e+03,1.091147e+03
2.688284e+03,1.084131e+03
2.691177e+03,1.077723e+03
2.694070e+03,1.069807e+03
2.696963e+03,1.060300e+03
2.699855e+03,1.061757e+03
2.702748e+03,1.084117e+03
2.705641e+03,1.074367e+03
2.708533e+03,1.031875e+03
2.711426e+03,1.041988e+03
2.714319e+03,1.063791e+03
2.717211e+03,1.059052e+03
2.720104e+03,1.048661e+03
2.722997e+03,1.046815e+03
2.725890e+03,1.039994e+03
2.728782e+03,1.018515e+03
2.731675e+03,1.044703e+03
2.734568e+03,1.041609e+03
2.737460e+03,1.009427e+03
2.740353e+03,1.030569e+03
2.743246e+03,1.048406e+03
2.746138e+03,1.024832e+03
2.749031e+03,1.029192e+03
2.751924e+03,1.015223e+03
2.754817e+03,1.021819e+03
2.757709e+03,1.011155e+03
2.760602e+03,1.033022e+03
2.763495e+03,1.007104e+03
2.766387e+03,9.924681e+02
2.769280e+03,9.879923e+02
2.772173e+03,1.009568e+03
2.775065e+03,9.766041e+02
2.777958e+03,9.922269e+02
2.780851e+03,9.940159e+02
2.783744e+03,9.722632e+02
2.786636e+03,9.742913e+02
2.789529e+03,9.624780e+02
2.792422e+03,9.838416e+02
2.795314e+03,9.781757e+02
2.798207e+03,9.884772e+02
2.801100e+03,9.662042e+02
2.803992e+03,9.888158e+02
2.806885e+03,9.778553e+02
2.809778e+03,9.447975e+02
2.812671e+03,9.747664e+02
2.815563e+03,9.632595e+02
2.818456e+03,9.839609e+02
2.821349e+03,9.450394e+02
2.824241e+03,9.471382e+02
2.827134e+03,9.561504e+02
2.830027e+03,9.516693e+02
2.832919e+03,9.449078e+02
2.835812e+03,9.734436e+02
2.838705e+03,9.578499e+02
2.841598e+03,9.592272e+02
2.844490e+03,9.384239e+02
2.847383e+03,9.333026e+02
2.850276e+03,9.346331e+02
2.853168e+03,9.470670e+02
2.856061e+03,9.446735e+02
2.858954e+03,9.477994e+02
2.861846e+03,9.305223e+02
2.864739e+03,9.487386e+02
2.867632e+03,9.343287e+02
2.870525e+03,9.404939e+02
2.873417e+03,9.293525e+02
2.876310e+03,9.420147e+02
2.879203e+03,9.363260e+02
2.882095e+03,9.351948e+02
2.884988e+03,9.532332e+02
2.887881e+03,9.286374e+02
2.890773e+03,9.411575e+02
2.893666e+03,9.312141e+02
2.896559e+03,9.383088e+02
2.899452e+03,9.502473e+02
2.902344e+03,9.620611e+02
2.905237e+03,9.385972e+02
2.908130e+03,9.131342e+02
2.911022e+03,9.066161e+02
2.913915e+03,9.475425e+02
2.916808e+03,9.158198e+02
2.919700e+03,9.030221e+02
2.922593e+03,9.133929e+02
2.925486e+03,9.007000e+02
2.928379e+03,9.109795e+02
2.931271e+03,9.001146e+02
2.934164e+03,8.789107e+02
2.937057e+03,8.972863e+02
2.939949e+03,8.840341e+02
2.942842e+03,8.836249e+02
2.945735e+03,8.841743e+02
2.948627e+03,9.035389e+02
2.951520e+03,8.876817e+02
2.954413e+03,9.041934e+02
2.957306e+03,9.503842e+02
2.960198e+03,8.740834e+02
2.963091e+03,8.573190e+02
2.965984e+03,8.891750e+02
2.968876e+03,8.694355e+02
2.971769e+03,8.535855e+02
2.974662e+03,8.601505e+02
2.977554e+03,8.746742e+02
2.980447e+03,8.657297e+02
2.983340e+03,8.802867e+02
2.986233e+03,8.227366e+02
2.989125e+03,8.522935e+02
2.992018e+03,8.523438e+02
2.994911e+03,8.264697e+02
2.997803e+03,8.556416e+02
3.000696e+03,8.697662e+02
3.003589e+03,8.217688e+02
3.006481e+03,8.178988e+02
3.009374e+03,8.455818e+02
3.012267e+03,8.429752e+02
3.015160e+03,8.488492e+02
3.018052e+03,8.241351e+02
3.020945e+03,8.272525e+02
3.023838e+03,8.260193e+02
3.026730e+03,8.452108e+02
3.029623e+03,8.403167e+02
3.032516e+03,8.333602e+02
3.035408e+03,8.069493e+02
3.038301e+03,8.482808e+02
3.041194e+03,8.266611e+02
3.044087e+03,8.151476e+02
3.046979e+03,8.232030e+02
3.049872e+03,8.099144e+02
3.052765e+03,8.090289e+02
3.055657e+03,8.401476e+02
3.058550e+03,8.366335e+02
3.061443e+03,8.118504e+02
3.064335e+03,7.963582e+02
3.067228e+03,8.137604e+02
3.070121e+03,8.099332e+02
3.073014e+03,8.081251e+02
3.075906e+03,8.110887e+02
3.078799e+03,8.249093e+02
3.081692e+03,8.049365e+02
3.084584e+03,8.100193e+02
3.087477e+03,8.160792e+02
3.090370e+03,8.068890e+02
3.093262e+03,8.574171e+02
3.096155e+03,7.781473e+02
3.099048e+03,8.393244e+02
3.101941e+03,8.320030e+02
3.104833e+03,8.069141e+02
3.107726e+03,7.784263e+02
3.110619e+03,8.068495e+02
3.113511e+03,7.867642e+02
3.116404e+03,8.311875e+02
3.119297e+03,8.181898e+02
3.122189e+03,8.247024e+02
3.125082e+03,7.803634e+02
3.127975e+03,7.722082e+02
3.130868e+03,8.094044e+02
3.133760e+03,7.811703e+02
3.136653e+03,8.024018e+02
3.139546e+03,8.253309e+02
3.142438e+03,8.291569e+02
3.145331e+03,8.361646e+02
3.148224e+03,7.599792e+02
3.151116e+03,7.959695e+02
3.154009e+03,7.935923e+02
3.156902e+03,7.765795e+02
3.159795e+03,8.115441e+02
3.162687e+03,8.033012e+02
3.165580e+03,8.008086e+02
3.168473e+03,7.977841e+02
3.171365e+03,7.976549e+02
3.174258e+03,8.317141e+02
3.177151e+03,8.067381e+02
3.180043e+03,8.158433e+02
3.182936e+03,8.119492e+02
3.185829e+03,7.782412e+02
3.188722e+03,8.113319e+02
3.191614e+03,8.219658e+02
3.194507e+03,7.979421e+02
3.197400e+03,8.396672e+02
3.200292e+03,8.007188e+02
3.203185e+03,0.000000e+00
3.206078e+03,0.000000e+00
3.208970e+03,0.000000e+00
3.211863e+03,0.000000e+00
3.214756e+03,0.000000e+00
3.217649e+03,0.000000e+00
3.220541e+03,0.000000e+00
3.223434e+03,0.000000e+00
3.226327e+03,0.000000e+00
3.229219e+03,0.000000e+00
3.232112e+03,0.000000e+00
3.235005e+03,0.000000e+00
3.237897e+03,0.000000e+00
3.240790e+03,0.000000e+00
3.243683e+03,0.000000e+00
3.246576e+03,0.000000e+00
3.249468e+03,0.000000e+00
3.252361e+03,0.000000e+00
3.255254e+03,0.000000e+00
3.258146e+03,0.000000e+00
3.261039e+03,0.000000e+00
3.263932e+03,0.000000e+00
3.266824e+03,0.000000e+00
3.269717e+03,0.000000e+00
3.272610e+03,0.000000e+00
3.275503e+03,0.000000e+00
3.278395e+03,0.000000e+00
3.281288e+03,0.000000e+00
3.284181e+03,0.000000e+00
3.287073e+03,0.000000e+00
3.289966e+03,0.000000e+00
3.292859e+03,0.000000e+00
3.295751e+03,0.000000e+00
3.298644e+03,0.000000e+00
3.301537e+03,0.000000e+00
3.304430e+03,0.000000e+00
3.307322e+03,0.000000e+00
3.310215e+03,0.000000e+00
3.313108e+03,0.000000e+00
3.316000e+03,0.000000e+00
3.318893e+03,0.000000e+00
3.321786e+03,0.000000e+00
3.324678e+03,0.000000e+00
3.327571e+03,0.000000e+00
3.330464e+03,0.000000e+00
3.333357e+03,0.000000e+00
3.336249e+03,0.000000e+00
3.339142e+03,0.000000e+00
3.342035e+03,0.000000e+00
3.344927e+03,0.000000e+00
3.347820e+03,0.000000e+00
3.350713e+03,0.000000e+00
3.353605e+03,0.000000e+00
3.356498e+03,0.000000e+00
3.359391e+03,0.000000e+00
3.362284e+03,0.000000e+00
3.365176e+03,0.000000e+00
3.368069e+03,0.000000e+00
3.370962e+03,0.000000e+00
3.373854e+03,0.000000e+00
3.376747e+03,0.000000e+00
3.379640e+03,0.000000e+00
3.382532e+03,0.000000e+00
3.385425e+03,0.000000e+00
3.388318e+03,0.000000e+00
3.391211e+03,0.000000e+00
3.394103e+03,0.000000e+00
3.396996e+03,0.000000e+00
3.399889e+03,0.000000e+00
3.402781e+03,0.000000e+00
3.405674e+03,0.000000e+00
3.408567e+03,0.000000e+00
3.411459e+03,0.000000e+00
3.414352e+03,0.000000e+00
3.417245e+03,0.000000e+00
3.420138e+03,0.000000e+00
3.423030e+03,0.000000e+00
3.425923e+03,0.000000e+00
3.428816e+03,0.000000e+00
3.431708e+03,0.000000e+00
3.434601e+03,0.000000e+00
3.437494e+03,0.000000e+00
3.440386e+03,0.000000e+00
3.443279e+03,0.000000e+00
3.446172e+03,0.000000e+00
3.449065e+03,0.000000e+00
3.451957e+03,0.000000e+00
3.454850e+03,0.000000e+00
3.457743e+03,0.000000e+00
3.460635e+03,0.000000e+00
3.463528e+03,0.000000e+00
3.466421e+03,0.000000e+00
3.469313e+03,0.000000e+00
3.472206e+03,0.000000e+00
3.475099e+03,0.000000e+00
3.477992e+03,0.000000e+00
3.480884e+03,0.000000e+00
3.483777e+03,0.000000e+00
3.486670e+03,0.000000e+00
3.489563e+03,0.000000e+00
3.492455e+03,0.000000e+00
3.495348e+03,0.000000e+00
3.498240e+03,0.000000e+00
3.500169e+03,0.000000e+00