File: RAMAN_data/23052023_r3/blue fibre12.CSV
9.931763e+01,0.000000e+00
1.022103e+02,0.000000e+00
1.051030e+02,0.000000e+00
1.079957e+02,0.000000e+00
1.108884e+02,0.000000e+00
1.137811e+02,0.000000e+00
1.166738e+02,0.000000e+00
1.195665e+02,0.000000e+00
1.224592e+02,0.000000e+00
1.253519e+02,0.000000e+00
1.282446e+02,0.000000e+00
1.311373e+02,0.000000e+00
1.340300e+02,0.000000e+00
1.369227e+02,0.000000e+00
1.398154e+02,0.000000e+00
1.427081e+02,0.000000e+00
1.456008e+02,0.000000e+00
1.484935e+02,0.000000e+00
1.513862e+02,0.000000e+00
1.542789e+02,0.000000e+00
1.571716e+02,0.000000e+00
1.600643e+02,0.000000e+00
1.629570e+02,0.000000e+00
1.658497e+02,0.000000e+00
1.687424e+02,0.000000e+00
1.716351e+02,0.000000e+00
1.745278e+02,0.000000e+00
1.774205e+02,0.000000e+00
1.803132e+02,0.000000e+00
1.832059e+02,0.000000e+00
1.860986e+02,0.000000e+00
1.889913e+02,0.000000e+00
1.918840e+02,0.000000e+00
1.947767e+02,0.000000e+00
1.976694e+02,0.000000e+00
2.005621e+02,1.023821e+04
2.034548e+02,1.028298e+04
2.063475e+02,1.031347e+04
2.092402e+02,1.028744e+04
2.121329e+02,1.029362e+04
2.150256e+02,1.033038e+04
2.179183e+02,1.034679e+04
2.208110e+02,1.038337e+04
2.237037e+02,1.039482e+04
2.265964e+02,1.038093e+04
2.294892e+02,1.041276e+04
2.323819e+02,1.044710e+04
2.352746e+02,1.047058e+04
2.381673e+02,1.050604e+04
2.410600e+02,1.049897e+04
2.439527e+02,1.050037e+04
2.468454e+02,1.054304e+04
2.497381e+02,1.054383e+04
2.526308e+02,1.057612e+04
2.555235e+02,1.059819e+04
2.584161e+02,1.058485e+04
2.613088e+02,1.061820e+04
2.642015e+02,1.064098e+04
2.670942e+02,1.067897e+04
2.699869e+02,1.070375e+04
2.728796e+02,1.070296e+04
2.757723e+02,1.073969e+04
2.786650e+02,1.080276e+04
2.815577e+02,1.079224e+04
2.844504e+02,1.079211e+04
2.873431e+02,1.076493e+04
2.902358e+02,1.079267e+04
2.931285e+02,1.081375e+04
2.960212e+02,1.083058e+04
2.989139e+02,1.083234e+04
3.018066e+02,1.083203e+04
3.046993e+02,1.086226e+04
3.075920e+02,1.086665e+04
3.104847e+02,1.087727e+04
3.133774e+02,1.091880e+04
3.162701e+02,1.094505e+04
3.191628e+02,1.090906e+04
3.220555e+02,1.094303e+04
3.249482e+02,1.095438e+04
3.278409e+02,1.098338e+04
3.307336e+02,1.100403e+04
3.336263e+02,1.102274e+04
3.365190e+02,1.100542e+04
3.394117e+02,1.102260e+04
3.423044e+02,1.105207e+04
3.451971e+02,1.106865e+04
3.480898e+02,1.107607e+04
3.509825e+02,1.109291e+04
3.538752e+02,1.110825e+04
3.567680e+02,1.115126e+04
3.596607e+02,1.118770e+04
3.625534e+02,1.117297e+04
3.654461e+02,1.114710e+04
3.683388e+02,1.113924e+04
3.712315e+02,1.116843e+04
3.741242e+02,1.114096e+04
3.770169e+02,1.115083e+04
3.799096e+02,1.117977e+04
3.828023e+02,1.115755e+04
3.856950e+02,1.116831e+04
3.885877e+02,1.117937e+04
3.914804e+02,1.115688e+04
3.943731e+02,1.116384e+04
3.972658e+02,1.112533e+04
4.001585e+02,1.115889e+04
4.030512e+02,1.115613e+04
4.059439e+02,1.116821e+04
4.088366e+02,1.117857e+04
4.117293e+02,1.114972e+04
4.146220e+02,1.112720e+04
4.175147e+02,1.115225e+04
4.204074e+02,1.114548e+04
4.233001e+02,1.113660e+04
4.261928e+02,1.112958e+04
4.290855e+02,1.114288e+04
4.319782e+02,1.111907e+04
4.348709e+02,1.114887e+04
4.377636e+02,1.115314e+04
4.406563e+02,1.115239e+04
4.435490e+02,1.117920e+04
4.464417e+02,1.114046e+04
4.493344e+02,1.114836e+04
4.522271e+02,1.117677e+04
4.551198e+02,1.116574e+04
4.580125e+02,1.113127e+04
4.609052e+02,1.112602e+04
4.637979e+02,1.113399e+04
4.666906e+02,1.111457e+04
4.695833e+02,1.114896e+04
4.724760e+02,1.110345e+04
4.753687e+02,1.111730e+04
4.782614e+02,1.111863e+04
4.811541e+02,1.112411e+04
4.840468e+02,1.114772e+04
4.869395e+02,1.114542e+04
4.898322e+02,1.109784e+04
4.927249e+02,1.110469e+04
4.956176e+02,1.111511e+04
4.985103e+02,1.115240e+04
5.014030e+02,1.111184e+04
5.042957e+02,1.109271e+04
5.071884e+02,1.107387e+04
5.100811e+02,1.105864e+04
5.129738e+02,1.110003e+04
5.158665e+02,1.114153e+04
5.187592e+02,1.105058e+04
5.216519e+02,1.107698e+04
5.245446e+02,1.106168e+04
5.274373e+02,1.108509e+04
5.303300e+02,1.109310e+04
5.332227e+02,1.108890e+04
5.361154e+02,1.108901e+04
5.390081e+02,1.106029e+04
5.419008e+02,1.112575e+04
5.447935e+02,1.108536e+04
5.476862e+02,1.107607e+04
5.505789e+02,1.105329e+04
5.534716e+02,1.103417e+04
5.563643e+02,1.106115e+04
5.592570e+02,1.105182e+04
5.621497e+02,1.102608e+04
5.650424e+02,1.103628e+04
5.679351e+02,1.097703e+04
5.708278e+02,1.095694e+04
5.737205e+02,1.095977e+04
5.766132e+02,1.097104e+04
5.795059e+02,1.102924e+04
5.823986e+02,1.097414e+04
5.852913e+02,1.094931e+04
5.881840e+02,1.094752e+04
5.910767e+02,1.096346e+04
5.939694e+02,1.097898e+04
5.968621e+02,1.095767e+04
5.997548e+02,1.093482e+04
6.026475e+02,1.092685e+04
6.055402e+02,1.095409e+04
6.084329e+02,1.097103e+04
6.113256e+02,1.095207e+04
6.142183e+02,1.091960e+04
6.171110e+02,1.088881e+04
6.200037e+02,1.086043e+04
6.228964e+02,1.087043e+04
6.257891e+02,1.088320e+04
6.286818e+02,1.085899e+04
6.315745e+02,1.084634e+04
6.344672e+02,1.083510e+04
6.373599e+02,1.083938e+04
6.402526e+02,1.079550e+04
6.431453e+02,1.078055e+04
6.460380e+02,1.077391e+04
6.489307e+02,1.078951e+04
6.518234e+02,1.076865e+04
6.547161e+02,1.079260e+04
6.576088e+02,1.075507e+04
6.605015e+02,1.071255e+04
6.633942e+02,1.075139e+04
6.662869e+02,1.073318e+04
6.691796e+02,1.074605e+04
6.720723e+02,1.072925e+04
6.749650e+02,1.070926e+04
6.778577e+02,1.064381e+04
6.807504e+02,1.068797e+04
6.836431e+02,1.069147e+04
6.865358e+02,1.064230e+04
6.894285e+02,1.062455e+04
6.923212e+02,1.060961e+04
6.952139e+02,1.057168e+04
6.981066e+02,1.061216e+04
7.009993e+02,1.062535e+04
7.038920e+02,1.058951e+04
7.067847e+02,1.056849e+04
7.096774e+02,1.056659e+04
7.125701e+02,1.055687e+04
7.154628e+02,1.054885e+04
7.183555e+02,1.050511e+04
7.212482e+02,1.053379e+04
7.241409e+02,1.054249e+04
7.270336e+02,1.048401e+04
7.299263e+02,1.044688e+04
7.328190e+02,1.042699e+04
7.357117e+02,1.044409e+04
7.386044e+02,1.042693e+04
7.414971e+02,1.041788e+04
7.443898e+02,1.042980e+04
7.472825e+02,1.040279e+04
7.501752e+02,1.040705e+04
7.530679e+02,1.037996e+04
7.559606e+02,1.040101e+04
7.588533e+02,1.041043e+04
7.617460e+02,1.037482e+04
7.646387e+02,1.033896e+04
7.675314e+02,1.034457e+04
7.704241e+02,1.030597e+04
7.733168e+02,1.029306e+04
7.762095e+02,1.031135e+04
7.791022e+02,1.031779e+04
7.819949e+02,1.026497e+04
7.848876e+02,1.026373e+04
7.877803e+02,1.026896e+04
7.906730e+02,1.026830e+04
7.935657e+02,1.026847e+04
7.964584e+02,1.020499e+04
7.993511e+02,1.020720e+04
8.022438e+02,1.017924e+04
8.051365e+02,1.020012e+04
8.080292e+02,1.020615e+04
8.109219e+02,1.016302e+04
8.138146e+02,1.013961e+04
8.167073e+02,1.014980e+04
8.196000e+02,1.012578e+04
8.224927e+02,1.009043e+04
8.253854e+02,1.011506e+04
8.282781e+02,1.009818e+04
8.311708e+02,1.005862e+04
8.340635e+02,1.010259e+04
8.369562e+02,1.006014e+04
8.398489e+02,1.006089e+04
8.427416e+02,1.004340e+04
8.456343e+02,9.997979e+03
8.485270e+02,1.001165e+04
8.514197e+02,1.001021e+04
8.543124e+02,9.984718e+03
8.572051e+02,9.979885e+03
8.600978e+02,9.958101e+03
8.629905e+02,9.945339e+03
8.658832e+02,9.937655e+03
8.687759e+02,9.888116e+03
8.716686e+02,9.917441e+03
8.745613e+02,9.878308e+03
8.774540e+02,9.870750e+03
8.803467e+02,9.868933e+03
8.832394e+02,9.884751e+03
8.861321e+02,9.874279e+03
8.890248e+02,9.839271e+03
8.919175e+02,9.824592e+03
8.948102e+02,9.796376e+03
8.977029e+02,9.811497e+03
9.005956e+02,9.781927e+03
9.034883e+02,9.774408e+03
9.063810e+02,9.718710e+03
9.092737e+02,9.729030e+03
9.121664e+02,9.704188e+03
9.150591e+02,9.732344e+03
9.179518e+02,9.702350e+03
9.208445e+02,9.642816e+03
9.237372e+02,9.633609e+03
9.266299e+02,9.615460e+03
9.295226e+02,9.614564e+03
9.324153e+02,9.607875e+03
9.353080e+02,9.611979e+03
9.382007e+02,9.575290e+03
9.410934e+02,9.565283e+03
9.439861e+02,9.534584e+03
9.468788e+02,9.562668e+03
9.497715e+02,9.555527e+03
9.526642e+02,9.505365e+03
9.555569e+02,9.467390e+03
9.584496e+02,9.481783e+03
9.613423e+02,9.483324e+03
9.642350e+02,9.486808e+03
9.671277e+02,9.438705e+03
9.700204e+02,9.424965e+03
9.729131e+02,9.388650e+03
9.758058e+02,9.379399e+03
9.786985e+02,9.384860e+03
9.815912e+02,9.418644e+03
9.844839e+02,9.333009e+03
9.873766e+02,9.338678e+03
9.902693e+02,9.303197e+03
9.931620e+02,9.323625e+03
9.960547e+02,9.303054e+03
9.989474e+02,9.296075e+03
1.001840e+03,9.251413e+03
1.004733e+03,9.247219e+03
1.007626e+03,9.258434e+03
1.010518e+03,9.270779e+03
1.013411e+03,9.237325e+03
1.016304e+03,9.166824e+03
1.019196e+03,9.169774e+03
1.022089e+03,9.183766e+03
1.024982e+03,9.175824e+03
1.027875e+03,9.178245e+03
1.030767e+03,9.126611e+03
1.033660e+03,9.133515e+03
1.036552e+03,9.129440e+03
1.039445e+03,9.132308e+03
1.042338e+03,9.112499e+03
1.045231e+03,9.110134e+03
1.048123e+03,9.082375e+03
1.051016e+03,9.061699e+03
1.053909e+03,9.063207e+03
1.056802e+03,9.059943e+03
1.059694e+03,9.011594e+03
1.062587e+03,9.016619e+03
1.065479e+03,8.973068e+03
1.068372e+03,8.984917e+03
1.071265e+03,9.013559e+03
1.074158e+03,8.970863e+03
1.077050e+03,8.947236e+03
1.079943e+03,8.930665e+03
1.082836e+03,8.951198e+03
1.085729e+03,8.940960e+03
1.088621e+03,8.910876e+03
1.091514e+03,8.891537e+03
1.094406e+03,8.887506e+03
1.097299e+03,8.870455e+03
1.100192e+03,8.879750e+03
1.103085e+03,8.864980e+03
1.105977e+03,8.834902e+03
1.108870e+03,8.790719e+03
1.111763e+03,8.787169e+03
1.114656e+03,8.780171e+03
1.117548e+03,8.800769e+03
1.120441e+03,8.775318e+03
1.123334e+03,8.766363e+03
1.126226e+03,8.755557e+03
1.129119e+03,8.713331e+03
1.132012e+03,8.720253e+03
1.134904e+03,8.731008e+03
1.137797e+03,8.702852e+03
1.140690e+03,8.699036e+03
1.143583e+03,8.646796e+03
1.146475e+03,8.665044e+03
1.149368e+03,8.620514e+03
1.152261e+03,8.645556e+03
1.155153e+03,8.574543e+03
1.158046e+03,8.585459e+03
1.160939e+03,8.579436e+03
1.163831e+03,8.567400e+03
1.166724e+03,8.540122e+03
1.169617e+03,8.546762e+03
1.172510e+03,8.479195e+03
1.175402e+03,8.524865e+03
1.178295e+03,8.520532e+03
1.181188e+03,8.487566e+03
1.184080e+03,8.486446e+03
1.186973e+03,8.459715e+03
1.189866e+03,8.434673e+03
1.192758e+03,8.438269e+03
1.195651e+03,8.435818e+03
1.198544e+03,8.441593e+03
1.201437e+03,8.410766e+03
1.204329e+03,8.378915e+03
1.207222e+03,8.384074e+03
1.210115e+03,8.382491e+03
1.213007e+03,8.390772e+03
1.215900e+03,8.352561e+03
1.218793e+03,8.355471e+03
1.221685e+03,8.345212e+03
1.224578e+03,8.356379e+03
1.227471e+03,8.342105e+03
1.230364e+03,8.306429e+03
1.233256e+03,8.228644e+03
1.236149e+03,8.266614e+03
1.239042e+03,8.273373e+03
1.241934e+03,8.266201e+03
1.244827e+03,8.234794e+03
1.247720e+03,8.214248e+03
1.250612e+03,8.184203e+03
1.253505e+03,8.192247e+03
1.256398e+03,8.184381e+03
1.259291e+03,8.197583e+03
1.262183e+03,8.140276e+03
1.265076e+03,8.123930e+03
1.267969e+03,8.114322e+03
1.270861e+03,8.129617e+03
1.273754e+03,8.117800e+03
1.276647e+03,8.094107e+03
1.279539e+03,8.063877e+03
1.282432e+03,8.061531e+03
1.285325e+03,8.052428e+03
1.288218e+03,8.068903e+03
1.291110e+03,8.056981e+03
1.294003e+03,8.066703e+03
1.296896e+03,7.992811e+03
1.299788e+03,8.032123e+03
1.302681e+03,8.018857e+03
1.305574e+03,8.009626e+03
1.308466e+03,7.995010e+03
1.311359e+03,7.969866e+03
1.314252e+03,7.943360e+03
1.317145e+03,7.947748e+03
1.320037e+03,7.960351e+03
1.322930e+03,7.939377e+03
1.325823e+03,7.897493e+03
1.328715e+03,7.927313e+03
1.331608e+03,7.899359e+03
1.334501e+03,7.890573e+03
1.337393e+03,7.884159e+03
1.340286e+03,7.879107e+03
1.343179e+03,7.850454e+03
1.346072e+03,7.825833e+03
1.348964e+03,7.825914e+03
1.351857e+03,7.779662e+03
1.354750e+03,7.805721e+03
1.357642e+03,7.779571e+03
1.360535e+03,7.736906e+03
1.363428e+03,7.782198e+03
1.366320e+03,7.769084e+03
1.369213e+03,7.755682e+03
1.372106e+03,7.715170e+03
1.374999e+03,7.672412e+03
1.377891e+03,7.694358e+03
1.380784e+03,7.700725e+03
1.383677e+03,7.675182e+03
1.386569e+03,7.627978e+03
1.389462e+03,7.626875e+03
1.392355e+03,7.600939e+03
1.395247e+03,7.587012e+03
1.398140e+03,7.615147e+03
1.401033e+03,7.580229e+03
1.403926e+03,7.553555e+03
1.406818e+03,7.529334e+03
1.409711e+03,7.542256e+03
1.412604e+03,7.546750e+03
1.415496e+03,7.506112e+03
1.418389e+03,7.549179e+03
1.421282e+03,7.504205e+03
1.424174e+03,7.477222e+03
1.427067e+03,7.475704e+03
1.429960e+03,7.476932e+03
1.432853e+03,7.463504e+03
1.435745e+03,7.416866e+03
1.438638e+03,7.413838e+03
1.441531e+03,7.433260e+03
1.444423e+03,7.409013e+03
1.447316e+03,7.394401e+03
1.450209e+03,7.387783e+03
1.453101e+03,7.389170e+03
1.455994e+03,7.365903e+03
1.458887e+03,7.356390e+03
1.461780e+03,7.346333e+03
1.464672e+03,7.334900e+03
1.467565e+03,7.318531e+03
1.470458e+03,7.306407e+03
1.473350e+03,7.288784e+03
1.476243e+03,7.283298e+03
1.479136e+03,7.251804e+03
1.482028e+03,7.261861e+03
1.484921e+03,7.236844e+03
1.487814e+03,7.214326e+03
1.490707e+03,7.234906e+03
1.493599e+03,7.193284e+03
1.496492e+03,7.206264e+03
1.499385e+03,7.171462e+03
1.502277e+03,7.160223e+03
1.505170e+03,7.179597e+03
1.508063e+03,7.159576e+03
1.510955e+03,7.163920e+03
1.513848e+03,7.121193e+03
1.516741e+03,7.118716e+03
1.519634e+03,7.104939e+03
1.522526e+03,7.109827e+03
1.525419e+03,7.095725e+03
1.528312e+03,7.049429e+03
1.531204e+03,7.058665e+03
1.534097e+03,7.039479e+03
1.536990e+03,7.031874e+03
1.539882e+03,7.024455e+03
1.542775e+03,7.018276e+03
1.545668e+03,7.033465e+03
1.548561e+03,7.000186e+03
1.551453e+03,6.988124e+03
1.554346e+03,7.013458e+03
1.557239e+03,6.972857e+03
1.560131e+03,6.979583e+03
1.563024e+03,6.983211e+03
1.565917e+03,7.012890e+03
1.568809e+03,7.033967e+03
1.571702e+03,7.034880e+03
1.574595e+03,6.950686e+03
1.577488e+03,6.997896e+03
1.580380e+03,6.972578e+03
1.583273e+03,6.950586e+03
1.586166e+03,6.903821e+03
1.589058e+03,6.876212e+03
1.591951e+03,6.875843e+03
1.594844e+03,6.856608e+03
1.597736e+03,6.830589e+03
1.600629e+03,6.830122e+03
1.603522e+03,6.823758e+03
1.606415e+03,6.808836e+03
1.609307e+03,6.777914e+03
1.612200e+03,6.758015e+03
1.615093e+03,6.757694e+03
1.617985e+03,6.770068e+03
1.620878e+03,6.714611e+03
1.623771e+03,6.711399e+03
1.626663e+03,6.694530e+03
1.629556e+03,6.698811e+03
1.632449e+03,6.651557e+03
1.635342e+03,6.630636e+03
1.638234e+03,6.635886e+03
1.641127e+03,6.634173e+03
1.644020e+03,6.620039e+03
1.646912e+03,6.581423e+03
1.649805e+03,6.545948e+03
1.652698e+03,6.571096e+03
1.655590e+03,6.550852e+03
1.658483e+03,6.542759e+03
1.661376e+03,6.523291e+03
1.664269e+03,6.533865e+03
1.667161e+03,6.529045e+03
1.670054e+03,6.507443e+03
1.672947e+03,6.504924e+03
1.675839e+03,6.475212e+03
1.678732e+03,6.452900e+03
1.681625e+03,6.478401e+03
1.684517e+03,6.419069e+03
1.687410e+03,6.436268e+03
1.690303e+03,6.382407e+03
1.693196e+03,6.379229e+03
1.696088e+03,6.377136e+03
1.698981e+03,6.373836e+03
1.701874e+03,6.343879e+03
1.704766e+03,6.368346e+03
1.707659e+03,6.343463e+03
1.710552e+03,6.341182e+03
1.713444e+03,6.304181e+03
1.716337e+03,6.303196e+03
1.719230e+03,6.277199e+03
1.722123e+03,6.261395e+03
1.725015e+03,6.268328e+03
1.727908e+03,6.256963e+03
1.730801e+03,6.196583e+03
1.733693e+03,6.232482e+03
1.736586e+03,6.223938e+03
1.739479e+03,6.197527e+03
1.742371e+03,6.194910e+03
1.745264e+03,6.166818e+03
1.748157e+03,6.138812e+03
1.751050e+03,6.140331e+03
1.753942e+03,6.160414e+03
1.756835e+03,6.138735e+03
1.759728e+03,6.096894e+03
1.762620e+03,6.077640e+03
1.765513e+03,6.087428e+03
1.768406e+03,6.094864e+03
1.771298e+03,6.076525e+03
1.774191e+03,6.076638e+03
1.777084e+03,6.047614e+03
1.779977e+03,6.016393e+03
1.782869e+03,6.036808e+03
1.785762e+03,6.056281e+03
1.788655e+03,6.001106e+03
1.791547e+03,5.971380e+03
1.794440e+03,5.992904e+03
1.797333e+03,5.988071e+03
1.800225e+03,5.955515e+03
1.803118e+03,5.930761e+03
1.806011e+03,5.931604e+03
1.808904e+03,5.918606e+03
1.811796e+03,5.912625e+03
1.814689e+03,5.877833e+03
1.817582e+03,5.871847e+03
1.820474e+03,5.861669e+03
1.823367e+03,5.858969e+03
1.826260e+03,5.851727e+03
1.829152e+03,5.825600e+03
1.832045e+03,5.839583e+03
1.834938e+03,5.824623e+03
1.837831e+03,5.777724e+03
1.840723e+03,5.770055e+03
1.843616e+03,5.801340e+03
1.846509e+03,5.786017e+03
1.849401e+03,5.752150e+03
1.852294e+03,5.745536e+03
1.855187e+03,5.688650e+03
1.858079e+03,5.722262e+03
1.860972e+03,5.713163e+03
1.863865e+03,5.698881e+03
1.866758e+03,5.675157e+03
1.869650e+03,5.662970e+03
1.872543e+03,5.652293e+03
1.875436e+03,5.624266e+03
1.878328e+03,5.642790e+03
1.881221e+03,5.594519e+03
1.884114e+03,5.602266e+03
1.887006e+03,5.596069e+03
1.889899e+03,5.576713e+03
1.892792e+03,5.569924e+03
1.895685e+03,5.541784e+03
1.898577e+03,5.521864e+03
1.901470e+03,5.538865e+03
1.904363e+03,5.514734e+03
1.907255e+03,5.513711e+03
1.910148e+03,5.505213e+03
1.913041e+03,5.478875e+03
1.915933e+03,5.460224e+03
1.918826e+03,5.455544e+03
1.921719e+03,5.427376e+03
1.924612e+03,5.415612e+03
1.927504e+03,5.398962e+03
1.930397e+03,5.403743e+03
1.933290e+03,5.391149e+03
1.936182e+03,5.367625e+03
1.939075e+03,5.331511e+03
1.941968e+03,5.367375e+03
1.944860e+03,5.339734e+03
1.947753e+03,5.319441e+03
1.950646e+03,5.310802e+03
1.953539e+03,5.326035e+03
1.956431e+03,5.276811e+03
1.959324e+03,5.294445e+03
1.962217e+03,5.288313e+03
1.965109e+03,5.244763e+03
1.968002e+03,5.278592e+03
1.970895e+03,5.235756e+03
1.973787e+03,5.234205e+03
1.976680e+03,5.199307e+03
1.979573e+03,5.181291e+03
1.982466e+03,5.175494e+03
1.985358e+03,5.177112e+03
1.988251e+03,5.178513e+03
1.991144e+03,5.116722e+03
1.994036e+03,5.124490e+03
1.996929e+03,5.122883e+03
1.999822e+03,5.132546e+03
2.002714e+03,5.086593e+03
2.005607e+03,5.081307e+03
2.008500e+03,5.067278e+03
2.011393e+03,5.065648e+03
2.014285e+03,5.038930e+03
2.017178e+03,5.077997e+03
2.020071e+03,5.008487e+03
2.022963e+03,5.016443e+03
2.025856e+03,4.978765e+03
2.028749e+03,4.993218e+03
2.031641e+03,4.970272e+03
2.034534e+03,4.937957e+03
2.037427e+03,4.928384e+03
2.040320e+03,4.918025e+03
2.043212e+03,4.921975e+03
2.046105e+03,4.904917e+03
2.048998e+03,4.876907e+03
2.051890e+03,4.888538e+03
2.054783e+03,4.872642e+03
2.057676e+03,4.841948e+03
2.060568e+03,4.858329e+03
2.063461e+03,4.841475e+03
2.066354e+03,4.855686e+03
2.069247e+03,4.806476e+03
2.072139e+03,4.791155e+03
2.075032e+03,4.752428e+03
2.077925e+03,4.760345e+03
2.080817e+03,4.806970e+03
2.083710e+03,4.758749e+03
2.086603e+03,4.718173e+03
2.089496e+03,4.708698e+03
2.092388e+03,4.709099e+03
2.095281e+03,4.688894e+03
2.098174e+03,4.707478e+03
2.101066e+03,4.689995e+03
2.103959e+03,4.645435e+03
2.106852e+03,4.655765e+03
2.109744e+03,4.676634e+03
2.112637e+03,4.616375e+03
2.115530e+03,4.578544e+03
2.118422e+03,4.592823e+03
2.121315e+03,4.626060e+03
2.124208e+03,4.612221e+03
2.127101e+03,4.549345e+03
2.129993e+03,4.553536e+03
2.132886e+03,4.529858e+03
2.135779e+03,4.551433e+03
2.138671e+03,4.531307e+03
2.141564e+03,4.496583e+03
2.144457e+03,4.480780e+03
2.147350e+03,4.448534e+03
2.150242e+03,4.497884e+03
2.153135e+03,4.452003e+03
2.156028e+03,4.437108e+03
2.158920e+03,4.400821e+03
2.161813e+03,4.427417e+03
2.164706e+03,4.417374e+03
2.167598e+03,4.418333e+03
2.170491e+03,4.397017e+03
2.173384e+03,4.383367e+03
2.176277e+03,4.380667e+03
2.179169e+03,4.349302e+03
2.182062e+03,4.337338e+03
2.184955e+03,4.310705e+03
2.187847e+03,4.340274e+03
2.190740e+03,4.297309e+03
2.193633e+03,4.289526e+03
2.196525e+03,4.258753e+03
2.199418e+03,4.269709e+03
2.202311e+03,4.268325e+03
2.205204e+03,4.262106e+03
2.208096e+03,4.259433e+03
2.210989e+03,4.181888e+03
2.213882e+03,4.200283e+03
2.216774e+03,4.211485e+03
2.219667e+03,4.175796e+03
2.222560e+03,4.177576e+03
2.225452e+03,4.142658e+03
2.228345e+03,4.129750e+03
2.231238e+03,4.168282e+03
2.234131e+03,4.161127e+03
2.237023e+03,4.092442e+03
2.239916e+03,4.080450e+03
2.242809e+03,4.064585e+03
2.245701e+03,4.084047e+03
2.248594e+03,4.056004e+03
2.251487e+03,4.034741e+03
2.254379e+03,4.046751e+03
2.257272e+03,3.985010e+03
2.260165e+03,3.986578e+03
2.263058e+03,3.987950e+03
2.265950e+03,3.989870e+03
2.268843e+03,3.931521e+03
2.271736e+03,3.939136e+03
2.274628e+03,3.969233e+03
2.277521e+03,3.948110e+03
2.280414e+03,3.942011e+03
2.283306e+03,3.932063e+03
2.286199e+03,3.872828e+03
2.289092e+03,3.888931e+03
2.291985e+03,3.882151e+03
2.294877e+03,3.885617e+03
2.297770e+03,3.885331e+03
2.300663e+03,3.868906e+03
2.303555e+03,3.826002e+03
2.306448e+03,3.800344e+03
2.309341e+03,3.824037e+03
2.312233e+03,3.810979e+03
2.315126e+03,3.804552e+03
2.318019e+03,3.811430e+03
2.320912e+03,3.763542e+03
2.323804e+03,3.734757e+03
2.326697e+03,3.784770e+03
2.329590e+03,3.763363e+03
2.332482e+03,3.714369e+03
2.335375e+03,3.716627e+03
2.338268e+03,3.721800e+03
2.341160e+03,3.675036e+03
2.344053e+03,3.686374e+03
2.346946e+03,3.700990e+03
2.349839e+03,3.666310e+03
2.352731e+03,3.660665e+03
2.355624e+03,3.631759e+03
2.358517e+03,3.637349e+03
2.361409e+03,3.616510e+03
2.364302e+03,3.614923e+03
2.367195e+03,3.607476e+03
2.370087e+03,3.589553e+03
2.372980e+03,3.576739e+03
2.375873e+03,3.578499e+03
2.378766e+03,3.558023e+03
2.381658e+03,3.524649e+03
2.384551e+03,3.548812e+03
2.387444e+03,3.521085e+03
2.390336e+03,3.530792e+03
2.393229e+03,3.516914e+03
2.396122e+03,3.516210e+03
2.399014e+03,3.472019e+03
2.401907e+03,3.490082e+03
2.404800e+03,3.466798e+03
2.407693e+03,3.443375e+03
2.410585e+03,3.463634e+03
2.413478e+03,3.459293e+03
2.416371e+03,3.431995e+03
2.419263e+03,3.412625e+03
2.422156e+03,3.439435e+03
2.425049e+03,3.430398e+03
2.427941e+03,3.363835e+03
2.430834e+03,3.378534e+03
2.433727e+03,3.392135e+03
2.436620e+03,3.368558e+03
2.439512e+03,3.380501e+03
2.442405e+03,3.335754e+03
2.445298e+03,3.338064e+03
2.448190e+03,3.339915e+03
2.451083e+03,3.327951e+03
2.453976e+03,3.318528e+03
2.456868e+03,3.305190e+03
2.459761e+03,3.271819e+03
2.462654e+03,3.291612e+03
2.465547e+03,3.283157e+03
2.468439e+03,3.278849e+03
2.471332e+03,3.269507e+03
2.474225e+03,3.263327e+03
2.477117e+03,3.238023e+03
2.480010e+03,3.245493e+03
2.482903e+03,3.191777e+03
2.485795e+03,3.211064e+03
2.488688e+03,3.198623e+03
2.491581e+03,3.194962e+03
2.494474e+03,3.197255e+03
2.497366e+03,3.175348e+03
2.500259e+03,3.183231e+03
2.503152e+03,3.151339e+03
2.506044e+03,3.174359e+03
2.508937e+03,3.125165e+03
2.511830e+03,3.149926e+03
2.514722e+03,3.141791e+03
2.517615e+03,3.110449e+03
2.520508e+03,3.105354e+03
2.523401e+03,3.096858e+03
2.526293e+03,3.101878e+03
2.529186e+03,3.111091e+03
2.532079e+03,3.106331e+03
2.534971e+03,3.075671e+03
2.537864e+03,3.074390e+03
2.540757e+03,3.039815e+03
2.543649e+03,3.037801e+03
2.546542e+03,3.047583e+03
2.549435e+03,3.057594e+03
2.552328e+03,3.020673e+03
2.555220e+03,3.038334e+03
2.558113e+03,3.035592e+03
2.561006e+03,3.027835e+03
2.563898e+03,2.969730e+03
2.566791e+03,3.000619e+03
2.569684e+03,2.977983e+03
2.572576e+03,2.975439e+03
2.575469e+03,2.985645e+03
2.578362e+03,2.950301e+03
2.581255e+03,2.966499e+03
2.584147e+03,2.950845e+03
2.587040e+03,2.947375e+03
2.589933e+03,2.949251e+03
2.592825e+03,2.957006e+03
2.595718e+03,2.926913e+03
2.598611e+03,2.894308e+03
2.601503e+03,2.902699e+03
2.604396e+03,2.918480e+03
2.607289e+03,2.882184e+03
2.610182e+03,2.900409e+03
2.613074e+03,2.871664e+03
2.615967e+03,2.880667e+03
2.618860e+03,2.837335e+03
2.621752e+03,2.877960e+03
2.624645e+03,2.841457e+03
2.627538e+03,2.847398e+03
2.630430e+03,2.876850e+03
2.633323e+03,2.801680e+03
2.636216e+03,2.810931e+03
2.639109e+03,2.815688e+03
2.642001e+03,2.812281e+03
2.644894e+03,2.794662e+03
2.647787e+03,2.792675e+03
2.650679e+03,2.782964e+03
2.653572e+03,2.781329e+03
2.656465e+03,2.807481e+03
2.659357e+03,2.776498e+03
2.662250e+03,2.751901e+03
2.665143e+03,2.766457e+03
2.668036e+03,2.738659e+03
2.670928e+03,2.757767e+03
2.673821e+03,2.742112e+03
2.676714e+03,2.738147e+03
2.679606e+03,2.736953e+03
2.682499e+03,2.701494e+03
2.685392e+03,2.726041e+03
2.688284e+03,2.695263e+03
2.691177e+03,2.680685e+03
2.694070e+03,2.689390e+03
2.696963e+03,2.684377e+03
2.699855e+03,2.665004e+03
2.702748e+03,2.673160e+03
2.705641e+03,2.657212e+03
2.708533e+03,2.667146e+03
2.711426e+03,2.670101e+03
2.714319e+03,2.631113e+03
2.717211e+03,2.655682e+03
2.720104e+03,2.634109e+03
2.722997e+03,2.629460e+03
2.725890e+03,2.621949e+03
2.728782e+03,2.605976e+03
2.731675e+03,2.603417e+03
2.734568e+03,2.609013e+03
2.737460e+03,2.607665e+03
2.740353e+03,2.615438e+03
2.743246e+03,2.606454e+03
2.746138e+03,2.598819e+03
2.749031e+03,2.542249e+03
2.751924e+03,2.599564e+03
2.754817e+03,2.551857e+03
2.757709e+03,2.577029e+03
2.760602e+03,2.536520e+03
2.763495e+03,2.560779e+03
2.766387e+03,2.528315e+03
2.769280e+03,2.528492e+03
2.772173e+03,2.537853e+03
2.775065e+03,2.514760e+03
2.777958e+03,2.516767e+03
2.780851e+03,2.518871e+03
2.783744e+03,2.509908e+03
2.786636e+03,2.528143e+03
2.789529e+03,2.497585e+03
2.792422e+03,2.498876e+03
2.795314e+03,2.485311e+03
2.798207e+03,2.499130e+03
2.801100e+03,2.486471e+03
2.803992e+03,2.464655e+03
2.806885e+03,2.454353e+03
2.809778e+03,2.431147e+03
2.812671e+03,2.467023e+03
2.815563e+03,2.449016e+03
2.818456e+03,2.426177e+03
2.821349e+03,2.434950e+03
2.824241e+03,2.430820e+03
2.827134e+03,2.442704e+03
2.830027e+03,2.414239e+03
2.832919e+03,2.406847e+03
2.835812e+03,2.456080e+03
2.838705e+03,2.432062e+03
2.841598e+03,2.420289e+03
2.844490e+03,2.399629e+03
2.847383e+03,2.389394e+03
2.850276e+03,2.410763e+03
2.853168e+03,2.388025e+03
2.856061e+03,2.415345e+03
2.858954e+03,2.366387e+03
2.861846e+03,2.408556e+03
2.864739e+03,2.378813e+03
2.867632e+03,2.387753e+03
2.870525e+03,2.376675e+03
2.873417e+03,2.386954e+03
2.876310e+03,2.368185e+03
2.879203e+03,2.384247e+03
2.882095e+03,2.361899e+03
2.884988e+03,2.431648e+03
2.887881e+03,2.329039e+03
2.890773e+03,2.340166e+03
2.893666e+03,2.363478e+03
2.896559e+03,2.360191e+03
2.899452e+03,2.341812e+03
2.902344e+03,2.364147e+03
2.905237e+03,2.366436e+03
2.908130e+03,2.305422e+03
2.911022e+03,2.290286e+03
2.913915e+03,2.341992e+03
2.916808e+03,2.321967e+03
2.919700e+03,2.316750e+03
2.922593e+03,2.296431e+03
2.925486e+03,2.296209e+03
2.928379e+03,2.263216e+03
2.931271e+03,2.296496e+03
2.934164e+03,2.285978e+03
2.937057e+03,2.324327e+03
2.939949e+03,2.262709e+03
2.942842e+03,2.279502e+03
2.945735e+03,2.283548e+03
2.948627e+03,2.300575e+03
2.951520e+03,2.258999e+03
2.954413e+03,2.250700e+03
2.957306e+03,2.302124e+03
2.960198e+03,2.224111e+03
2.963091e+03,2.241745e+03
2.965984e+03,2.194444e+03
2.968876e+03,2.209547e+03
2.971769e+03,2.212180e+03
2.974662e+03,2.191639e+03
2.977554e+03,2.273453e+03
2.980447e+03,2.199297e+03
2.983340e+03,2.196755e+03
2.986233e+03,2.198634e+03
2.989125e+03,2.221339e+03
2.992018e+03,2.199635e+03
2.994911e+03,2.146013e+03
2.997803e+03,2.160417e+03
3.000696e+03,2.175263e+03
3.003589e+03,2.167226e+03
3.006481e+03,2.160753e+03
3.009374e+03,2.157378e+03
3.012267e+03,2.177314e+03
3.015160e+03,2.155605e+03
3.018052e+03,2.158396e+03
3.020945e+03,2.130431e+03
3.023838e+03,2.115473e+03
3.026730e+03,2.147584e+03
3.029623e+03,2.144592e+03
3.032516e+03,2.081146e+03
3.035408e+03,2.147070e+03
3.038301e+03,2.163421e+03
3.041194e+03,2.156917e+03
3.044087e+03,2.125649e+03
3.046979e+03,2.106750e+03
3.049872e+03,2.147140e+03
3.052765e+03,2.089777e+03
3.055657e+03,2.062136e+03
3.058550e+03,2.109732e+03
3.061443e+03,2.134913e+03
3.064335e+03,2.069319e+03
3.067228e+03,2.140067e+03
3.070121e+03,2.091826e+03
3.073014e+03,2.138235e+03
3.075906e+03,2.030648e+03
3.078799e+03,2.047536e+03
3.081692e+03,2.069844e+03
3.084584e+03,2.063785e+03
3.087477e+03,2.073078e+03
3.090370e+03,2.093619e+03
3.093262e+03,2.078940e+03
3.096155e+03,2.061540e+03
3.099048e+03,2.060140e+03
3.101941e+03,2.090016e+03
3.104833e+03,2.091314e+03
3.107726e+03,2.030982e+03
3.110619e+03,2.017232e+03
3.113511e+03,2.049669e+03
3.116404e+03,2.039466e+03
3.119297e+03,2.095160e+03
3.122189e+03,2.057763e+03
3.125082e+03,2.103622e+03
3.127975e+03,2.069597e+03
3.130868e+03,2.032548e+03
3.133760e+03,2.057895e+03
3.136653e+03,2.062015e+03
3.139546e+03,2.069222e+03
3.142438e+03,2.081588e+03
3.145331e+03,2.011517e+03
3.148224e+03,2.087241e+03
3.151116e+03,2.061208e+03
3.154009e+03,1.996541e+03
3.156902e+03,2.048552e+03
3.159795e+03,2.031635e+03
3.162687e+03,2.093825e+03
3.165580e+03,1.980353e+03
3.168473e+03,2.092405e+03
3.171365e+03,2.060219e+03
3.174258e+03,2.081504e+03
3.177151e+03,2.047891e+03
3.180043e+03,2.035779e+03
3.182936e+03,2.006280e+03
3.185829e+03,1.994248e+03
3.188722e+03,2.077298e+03
3.191614e+03,2.076573e+03
3.194507e+03,1.985956e+03
3.197400e+03,2.081806e+03
3.200292e+03,2.004212e+03
3.203185e+03,0.000000e+00
3.206078e+03,0.000000e+00
3.208970e+03,0.000000e+00
3.211863e+03,0.000000e+00
3.214756e+03,0.000000e+00
3.217649e+03,0.000000e+00
3.220541e+03,0.000000e+00
3.223434e+03,0.000000e+00
3.226327e+03,0.000000e+00
3.229219e+03,0.000000e+00
3.232112e+03,0.000000e+00
3.235005e+03,0.000000e+00
3.237897e+03,0.000000e+00
3.240790e+03,0.000000e+00
3.243683e+03,0.000000e+00
3.246576e+03,0.000000e+00
3.249468e+03,0.000000e+00
3.252361e+03,0.000000e+00
3.255254e+03,0.000000e+00
3.258146e+03,0.000000e+00
3.261039e+03,0.000000e+00
3.263932e+03,0.000000e+00
3.266824e+03,0.000000e+00
3.269717e+03,0.000000e+00
3.272610e+03,0.000000e+00
3.275503e+03,0.000000e+00
3.278395e+03,0.000000e+00
3.281288e+03,0.000000e+00
3.284181e+03,0.000000e+00
3.287073e+03,0.000000e+00
3.289966e+03,0.000000e+00
3.292859e+03,0.000000e+00
3.295751e+03,0.000000e+00
3.298644e+03,0.000000e+00
3.301537e+03,0.000000e+00
3.304430e+03,0.000000e+00
3.307322e+03,0.000000e+00
3.310215e+03,0.000000e+00
3.313108e+03,0.000000e+00
3.316000e+03,0.000000e+00
3.318893e+03,0.000000e+00
3.321786e+03,0.000000e+00
3.324678e+03,0.000000e+00
3.327571e+03,0.000000e+00
3.330464e+03,0.000000e+00
3.333357e+03,0.000000e+00
3.336249e+03,0.000000e+00
3.339142e+03,0.000000e+00
3.342035e+03,0.000000e+00
3.344927e+03,0.000000e+00
3.347820e+03,0.000000e+00
3.350713e+03,0.000000e+00
3.353605e+03,0.000000e+00
3.356498e+03,0.000000e+00
3.359391e+03,0.000000e+00
3.362284e+03,0.000000e+00
3.365176e+03,0.000000e+00
3.368069e+03,0.000000e+00
3.370962e+03,0.000000e+00
3.373854e+03,0.000000e+00
3.376747e+03,0.000000e+00
3.379640e+03,0.000000e+00
3.382532e+03,0.000000e+00
3.385425e+03,0.000000e+00
3.388318e+03,0.000000e+00
3.391211e+03,0.000000e+00
3.394103e+03,0.000000e+00
3.396996e+03,0.000000e+00
3.399889e+03,0.000000e+00
3.402781e+03,0.000000e+00
3.405674e+03,0.000000e+00
3.408567e+03,0.000000e+00
3.411459e+03,0.000000e+00
3.414352e+03,0.000000e+00
3.417245e+03,0.000000e+00
3.420138e+03,0.000000e+00
3.423030e+03,0.000000e+00
3.425923e+03,0.000000e+00
3.428816e+03,0.000000e+00
3.431708e+03,0.000000e+00
3.434601e+03,0.000000e+00
3.437494e+03,0.000000e+00
3.440386e+03,0.000000e+00
3.443279e+03,0.000000e+00
3.446172e+03,0.000000e+00
3.449065e+03,0.000000e+00
3.451957e+03,0.000000e+00
3.454850e+03,0.000000e+00
3.457743e+03,0.000000e+00
3.460635e+03,0.000000e+00
3.463528e+03,0.000000e+00
3.466421e+03,0.000000e+00
3.469313e+03,0.000000e+00
3.472206e+03,0.000000e+00
3.475099e+03,0.000000e+00
3.477992e+03,0.000000e+00
3.480884e+03,0.000000e+00
3.483777e+03,0.000000e+00
3.486670e+03,0.000000e+00
3.489563e+03,0.000000e+00
3.492455e+03,0.000000e+00
3.495348e+03,0.000000e+00
3.498240e+03,0.000000e+00
3.500169e+03,0.000000e+00