File: RAMAN_data/23052023_r3/blue fibre4.CSV
9.931763e+01,0.000000e+00
1.022103e+02,0.000000e+00
1.051030e+02,0.000000e+00
1.079957e+02,0.000000e+00
1.108884e+02,0.000000e+00
1.137811e+02,0.000000e+00
1.166738e+02,0.000000e+00
1.195665e+02,0.000000e+00
1.224592e+02,0.000000e+00
1.253519e+02,0.000000e+00
1.282446e+02,0.000000e+00
1.311373e+02,0.000000e+00
1.340300e+02,0.000000e+00
1.369227e+02,0.000000e+00
1.398154e+02,0.000000e+00
1.427081e+02,0.000000e+00
1.456008e+02,0.000000e+00
1.484935e+02,0.000000e+00
1.513862e+02,0.000000e+00
1.542789e+02,0.000000e+00
1.571716e+02,0.000000e+00
1.600643e+02,0.000000e+00
1.629570e+02,0.000000e+00
1.658497e+02,0.000000e+00
1.687424e+02,0.000000e+00
1.716351e+02,0.000000e+00
1.745278e+02,0.000000e+00
1.774205e+02,0.000000e+00
1.803132e+02,0.000000e+00
1.832059e+02,0.000000e+00
1.860986e+02,0.000000e+00
1.889913e+02,0.000000e+00
1.918840e+02,0.000000e+00
1.947767e+02,0.000000e+00
1.976694e+02,0.000000e+00
2.005621e+02,6.525896e+03
2.034548e+02,6.556881e+03
2.063475e+02,6.591032e+03
2.092402e+02,6.584681e+03
2.121329e+02,6.618565e+03
2.150256e+02,6.630104e+03
2.179183e+02,6.662573e+03
2.208110e+02,6.682754e+03
2.237037e+02,6.721911e+03
2.265964e+02,6.725724e+03
2.294892e+02,6.752007e+03
2.323819e+02,6.792095e+03
2.352746e+02,6.825821e+03
2.381673e+02,6.849392e+03
2.410600e+02,6.856164e+03
2.439527e+02,6.898636e+03
2.468454e+02,6.967000e+03
2.497381e+02,7.000472e+03
2.526308e+02,7.011986e+03
2.555235e+02,7.005970e+03
2.584161e+02,7.012217e+03
2.613088e+02,7.065716e+03
2.642015e+02,7.082671e+03
2.670942e+02,7.098542e+03
2.699869e+02,7.163233e+03
2.728796e+02,7.212549e+03
2.757723e+02,7.276142e+03
2.786650e+02,7.301393e+03
2.815577e+02,7.336823e+03
2.844504e+02,7.272765e+03
2.873431e+02,7.259439e+03
2.902358e+02,7.238108e+03
2.931285e+02,7.257390e+03
2.960212e+02,7.268041e+03
2.989139e+02,7.282044e+03
3.018066e+02,7.303833e+03
3.046993e+02,7.323541e+03
3.075920e+02,7.325636e+03
3.104847e+02,7.306146e+03
3.133774e+02,7.324862e+03
3.162701e+02,7.355354e+03
3.191628e+02,7.348174e+03
3.220555e+02,7.350493e+03
3.249482e+02,7.385401e+03
3.278409e+02,7.424470e+03
3.307336e+02,7.430448e+03
3.336263e+02,7.430763e+03
3.365190e+02,7.414835e+03
3.394117e+02,7.461408e+03
3.423044e+02,7.491526e+03
3.451971e+02,7.486792e+03
3.480898e+02,7.509260e+03
3.509825e+02,7.502246e+03
3.538752e+02,7.538914e+03
3.567680e+02,7.543019e+03
3.596607e+02,7.583371e+03
3.625534e+02,7.558537e+03
3.654461e+02,7.579818e+03
3.683388e+02,7.599319e+03
3.712315e+02,7.620208e+03
3.741242e+02,7.648838e+03
3.770169e+02,7.650890e+03
3.799096e+02,7.670860e+03
3.828023e+02,7.670478e+03
3.856950e+02,7.675947e+03
3.885877e+02,7.701143e+03
3.914804e+02,7.715174e+03
3.943731e+02,7.717662e+03
3.972658e+02,7.713144e+03
4.001585e+02,7.721064e+03
4.030512e+02,7.744204e+03
4.059439e+02,7.756503e+03
4.088366e+02,7.764118e+03
4.117293e+02,7.757085e+03
4.146220e+02,7.766104e+03
4.175147e+02,7.788307e+03
4.204074e+02,7.776642e+03
4.233001e+02,7.804296e+03
4.261928e+02,7.795588e+03
4.290855e+02,7.824564e+03
4.319782e+02,7.838357e+03
4.348709e+02,7.833978e+03
4.377636e+02,7.836091e+03
4.406563e+02,7.835155e+03
4.435490e+02,7.860244e+03
4.464417e+02,7.862873e+03
4.493344e+02,7.890674e+03
4.522271e+02,7.913882e+03
4.551198e+02,7.911087e+03
4.580125e+02,7.884255e+03
4.609052e+02,7.899858e+03
4.637979e+02,7.922898e+03
4.666906e+02,7.923560e+03
4.695833e+02,7.929208e+03
4.724760e+02,7.944820e+03
4.753687e+02,7.915739e+03
4.782614e+02,7.931378e+03
4.811541e+02,7.943043e+03
4.840468e+02,7.953419e+03
4.869395e+02,7.946615e+03
4.898322e+02,7.938520e+03
4.927249e+02,7.966169e+03
4.956176e+02,7.955914e+03
4.985103e+02,7.998374e+03
5.014030e+02,7.983401e+03
5.042957e+02,7.989010e+03
5.071884e+02,7.981672e+03
5.100811e+02,7.988506e+03
5.129738e+02,7.998912e+03
5.158665e+02,8.053976e+03
5.187592e+02,8.006827e+03
5.216519e+02,8.012727e+03
5.245446e+02,8.018862e+03
5.274373e+02,8.076803e+03
5.303300e+02,8.070492e+03
5.332227e+02,8.084346e+03
5.361154e+02,8.106945e+03
5.390081e+02,8.183048e+03
5.419008e+02,8.203882e+03
5.447935e+02,8.241429e+03
5.476862e+02,8.243331e+03
5.505789e+02,8.266370e+03
5.534716e+02,8.282190e+03
5.563643e+02,8.299504e+03
5.592570e+02,8.265027e+03
5.621497e+02,8.234923e+03
5.650424e+02,8.135470e+03
5.679351e+02,8.102197e+03
5.708278e+02,8.048383e+03
5.737205e+02,8.070597e+03
5.766132e+02,8.057986e+03
5.795059e+02,8.069184e+03
5.823986e+02,8.059526e+03
5.852913e+02,8.081055e+03
5.881840e+02,8.052473e+03
5.910767e+02,8.094057e+03
5.939694e+02,8.138573e+03
5.968621e+02,8.120306e+03
5.997548e+02,8.124767e+03
6.026475e+02,8.095892e+03
6.055402e+02,8.192635e+03
6.084329e+02,8.246866e+03
6.113256e+02,8.242716e+03
6.142183e+02,8.135654e+03
6.171110e+02,8.048006e+03
6.200037e+02,8.036124e+03
6.228964e+02,8.015403e+03
6.257891e+02,8.042185e+03
6.286818e+02,8.035946e+03
6.315745e+02,8.012470e+03
6.344672e+02,8.020108e+03
6.373599e+02,7.997217e+03
6.402526e+02,7.992831e+03
6.431453e+02,7.996381e+03
6.460380e+02,7.975028e+03
6.489307e+02,7.989128e+03
6.518234e+02,7.988377e+03
6.547161e+02,7.951525e+03
6.576088e+02,7.915761e+03
6.605015e+02,7.926177e+03
6.633942e+02,7.922401e+03
6.662869e+02,7.932469e+03
6.691796e+02,7.979353e+03
6.720723e+02,7.935713e+03
6.749650e+02,7.927355e+03
6.778577e+02,7.872429e+03
6.807504e+02,7.895504e+03
6.836431e+02,7.933069e+03
6.865358e+02,7.896956e+03
6.894285e+02,7.868274e+03
6.923212e+02,7.852947e+03
6.952139e+02,7.842469e+03
6.981066e+02,7.844584e+03
7.009993e+02,7.801197e+03
7.038920e+02,7.799170e+03
7.067847e+02,7.787637e+03
7.096774e+02,7.815594e+03
7.125701e+02,7.796001e+03
7.154628e+02,7.805483e+03
7.183555e+02,7.807839e+03
7.212482e+02,7.780891e+03
7.241409e+02,7.769799e+03
7.270336e+02,7.742127e+03
7.299263e+02,7.730774e+03
7.328190e+02,7.728745e+03
7.357117e+02,7.709544e+03
7.386044e+02,7.717124e+03
7.414971e+02,7.714944e+03
7.443898e+02,7.708605e+03
7.472825e+02,7.708478e+03
7.501752e+02,7.722987e+03
7.530679e+02,7.708758e+03
7.559606e+02,7.689760e+03
7.588533e+02,7.693710e+03
7.617460e+02,7.676304e+03
7.646387e+02,7.650857e+03
7.675314e+02,7.662646e+03
7.704241e+02,7.648136e+03
7.733168e+02,7.633534e+03
7.762095e+02,7.686061e+03
7.791022e+02,7.670437e+03
7.819949e+02,7.648097e+03
7.848876e+02,7.660270e+03
7.877803e+02,7.636614e+03
7.906730e+02,7.623734e+03
7.935657e+02,7.605250e+03
7.964584e+02,7.552010e+03
7.993511e+02,7.535530e+03
8.022438e+02,7.514797e+03
8.051365e+02,7.512871e+03
8.080292e+02,7.490384e+03
8.109219e+02,7.484519e+03
8.138146e+02,7.466014e+03
8.167073e+02,7.421157e+03
8.196000e+02,7.417727e+03
8.224927e+02,7.438736e+03
8.253854e+02,7.439308e+03
8.282781e+02,7.406758e+03
8.311708e+02,7.378688e+03
8.340635e+02,7.412951e+03
8.369562e+02,7.407935e+03
8.398489e+02,7.410227e+03
8.427416e+02,7.376376e+03
8.456343e+02,7.341335e+03
8.485270e+02,7.338197e+03
8.514197e+02,7.320076e+03
8.543124e+02,7.320057e+03
8.572051e+02,7.303393e+03
8.600978e+02,7.275217e+03
8.629905e+02,7.257733e+03
8.658832e+02,7.279636e+03
8.687759e+02,7.256124e+03
8.716686e+02,7.246056e+03
8.745613e+02,7.243702e+03
8.774540e+02,7.209875e+03
8.803467e+02,7.204037e+03
8.832394e+02,7.202814e+03
8.861321e+02,7.202536e+03
8.890248e+02,7.196952e+03
8.919175e+02,7.153601e+03
8.948102e+02,7.130613e+03
8.977029e+02,7.143040e+03
9.005956e+02,7.132417e+03
9.034883e+02,7.124451e+03
9.063810e+02,7.081040e+03
9.092737e+02,7.060429e+03
9.121664e+02,7.053905e+03
9.150591e+02,7.002554e+03
9.179518e+02,7.021922e+03
9.208445e+02,7.006672e+03
9.237372e+02,6.962419e+03
9.266299e+02,6.956050e+03
9.295226e+02,6.960121e+03
9.324153e+02,6.965937e+03
9.353080e+02,6.938649e+03
9.382007e+02,6.929587e+03
9.410934e+02,6.891581e+03
9.439861e+02,6.912024e+03
9.468788e+02,6.885290e+03
9.497715e+02,6.886481e+03
9.526642e+02,6.848209e+03
9.555569e+02,6.817571e+03
9.584496e+02,6.807352e+03
9.613423e+02,6.793014e+03
9.642350e+02,6.817746e+03
9.671277e+02,6.760834e+03
9.700204e+02,6.732432e+03
9.729131e+02,6.731024e+03
9.758058e+02,6.715231e+03
9.786985e+02,6.735202e+03
9.815912e+02,6.687702e+03
9.844839e+02,6.685621e+03
9.873766e+02,6.649253e+03
9.902693e+02,6.652394e+03
9.931620e+02,6.657403e+03
9.960547e+02,6.620981e+03
9.989474e+02,6.611755e+03
1.001840e+03,6.570757e+03
1.004733e+03,6.587221e+03
1.007626e+03,6.584223e+03
1.010518e+03,6.574810e+03
1.013411e+03,6.536445e+03
1.016304e+03,6.530143e+03
1.019196e+03,6.515646e+03
1.022089e+03,6.495919e+03
1.024982e+03,6.505292e+03
1.027875e+03,6.480881e+03
1.030767e+03,6.455753e+03
1.033660e+03,6.423753e+03
1.036552e+03,6.436220e+03
1.039445e+03,6.431542e+03
1.042338e+03,6.411357e+03
1.045231e+03,6.388734e+03
1.048123e+03,6.423989e+03
1.051016e+03,6.360646e+03
1.053909e+03,6.383908e+03
1.056802e+03,6.352323e+03
1.059694e+03,6.354593e+03
1.062587e+03,6.331427e+03
1.065479e+03,6.331485e+03
1.068372e+03,6.343929e+03
1.071265e+03,6.343623e+03
1.074158e+03,6.344735e+03
1.077050e+03,6.335564e+03
1.079943e+03,6.333641e+03
1.082836e+03,6.319202e+03
1.085729e+03,6.297019e+03
1.088621e+03,6.280279e+03
1.091514e+03,6.231904e+03
1.094406e+03,6.182726e+03
1.097299e+03,6.179853e+03
1.100192e+03,6.166270e+03
1.103085e+03,6.134298e+03
1.105977e+03,6.116491e+03
1.108870e+03,6.100731e+03
1.111763e+03,6.091324e+03
1.114656e+03,6.075172e+03
1.117548e+03,6.091071e+03
1.120441e+03,6.075859e+03
1.123334e+03,6.023084e+03
1.126226e+03,6.017288e+03
1.129119e+03,6.000873e+03
1.132012e+03,6.011175e+03
1.134904e+03,5.999509e+03
1.137797e+03,5.963822e+03
1.140690e+03,5.950932e+03
1.143583e+03,5.942609e+03
1.146475e+03,5.949688e+03
1.149368e+03,5.918839e+03
1.152261e+03,5.926706e+03
1.155153e+03,5.857786e+03
1.158046e+03,5.868220e+03
1.160939e+03,5.872192e+03
1.163831e+03,5.852416e+03
1.166724e+03,5.847073e+03
1.169617e+03,5.798303e+03
1.172510e+03,5.793997e+03
1.175402e+03,5.796022e+03
1.178295e+03,5.787418e+03
1.181188e+03,5.787619e+03
1.184080e+03,5.780932e+03
1.186973e+03,5.762898e+03
1.189866e+03,5.756221e+03
1.192758e+03,5.764304e+03
1.195651e+03,5.719826e+03
1.198544e+03,5.718758e+03
1.201437e+03,5.698549e+03
1.204329e+03,5.640214e+03
1.207222e+03,5.642842e+03
1.210115e+03,5.646672e+03
1.213007e+03,5.632493e+03
1.215900e+03,5.626001e+03
1.218793e+03,5.600522e+03
1.221685e+03,5.609586e+03
1.224578e+03,5.607898e+03
1.227471e+03,5.619064e+03
1.230364e+03,5.567433e+03
1.233256e+03,5.558426e+03
1.236149e+03,5.539587e+03
1.239042e+03,5.540010e+03
1.241934e+03,5.503575e+03
1.244827e+03,5.491904e+03
1.247720e+03,5.478292e+03
1.250612e+03,5.437319e+03
1.253505e+03,5.412461e+03
1.256398e+03,5.433851e+03
1.259291e+03,5.394280e+03
1.262183e+03,5.386434e+03
1.265076e+03,5.363362e+03
1.267969e+03,5.339703e+03
1.270861e+03,5.342846e+03
1.273754e+03,5.335305e+03
1.276647e+03,5.352305e+03
1.279539e+03,5.317333e+03
1.282432e+03,5.301379e+03
1.285325e+03,5.288078e+03
1.288218e+03,5.282958e+03
1.291110e+03,5.270520e+03
1.294003e+03,5.255636e+03
1.296896e+03,5.232291e+03
1.299788e+03,5.221861e+03
1.302681e+03,5.226593e+03
1.305574e+03,5.248539e+03
1.308466e+03,5.238923e+03
1.311359e+03,5.233143e+03
1.314252e+03,5.193806e+03
1.317145e+03,5.191990e+03
1.320037e+03,5.195595e+03
1.322930e+03,5.181482e+03
1.325823e+03,5.152503e+03
1.328715e+03,5.149798e+03
1.331608e+03,5.128446e+03
1.334501e+03,5.137495e+03
1.337393e+03,5.107771e+03
1.340286e+03,5.097050e+03
1.343179e+03,5.066058e+03
1.346072e+03,5.082973e+03
1.348964e+03,5.054917e+03
1.351857e+03,5.063304e+03
1.354750e+03,5.044267e+03
1.357642e+03,5.044164e+03
1.360535e+03,5.002190e+03
1.363428e+03,5.011594e+03
1.366320e+03,5.010024e+03
1.369213e+03,4.988518e+03
1.372106e+03,4.976465e+03
1.374999e+03,4.934193e+03
1.377891e+03,4.906754e+03
1.380784e+03,4.929748e+03
1.383677e+03,4.908805e+03
1.386569e+03,4.891703e+03
1.389462e+03,4.881311e+03
1.392355e+03,4.864442e+03
1.395247e+03,4.863646e+03
1.398140e+03,4.884058e+03
1.401033e+03,4.853787e+03
1.403926e+03,4.847766e+03
1.406818e+03,4.815581e+03
1.409711e+03,4.815043e+03
1.412604e+03,4.822347e+03
1.415496e+03,4.812718e+03
1.418389e+03,4.789058e+03
1.421282e+03,4.778893e+03
1.424174e+03,4.770174e+03
1.427067e+03,4.768548e+03
1.429960e+03,4.759119e+03
1.432853e+03,4.741248e+03
1.435745e+03,4.734838e+03
1.438638e+03,4.695698e+03
1.441531e+03,4.725477e+03
1.444423e+03,4.692095e+03
1.447316e+03,4.744128e+03
1.450209e+03,4.722272e+03
1.453101e+03,4.732329e+03
1.455994e+03,4.719454e+03
1.458887e+03,4.699440e+03
1.461780e+03,4.705925e+03
1.464672e+03,4.654404e+03
1.467565e+03,4.636467e+03
1.470458e+03,4.617161e+03
1.473350e+03,4.604117e+03
1.476243e+03,4.610583e+03
1.479136e+03,4.606810e+03
1.482028e+03,4.586661e+03
1.484921e+03,4.580354e+03
1.487814e+03,4.582333e+03
1.490707e+03,4.572525e+03
1.493599e+03,4.566271e+03
1.496492e+03,4.545568e+03
1.499385e+03,4.522394e+03
1.502277e+03,4.524182e+03
1.505170e+03,4.534985e+03
1.508063e+03,4.532947e+03
1.510955e+03,4.507157e+03
1.513848e+03,4.497276e+03
1.516741e+03,4.502742e+03
1.519634e+03,4.489647e+03
1.522526e+03,4.470289e+03
1.525419e+03,4.435690e+03
1.528312e+03,4.422265e+03
1.531204e+03,4.397550e+03
1.534097e+03,4.422959e+03
1.536990e+03,4.405667e+03
1.539882e+03,4.401847e+03
1.542775e+03,4.400208e+03
1.545668e+03,4.378860e+03
1.548561e+03,4.397540e+03
1.551453e+03,4.391277e+03
1.554346e+03,4.391686e+03
1.557239e+03,4.396667e+03
1.560131e+03,4.429514e+03
1.563024e+03,4.463829e+03
1.565917e+03,4.554187e+03
1.568809e+03,4.608474e+03
1.571702e+03,4.617417e+03
1.574595e+03,4.534692e+03
1.577488e+03,4.485861e+03
1.580380e+03,4.475154e+03
1.583273e+03,4.442629e+03
1.586166e+03,4.401350e+03
1.589058e+03,4.316942e+03
1.591951e+03,4.280629e+03
1.594844e+03,4.296008e+03
1.597736e+03,4.271684e+03
1.600629e+03,4.253308e+03
1.603522e+03,4.235053e+03
1.606415e+03,4.240326e+03
1.609307e+03,4.230812e+03
1.612200e+03,4.200957e+03
1.615093e+03,4.221614e+03
1.617985e+03,4.200936e+03
1.620878e+03,4.196596e+03
1.623771e+03,4.205348e+03
1.626663e+03,4.195783e+03
1.629556e+03,4.182810e+03
1.632449e+03,4.174479e+03
1.635342e+03,4.145120e+03
1.638234e+03,4.118939e+03
1.641127e+03,4.108146e+03
1.644020e+03,4.094422e+03
1.646912e+03,4.066414e+03
1.649805e+03,4.056586e+03
1.652698e+03,4.049835e+03
1.655590e+03,4.076166e+03
1.658483e+03,4.039692e+03
1.661376e+03,4.039260e+03
1.664269e+03,4.030808e+03
1.667161e+03,4.013214e+03
1.670054e+03,4.039283e+03
1.672947e+03,4.008866e+03
1.675839e+03,4.018701e+03
1.678732e+03,4.013967e+03
1.681625e+03,4.015728e+03
1.684517e+03,3.988822e+03
1.687410e+03,3.974240e+03
1.690303e+03,3.943698e+03
1.693196e+03,3.938094e+03
1.696088e+03,3.927004e+03
1.698981e+03,3.941683e+03
1.701874e+03,3.919881e+03
1.704766e+03,3.911882e+03
1.707659e+03,3.919220e+03
1.710552e+03,3.895001e+03
1.713444e+03,3.882048e+03
1.716337e+03,3.874542e+03
1.719230e+03,3.863177e+03
1.722123e+03,3.855515e+03
1.725015e+03,3.847943e+03
1.727908e+03,3.836217e+03
1.730801e+03,3.833853e+03
1.733693e+03,3.830644e+03
1.736586e+03,3.819768e+03
1.739479e+03,3.813344e+03
1.742371e+03,3.795629e+03
1.745264e+03,3.789932e+03
1.748157e+03,3.800388e+03
1.751050e+03,3.769519e+03
1.753942e+03,3.752354e+03
1.756835e+03,3.789808e+03
1.759728e+03,3.757188e+03
1.762620e+03,3.726958e+03
1.765513e+03,3.744299e+03
1.768406e+03,3.750411e+03
1.771298e+03,3.742789e+03
1.774191e+03,3.708073e+03
1.777084e+03,3.672907e+03
1.779977e+03,3.685513e+03
1.782869e+03,3.693052e+03
1.785762e+03,3.671992e+03
1.788655e+03,3.677270e+03
1.791547e+03,3.636267e+03
1.794440e+03,3.654371e+03
1.797333e+03,3.644968e+03
1.800225e+03,3.628085e+03
1.803118e+03,3.637167e+03
1.806011e+03,3.615896e+03
1.808904e+03,3.593331e+03
1.811796e+03,3.627746e+03
1.814689e+03,3.576878e+03
1.817582e+03,3.593723e+03
1.820474e+03,3.566692e+03
1.823367e+03,3.558565e+03
1.826260e+03,3.514690e+03
1.829152e+03,3.557805e+03
1.832045e+03,3.543990e+03
1.834938e+03,3.543551e+03
1.837831e+03,3.533808e+03
1.840723e+03,3.494120e+03
1.843616e+03,3.492853e+03
1.846509e+03,3.511614e+03
1.849401e+03,3.515030e+03
1.852294e+03,3.484611e+03
1.855187e+03,3.513154e+03
1.858079e+03,3.457302e+03
1.860972e+03,3.476982e+03
1.863865e+03,3.425008e+03
1.866758e+03,3.447550e+03
1.869650e+03,3.446254e+03
1.872543e+03,3.428722e+03
1.875436e+03,3.409030e+03
1.878328e+03,3.401135e+03
1.881221e+03,3.405711e+03
1.884114e+03,3.403390e+03
1.887006e+03,3.391615e+03
1.889899e+03,3.363649e+03
1.892792e+03,3.378312e+03
1.895685e+03,3.337262e+03
1.898577e+03,3.350569e+03
1.901470e+03,3.325335e+03
1.904363e+03,3.360263e+03
1.907255e+03,3.321278e+03
1.910148e+03,3.314792e+03
1.913041e+03,3.294969e+03
1.915933e+03,3.289042e+03
1.918826e+03,3.297232e+03
1.921719e+03,3.287809e+03
1.924612e+03,3.272213e+03
1.927504e+03,3.262098e+03
1.930397e+03,3.245487e+03
1.933290e+03,3.228799e+03
1.936182e+03,3.236424e+03
1.939075e+03,3.235716e+03
1.941968e+03,3.231874e+03
1.944860e+03,3.220023e+03
1.947753e+03,3.194790e+03
1.950646e+03,3.188772e+03
1.953539e+03,3.213269e+03
1.956431e+03,3.206554e+03
1.959324e+03,3.171962e+03
1.962217e+03,3.150222e+03
1.965109e+03,3.137733e+03
1.968002e+03,3.151754e+03
1.970895e+03,3.149577e+03
1.973787e+03,3.138082e+03
1.976680e+03,3.129807e+03
1.979573e+03,3.111404e+03
1.982466e+03,3.116976e+03
1.985358e+03,3.105196e+03
1.988251e+03,3.091387e+03
1.991144e+03,3.080702e+03
1.994036e+03,3.082999e+03
1.996929e+03,3.087587e+03
1.999822e+03,3.062784e+03
2.002714e+03,3.062167e+03
2.005607e+03,3.044997e+03
2.008500e+03,3.026490e+03
2.011393e+03,2.998310e+03
2.014285e+03,3.029771e+03
2.017178e+03,3.012533e+03
2.020071e+03,2.998250e+03
2.022963e+03,2.982740e+03
2.025856e+03,2.985249e+03
2.028749e+03,2.974941e+03
2.031641e+03,2.956267e+03
2.034534e+03,2.959429e+03
2.037427e+03,2.942961e+03
2.040320e+03,2.956708e+03
2.043212e+03,2.926181e+03
2.046105e+03,2.915003e+03
2.048998e+03,2.902031e+03
2.051890e+03,2.914742e+03
2.054783e+03,2.892698e+03
2.057676e+03,2.883212e+03
2.060568e+03,2.876841e+03
2.063461e+03,2.881397e+03
2.066354e+03,2.871282e+03
2.069247e+03,2.862526e+03
2.072139e+03,2.848218e+03
2.075032e+03,2.840347e+03
2.077925e+03,2.839758e+03
2.080817e+03,2.842785e+03
2.083710e+03,2.816827e+03
2.086603e+03,2.802072e+03
2.089496e+03,2.811413e+03
2.092388e+03,2.795201e+03
2.095281e+03,2.789258e+03
2.098174e+03,2.778652e+03
2.101066e+03,2.765932e+03
2.103959e+03,2.740234e+03
2.106852e+03,2.742762e+03
2.109744e+03,2.759730e+03
2.112637e+03,2.757872e+03
2.115530e+03,2.696594e+03
2.118422e+03,2.706360e+03
2.121315e+03,2.731965e+03
2.124208e+03,2.707802e+03
2.127101e+03,2.669974e+03
2.129993e+03,2.674099e+03
2.132886e+03,2.666867e+03
2.135779e+03,2.668026e+03
2.138671e+03,2.662711e+03
2.141564e+03,2.653895e+03
2.144457e+03,2.637102e+03
2.147350e+03,2.627661e+03
2.150242e+03,2.638008e+03
2.153135e+03,2.643746e+03
2.156028e+03,2.605702e+03
2.158920e+03,2.593127e+03
2.161813e+03,2.592011e+03
2.164706e+03,2.595551e+03
2.167598e+03,2.570716e+03
2.170491e+03,2.582818e+03
2.173384e+03,2.589759e+03
2.176277e+03,2.560103e+03
2.179169e+03,2.537284e+03
2.182062e+03,2.554285e+03
2.184955e+03,2.537696e+03
2.187847e+03,2.513982e+03
2.190740e+03,2.521684e+03
2.193633e+03,2.529753e+03
2.196525e+03,2.485996e+03
2.199418e+03,2.500057e+03
2.202311e+03,2.477320e+03
2.205204e+03,2.481805e+03
2.208096e+03,2.466740e+03
2.210989e+03,2.436757e+03
2.213882e+03,2.450779e+03
2.216774e+03,2.435161e+03
2.219667e+03,2.445165e+03
2.222560e+03,2.426864e+03
2.225452e+03,2.403220e+03
2.228345e+03,2.420185e+03
2.231238e+03,2.423486e+03
2.234131e+03,2.405328e+03
2.237023e+03,2.376222e+03
2.239916e+03,2.362995e+03
2.242809e+03,2.361039e+03
2.245701e+03,2.362342e+03
2.248594e+03,2.342775e+03
2.251487e+03,2.367483e+03
2.254379e+03,2.341725e+03
2.257272e+03,2.317694e+03
2.260165e+03,2.317356e+03
2.263058e+03,2.318821e+03
2.265950e+03,2.321439e+03
2.268843e+03,2.303246e+03
2.271736e+03,2.296235e+03
2.274628e+03,2.284139e+03
2.277521e+03,2.284097e+03
2.280414e+03,2.264692e+03
2.283306e+03,2.267554e+03
2.286199e+03,2.256354e+03
2.289092e+03,2.253067e+03
2.291985e+03,2.233576e+03
2.294877e+03,2.234458e+03
2.297770e+03,2.238700e+03
2.300663e+03,2.223729e+03
2.303555e+03,2.207275e+03
2.306448e+03,2.208160e+03
2.309341e+03,2.195277e+03
2.312233e+03,2.194108e+03
2.315126e+03,2.167798e+03
2.318019e+03,2.166931e+03
2.320912e+03,2.179050e+03
2.323804e+03,2.172168e+03
2.326697e+03,2.158891e+03
2.329590e+03,2.150866e+03
2.332482e+03,2.137123e+03
2.335375e+03,2.130422e+03
2.338268e+03,2.106693e+03
2.341160e+03,2.119475e+03
2.344053e+03,2.141619e+03
2.346946e+03,2.104826e+03
2.349839e+03,2.100791e+03
2.352731e+03,2.086297e+03
2.355624e+03,2.078162e+03
2.358517e+03,2.098703e+03
2.361409e+03,2.083455e+03
2.364302e+03,2.074323e+03
2.367195e+03,2.076961e+03
2.370087e+03,2.045281e+03
2.372980e+03,2.059548e+03
2.375873e+03,2.048076e+03
2.378766e+03,2.035772e+03
2.381658e+03,2.027935e+03
2.384551e+03,2.012409e+03
2.387444e+03,2.010640e+03
2.390336e+03,2.001209e+03
2.393229e+03,1.998158e+03
2.396122e+03,2.003341e+03
2.399014e+03,1.975581e+03
2.401907e+03,1.983601e+03
2.404800e+03,1.972890e+03
2.407693e+03,1.986248e+03
2.410585e+03,1.956055e+03
2.413478e+03,1.963521e+03
2.416371e+03,1.934621e+03
2.419263e+03,1.952843e+03
2.422156e+03,1.939011e+03
2.425049e+03,1.942054e+03
2.427941e+03,1.919914e+03
2.430834e+03,1.902357e+03
2.433727e+03,1.910948e+03
2.436620e+03,1.892967e+03
2.439512e+03,1.899413e+03
2.442405e+03,1.886501e+03
2.445298e+03,1.894782e+03
2.448190e+03,1.880125e+03
2.451083e+03,1.876087e+03
2.453976e+03,1.857630e+03
2.456868e+03,1.870798e+03
2.459761e+03,1.852941e+03
2.462654e+03,1.848498e+03
2.465547e+03,1.855380e+03
2.468439e+03,1.851427e+03
2.471332e+03,1.831997e+03
2.474225e+03,1.830683e+03
2.477117e+03,1.822587e+03
2.480010e+03,1.842905e+03
2.482903e+03,1.806700e+03
2.485795e+03,1.797071e+03
2.488688e+03,1.804943e+03
2.491581e+03,1.788786e+03
2.494474e+03,1.778240e+03
2.497366e+03,1.779555e+03
2.500259e+03,1.796204e+03
2.503152e+03,1.758857e+03
2.506044e+03,1.766293e+03
2.508937e+03,1.744445e+03
2.511830e+03,1.739704e+03
2.514722e+03,1.740659e+03
2.517615e+03,1.746948e+03
2.520508e+03,1.735014e+03
2.523401e+03,1.739396e+03
2.526293e+03,1.737255e+03
2.529186e+03,1.710989e+03
2.532079e+03,1.713282e+03
2.534971e+03,1.712354e+03
2.537864e+03,1.694131e+03
2.540757e+03,1.699181e+03
2.543649e+03,1.680302e+03
2.546542e+03,1.683627e+03
2.549435e+03,1.675418e+03
2.552328e+03,1.698089e+03
2.555220e+03,1.677431e+03
2.558113e+03,1.679254e+03
2.561006e+03,1.660707e+03
2.563898e+03,1.680935e+03
2.566791e+03,1.670398e+03
2.569684e+03,1.653067e+03
2.572576e+03,1.646460e+03
2.575469e+03,1.672621e+03
2.578362e+03,1.641490e+03
2.581255e+03,1.646896e+03
2.584147e+03,1.599031e+03
2.587040e+03,1.621668e+03
2.589933e+03,1.631047e+03
2.592825e+03,1.610600e+03
2.595718e+03,1.618514e+03
2.598611e+03,1.599851e+03
2.601503e+03,1.607480e+03
2.604396e+03,1.579061e+03
2.607289e+03,1.605719e+03
2.610182e+03,1.589444e+03
2.613074e+03,1.558629e+03
2.615967e+03,1.563996e+03
2.618860e+03,1.569636e+03
2.621752e+03,1.560771e+03
2.624645e+03,1.566527e+03
2.627538e+03,1.549087e+03
2.630430e+03,1.554559e+03
2.633323e+03,1.546117e+03
2.636216e+03,1.543548e+03
2.639109e+03,1.551607e+03
2.642001e+03,1.528523e+03
2.644894e+03,1.536249e+03
2.647787e+03,1.518678e+03
2.650679e+03,1.516811e+03
2.653572e+03,1.529443e+03
2.656465e+03,1.511062e+03
2.659357e+03,1.510160e+03
2.662250e+03,1.489700e+03
2.665143e+03,1.505806e+03
2.668036e+03,1.492257e+03
2.670928e+03,1.496432e+03
2.673821e+03,1.504130e+03
2.676714e+03,1.465231e+03
2.679606e+03,1.465271e+03
2.682499e+03,1.481303e+03
2.685392e+03,1.483943e+03
2.688284e+03,1.473650e+03
2.691177e+03,1.470530e+03
2.694070e+03,1.455062e+03
2.696963e+03,1.459392e+03
2.699855e+03,1.457982e+03
2.702748e+03,1.446671e+03
2.705641e+03,1.454095e+03
2.708533e+03,1.426359e+03
2.711426e+03,1.429115e+03
2.714319e+03,1.412973e+03
2.717211e+03,1.432606e+03
2.720104e+03,1.417109e+03
2.722997e+03,1.424803e+03
2.725890e+03,1.400438e+03
2.728782e+03,1.401537e+03
2.731675e+03,1.406100e+03
2.734568e+03,1.413855e+03
2.737460e+03,1.407318e+03
2.740353e+03,1.398574e+03
2.743246e+03,1.378178e+03
2.746138e+03,1.397972e+03
2.749031e+03,1.385192e+03
2.751924e+03,1.382599e+03
2.754817e+03,1.380718e+03
2.757709e+03,1.355700e+03
2.760602e+03,1.378493e+03
2.763495e+03,1.364930e+03
2.766387e+03,1.368519e+03
2.769280e+03,1.365771e+03
2.772173e+03,1.368546e+03
2.775065e+03,1.360237e+03
2.777958e+03,1.342657e+03
2.780851e+03,1.338907e+03
2.783744e+03,1.319179e+03
2.786636e+03,1.332910e+03
2.789529e+03,1.337473e+03
2.792422e+03,1.342038e+03
2.795314e+03,1.344157e+03
2.798207e+03,1.327600e+03
2.801100e+03,1.321485e+03
2.803992e+03,1.333678e+03
2.806885e+03,1.320754e+03
2.809778e+03,1.301873e+03
2.812671e+03,1.323931e+03
2.815563e+03,1.314917e+03
2.818456e+03,1.321768e+03
2.821349e+03,1.309804e+03
2.824241e+03,1.305199e+03
2.827134e+03,1.300571e+03
2.830027e+03,1.289804e+03
2.832919e+03,1.304092e+03
2.835812e+03,1.291627e+03
2.838705e+03,1.318547e+03
2.841598e+03,1.255185e+03
2.844490e+03,1.287760e+03
2.847383e+03,1.293791e+03
2.850276e+03,1.284808e+03
2.853168e+03,1.267201e+03
2.856061e+03,1.255947e+03
2.858954e+03,1.296904e+03
2.861846e+03,1.269256e+03
2.864739e+03,1.248375e+03
2.867632e+03,1.272740e+03
2.870525e+03,1.279218e+03
2.873417e+03,1.265764e+03
2.876310e+03,1.262956e+03
2.879203e+03,1.267436e+03
2.882095e+03,1.273153e+03
2.884988e+03,1.265319e+03
2.887881e+03,1.264057e+03
2.890773e+03,1.262103e+03
2.893666e+03,1.246074e+03
2.896559e+03,1.261000e+03
2.899452e+03,1.238051e+03
2.902344e+03,1.271241e+03
2.905237e+03,1.252725e+03
2.908130e+03,1.226725e+03
2.911022e+03,1.222996e+03
2.913915e+03,1.212784e+03
2.916808e+03,1.255892e+03
2.919700e+03,1.227083e+03
2.922593e+03,1.221381e+03
2.925486e+03,1.201148e+03
2.928379e+03,1.181590e+03
2.931271e+03,1.224306e+03
2.934164e+03,1.202965e+03
2.937057e+03,1.210086e+03
2.939949e+03,1.185115e+03
2.942842e+03,1.177005e+03
2.945735e+03,1.170929e+03
2.948627e+03,1.173940e+03
2.951520e+03,1.193748e+03
2.954413e+03,1.236388e+03
2.957306e+03,1.225714e+03
2.960198e+03,1.184003e+03
2.963091e+03,1.175229e+03
2.965984e+03,1.197049e+03
2.968876e+03,1.158526e+03
2.971769e+03,1.151545e+03
2.974662e+03,1.154937e+03
2.977554e+03,1.176502e+03
2.980447e+03,1.144512e+03
2.983340e+03,1.156369e+03
2.986233e+03,1.160536e+03
2.989125e+03,1.129871e+03
2.992018e+03,1.139115e+03
2.994911e+03,1.138655e+03
2.997803e+03,1.179927e+03
3.000696e+03,1.138156e+03
3.003589e+03,1.150185e+03
3.006481e+03,1.147598e+03
3.009374e+03,1.117794e+03
3.012267e+03,1.150950e+03
3.015160e+03,1.121426e+03
3.018052e+03,1.123930e+03
3.020945e+03,1.122883e+03
3.023838e+03,1.152599e+03
3.026730e+03,1.129986e+03
3.029623e+03,1.116145e+03
3.032516e+03,1.139347e+03
3.035408e+03,1.130971e+03
3.038301e+03,1.121240e+03
3.041194e+03,1.137782e+03
3.044087e+03,1.096833e+03
3.046979e+03,1.105627e+03
3.049872e+03,1.135428e+03
3.052765e+03,1.118832e+03
3.055657e+03,1.110024e+03
3.058550e+03,1.127373e+03
3.061443e+03,1.102609e+03
3.064335e+03,1.104753e+03
3.067228e+03,1.107901e+03
3.070121e+03,1.111066e+03
3.073014e+03,1.126253e+03
3.075906e+03,1.081901e+03
3.078799e+03,1.111857e+03
3.081692e+03,1.060652e+03
3.084584e+03,1.082820e+03
3.087477e+03,1.107828e+03
3.090370e+03,1.099764e+03
3.093262e+03,1.090503e+03
3.096155e+03,1.111216e+03
3.099048e+03,1.089853e+03
3.101941e+03,1.125211e+03
3.104833e+03,1.056773e+03
3.107726e+03,1.052419e+03
3.110619e+03,1.094416e+03
3.113511e+03,1.078532e+03
3.116404e+03,1.127642e+03
3.119297e+03,1.092679e+03
3.122189e+03,1.109860e+03
3.125082e+03,1.087486e+03
3.127975e+03,1.119793e+03
3.130868e+03,1.120024e+03
3.133760e+03,1.118188e+03
3.136653e+03,1.089283e+03
3.139546e+03,1.117514e+03
3.142438e+03,1.085770e+03
3.145331e+03,1.121311e+03
3.148224e+03,1.090782e+03
3.151116e+03,1.088265e+03
3.154009e+03,1.078469e+03
3.156902e+03,1.106500e+03
3.159795e+03,1.118236e+03
3.162687e+03,1.097460e+03
3.165580e+03,1.132033e+03
3.168473e+03,1.093605e+03
3.171365e+03,1.100728e+03
3.174258e+03,1.107135e+03
3.177151e+03,1.098831e+03
3.180043e+03,1.030690e+03
3.182936e+03,1.119554e+03
3.185829e+03,1.072483e+03
3.188722e+03,1.102981e+03
3.191614e+03,1.140718e+03
3.194507e+03,1.045208e+03
3.197400e+03,1.085165e+03
3.200292e+03,1.105075e+03
3.203185e+03,0.000000e+00
3.206078e+03,0.000000e+00
3.208970e+03,0.000000e+00
3.211863e+03,0.000000e+00
3.214756e+03,0.000000e+00
3.217649e+03,0.000000e+00
3.220541e+03,0.000000e+00
3.223434e+03,0.000000e+00
3.226327e+03,0.000000e+00
3.229219e+03,0.000000e+00
3.232112e+03,0.000000e+00
3.235005e+03,0.000000e+00
3.237897e+03,0.000000e+00
3.240790e+03,0.000000e+00
3.243683e+03,0.000000e+00
3.246576e+03,0.000000e+00
3.249468e+03,0.000000e+00
3.252361e+03,0.000000e+00
3.255254e+03,0.000000e+00
3.258146e+03,0.000000e+00
3.261039e+03,0.000000e+00
3.263932e+03,0.000000e+00
3.266824e+03,0.000000e+00
3.269717e+03,0.000000e+00
3.272610e+03,0.000000e+00
3.275503e+03,0.000000e+00
3.278395e+03,0.000000e+00
3.281288e+03,0.000000e+00
3.284181e+03,0.000000e+00
3.287073e+03,0.000000e+00
3.289966e+03,0.000000e+00
3.292859e+03,0.000000e+00
3.295751e+03,0.000000e+00
3.298644e+03,0.000000e+00
3.301537e+03,0.000000e+00
3.304430e+03,0.000000e+00
3.307322e+03,0.000000e+00
3.310215e+03,0.000000e+00
3.313108e+03,0.000000e+00
3.316000e+03,0.000000e+00
3.318893e+03,0.000000e+00
3.321786e+03,0.000000e+00
3.324678e+03,0.000000e+00
3.327571e+03,0.000000e+00
3.330464e+03,0.000000e+00
3.333357e+03,0.000000e+00
3.336249e+03,0.000000e+00
3.339142e+03,0.000000e+00
3.342035e+03,0.000000e+00
3.344927e+03,0.000000e+00
3.347820e+03,0.000000e+00
3.350713e+03,0.000000e+00
3.353605e+03,0.000000e+00
3.356498e+03,0.000000e+00
3.359391e+03,0.000000e+00
3.362284e+03,0.000000e+00
3.365176e+03,0.000000e+00
3.368069e+03,0.000000e+00
3.370962e+03,0.000000e+00
3.373854e+03,0.000000e+00
3.376747e+03,0.000000e+00
3.379640e+03,0.000000e+00
3.382532e+03,0.000000e+00
3.385425e+03,0.000000e+00
3.388318e+03,0.000000e+00
3.391211e+03,0.000000e+00
3.394103e+03,0.000000e+00
3.396996e+03,0.000000e+00
3.399889e+03,0.000000e+00
3.402781e+03,0.000000e+00
3.405674e+03,0.000000e+00
3.408567e+03,0.000000e+00
3.411459e+03,0.000000e+00
3.414352e+03,0.000000e+00
3.417245e+03,0.000000e+00
3.420138e+03,0.000000e+00
3.423030e+03,0.000000e+00
3.425923e+03,0.000000e+00
3.428816e+03,0.000000e+00
3.431708e+03,0.000000e+00
3.434601e+03,0.000000e+00
3.437494e+03,0.000000e+00
3.440386e+03,0.000000e+00
3.443279e+03,0.000000e+00
3.446172e+03,0.000000e+00
3.449065e+03,0.000000e+00
3.451957e+03,0.000000e+00
3.454850e+03,0.000000e+00
3.457743e+03,0.000000e+00
3.460635e+03,0.000000e+00
3.463528e+03,0.000000e+00
3.466421e+03,0.000000e+00
3.469313e+03,0.000000e+00
3.472206e+03,0.000000e+00
3.475099e+03,0.000000e+00
3.477992e+03,0.000000e+00
3.480884e+03,0.000000e+00
3.483777e+03,0.000000e+00
3.486670e+03,0.000000e+00
3.489563e+03,0.000000e+00
3.492455e+03,0.000000e+00
3.495348e+03,0.000000e+00
3.498240e+03,0.000000e+00
3.500169e+03,0.000000e+00