File: RAMAN_data/23052023_r3/blue fibre7.CSV
9.931763e+01,0.000000e+00
1.022103e+02,0.000000e+00
1.051030e+02,0.000000e+00
1.079957e+02,0.000000e+00
1.108884e+02,0.000000e+00
1.137811e+02,0.000000e+00
1.166738e+02,0.000000e+00
1.195665e+02,0.000000e+00
1.224592e+02,0.000000e+00
1.253519e+02,0.000000e+00
1.282446e+02,0.000000e+00
1.311373e+02,0.000000e+00
1.340300e+02,0.000000e+00
1.369227e+02,0.000000e+00
1.398154e+02,0.000000e+00
1.427081e+02,0.000000e+00
1.456008e+02,0.000000e+00
1.484935e+02,0.000000e+00
1.513862e+02,0.000000e+00
1.542789e+02,0.000000e+00
1.571716e+02,0.000000e+00
1.600643e+02,0.000000e+00
1.629570e+02,0.000000e+00
1.658497e+02,0.000000e+00
1.687424e+02,0.000000e+00
1.716351e+02,0.000000e+00
1.745278e+02,0.000000e+00
1.774205e+02,0.000000e+00
1.803132e+02,0.000000e+00
1.832059e+02,0.000000e+00
1.860986e+02,0.000000e+00
1.889913e+02,0.000000e+00
1.918840e+02,0.000000e+00
1.947767e+02,0.000000e+00
1.976694e+02,0.000000e+00
2.005621e+02,6.264174e+03
2.034548e+02,6.347010e+03
2.063475e+02,6.339391e+03
2.092402e+02,6.351359e+03
2.121329e+02,6.357102e+03
2.150256e+02,6.373924e+03
2.179183e+02,6.400427e+03
2.208110e+02,6.433038e+03
2.237037e+02,6.436526e+03
2.265964e+02,6.447619e+03
2.294892e+02,6.478118e+03
2.323819e+02,6.504162e+03
2.352746e+02,6.539400e+03
2.381673e+02,6.538817e+03
2.410600e+02,6.544404e+03
2.439527e+02,6.583783e+03
2.468454e+02,6.625708e+03
2.497381e+02,6.652495e+03
2.526308e+02,6.663078e+03
2.555235e+02,6.674732e+03
2.584161e+02,6.672927e+03
2.613088e+02,6.704877e+03
2.642015e+02,6.765735e+03
2.670942e+02,6.799030e+03
2.699869e+02,6.806953e+03
2.728796e+02,6.822561e+03
2.757723e+02,6.849908e+03
2.786650e+02,6.879097e+03
2.815577e+02,6.897634e+03
2.844504e+02,6.877490e+03
2.873431e+02,6.884752e+03
2.902358e+02,6.867810e+03
2.931285e+02,6.880493e+03
2.960212e+02,6.900998e+03
2.989139e+02,6.904566e+03
3.018066e+02,6.926659e+03
3.046993e+02,6.920140e+03
3.075920e+02,6.911450e+03
3.104847e+02,6.928873e+03
3.133774e+02,6.967906e+03
3.162701e+02,6.986342e+03
3.191628e+02,6.974789e+03
3.220555e+02,6.995049e+03
3.249482e+02,6.996419e+03
3.278409e+02,7.017761e+03
3.307336e+02,7.040695e+03
3.336263e+02,7.044449e+03
3.365190e+02,7.033549e+03
3.394117e+02,7.044439e+03
3.423044e+02,7.079932e+03
3.451971e+02,7.072302e+03
3.480898e+02,7.108201e+03
3.509825e+02,7.086056e+03
3.538752e+02,7.119838e+03
3.567680e+02,7.116833e+03
3.596607e+02,7.110192e+03
3.625534e+02,7.143974e+03
3.654461e+02,7.145885e+03
3.683388e+02,7.145411e+03
3.712315e+02,7.184297e+03
3.741242e+02,7.179470e+03
3.770169e+02,7.185432e+03
3.799096e+02,7.195817e+03
3.828023e+02,7.206571e+03
3.856950e+02,7.180632e+03
3.885877e+02,7.181737e+03
3.914804e+02,7.216045e+03
3.943731e+02,7.227473e+03
3.972658e+02,7.204954e+03
4.001585e+02,7.194984e+03
4.030512e+02,7.215679e+03
4.059439e+02,7.225430e+03
4.088366e+02,7.240140e+03
4.117293e+02,7.236128e+03
4.146220e+02,7.204288e+03
4.175147e+02,7.230742e+03
4.204074e+02,7.221805e+03
4.233001e+02,7.247084e+03
4.261928e+02,7.238854e+03
4.290855e+02,7.232378e+03
4.319782e+02,7.247329e+03
4.348709e+02,7.267389e+03
4.377636e+02,7.257571e+03
4.406563e+02,7.255070e+03
4.435490e+02,7.254629e+03
4.464417e+02,7.253872e+03
4.493344e+02,7.284584e+03
4.522271e+02,7.269516e+03
4.551198e+02,7.298616e+03
4.580125e+02,7.281156e+03
4.609052e+02,7.269013e+03
4.637979e+02,7.273994e+03
4.666906e+02,7.278122e+03
4.695833e+02,7.264443e+03
4.724760e+02,7.255896e+03
4.753687e+02,7.272586e+03
4.782614e+02,7.272223e+03
4.811541e+02,7.267606e+03
4.840468e+02,7.272894e+03
4.869395e+02,7.247958e+03
4.898322e+02,7.238556e+03
4.927249e+02,7.246330e+03
4.956176e+02,7.276832e+03
4.985103e+02,7.233966e+03
5.014030e+02,7.255979e+03
5.042957e+02,7.273851e+03
5.071884e+02,7.265935e+03
5.100811e+02,7.248800e+03
5.129738e+02,7.261585e+03
5.158665e+02,7.266068e+03
5.187592e+02,7.280810e+03
5.216519e+02,7.276854e+03
5.245446e+02,7.259946e+03
5.274373e+02,7.271512e+03
5.303300e+02,7.281448e+03
5.332227e+02,7.274160e+03
5.361154e+02,7.277718e+03
5.390081e+02,7.298731e+03
5.419008e+02,7.358978e+03
5.447935e+02,7.353218e+03
5.476862e+02,7.336104e+03
5.505789e+02,7.332304e+03
5.534716e+02,7.324638e+03
5.563643e+02,7.331140e+03
5.592570e+02,7.331649e+03
5.621497e+02,7.314300e+03
5.650424e+02,7.286491e+03
5.679351e+02,7.252252e+03
5.708278e+02,7.211935e+03
5.737205e+02,7.213858e+03
5.766132e+02,7.214667e+03
5.795059e+02,7.190564e+03
5.823986e+02,7.199757e+03
5.852913e+02,7.184054e+03
5.881840e+02,7.194386e+03
5.910767e+02,7.191862e+03
5.939694e+02,7.218675e+03
5.968621e+02,7.221385e+03
5.997548e+02,7.188709e+03
6.026475e+02,7.169796e+03
6.055402e+02,7.212931e+03
6.084329e+02,7.212910e+03
6.113256e+02,7.220687e+03
6.142183e+02,7.178144e+03
6.171110e+02,7.127791e+03
6.200037e+02,7.137330e+03
6.228964e+02,7.117800e+03
6.257891e+02,7.140885e+03
6.286818e+02,7.113744e+03
6.315745e+02,7.126428e+03
6.344672e+02,7.120057e+03
6.373599e+02,7.080162e+03
6.402526e+02,7.068898e+03
6.431453e+02,7.083496e+03
6.460380e+02,7.051587e+03
6.489307e+02,7.040202e+03
6.518234e+02,7.041357e+03
6.547161e+02,7.035043e+03
6.576088e+02,7.004859e+03
6.605015e+02,6.986800e+03
6.633942e+02,6.980875e+03
6.662869e+02,7.001415e+03
6.691796e+02,7.026296e+03
6.720723e+02,7.008786e+03
6.749650e+02,6.976891e+03
6.778577e+02,6.954844e+03
6.807504e+02,6.944024e+03
6.836431e+02,6.940423e+03
6.865358e+02,6.916455e+03
6.894285e+02,6.906540e+03
6.923212e+02,6.908929e+03
6.952139e+02,6.873502e+03
6.981066e+02,6.884375e+03
7.009993e+02,6.874532e+03
7.038920e+02,6.861420e+03
7.067847e+02,6.838948e+03
7.096774e+02,6.834860e+03
7.125701e+02,6.833912e+03
7.154628e+02,6.836533e+03
7.183555e+02,6.820656e+03
7.212482e+02,6.771609e+03
7.241409e+02,6.780807e+03
7.270336e+02,6.754811e+03
7.299263e+02,6.762313e+03
7.328190e+02,6.764531e+03
7.357117e+02,6.708835e+03
7.386044e+02,6.714954e+03
7.414971e+02,6.718214e+03
7.443898e+02,6.700084e+03
7.472825e+02,6.683867e+03
7.501752e+02,6.672433e+03
7.530679e+02,6.646699e+03
7.559606e+02,6.681271e+03
7.588533e+02,6.658803e+03
7.617460e+02,6.652321e+03
7.646387e+02,6.645095e+03
7.675314e+02,6.633426e+03
7.704241e+02,6.615664e+03
7.733168e+02,6.594985e+03
7.762095e+02,6.586217e+03
7.791022e+02,6.583935e+03
7.819949e+02,6.556759e+03
7.848876e+02,6.556048e+03
7.877803e+02,6.548652e+03
7.906730e+02,6.534757e+03
7.935657e+02,6.546201e+03
7.964584e+02,6.483578e+03
7.993511e+02,6.485721e+03
8.022438e+02,6.442658e+03
8.051365e+02,6.448035e+03
8.080292e+02,6.454831e+03
8.109219e+02,6.412197e+03
8.138146e+02,6.427994e+03
8.167073e+02,6.385349e+03
8.196000e+02,6.399485e+03
8.224927e+02,6.392561e+03
8.253854e+02,6.381427e+03
8.282781e+02,6.346579e+03
8.311708e+02,6.331543e+03
8.340635e+02,6.343928e+03
8.369562e+02,6.332125e+03
8.398489e+02,6.291588e+03
8.427416e+02,6.335854e+03
8.456343e+02,6.309509e+03
8.485270e+02,6.280003e+03
8.514197e+02,6.264635e+03
8.543124e+02,6.246250e+03
8.572051e+02,6.262406e+03
8.600978e+02,6.224964e+03
8.629905e+02,6.202827e+03
8.658832e+02,6.184249e+03
8.687759e+02,6.177894e+03
8.716686e+02,6.163423e+03
8.745613e+02,6.145911e+03
8.774540e+02,6.161387e+03
8.803467e+02,6.131576e+03
8.832394e+02,6.117651e+03
8.861321e+02,6.124580e+03
8.890248e+02,6.116518e+03
8.919175e+02,6.083983e+03
8.948102e+02,6.067838e+03
8.977029e+02,6.050003e+03
9.005956e+02,6.014727e+03
9.034883e+02,6.028538e+03
9.063810e+02,6.013494e+03
9.092737e+02,5.984978e+03
9.121664e+02,5.970644e+03
9.150591e+02,5.962661e+03
9.179518e+02,5.980886e+03
9.208445e+02,5.919084e+03
9.237372e+02,5.912634e+03
9.266299e+02,5.893023e+03
9.295226e+02,5.870361e+03
9.324153e+02,5.898468e+03
9.353080e+02,5.842962e+03
9.382007e+02,5.839682e+03
9.410934e+02,5.835460e+03
9.439861e+02,5.834287e+03
9.468788e+02,5.838392e+03
9.497715e+02,5.804347e+03
9.526642e+02,5.795954e+03
9.555569e+02,5.775537e+03
9.584496e+02,5.741134e+03
9.613423e+02,5.758381e+03
9.642350e+02,5.733579e+03
9.671277e+02,5.719619e+03
9.700204e+02,5.713229e+03
9.729131e+02,5.700161e+03
9.758058e+02,5.689214e+03
9.786985e+02,5.676674e+03
9.815912e+02,5.651704e+03
9.844839e+02,5.614568e+03
9.873766e+02,5.605986e+03
9.902693e+02,5.604545e+03
9.931620e+02,5.605308e+03
9.960547e+02,5.590319e+03
9.989474e+02,5.548593e+03
1.001840e+03,5.540156e+03
1.004733e+03,5.556912e+03
1.007626e+03,5.535844e+03
1.010518e+03,5.522776e+03
1.013411e+03,5.484564e+03
1.016304e+03,5.475906e+03
1.019196e+03,5.476067e+03
1.022089e+03,5.462287e+03
1.024982e+03,5.445367e+03
1.027875e+03,5.451396e+03
1.030767e+03,5.420567e+03
1.033660e+03,5.407979e+03
1.036552e+03,5.420951e+03
1.039445e+03,5.391515e+03
1.042338e+03,5.385879e+03
1.045231e+03,5.373937e+03
1.048123e+03,5.350156e+03
1.051016e+03,5.343625e+03
1.053909e+03,5.340339e+03
1.056802e+03,5.313708e+03
1.059694e+03,5.290572e+03
1.062587e+03,5.293153e+03
1.065479e+03,5.278510e+03
1.068372e+03,5.275007e+03
1.071265e+03,5.301960e+03
1.074158e+03,5.262993e+03
1.077050e+03,5.220633e+03
1.079943e+03,5.238505e+03
1.082836e+03,5.235771e+03
1.085729e+03,5.238037e+03
1.088621e+03,5.250417e+03
1.091514e+03,5.206154e+03
1.094406e+03,5.203369e+03
1.097299e+03,5.165297e+03
1.100192e+03,5.135147e+03
1.103085e+03,5.132507e+03
1.105977e+03,5.121993e+03
1.108870e+03,5.109798e+03
1.111763e+03,5.092038e+03
1.114656e+03,5.078354e+03
1.117548e+03,5.069008e+03
1.120441e+03,5.066311e+03
1.123334e+03,5.064914e+03
1.126226e+03,5.027252e+03
1.129119e+03,5.022802e+03
1.132012e+03,5.018194e+03
1.134904e+03,5.017681e+03
1.137797e+03,4.976238e+03
1.140690e+03,4.980240e+03
1.143583e+03,4.959151e+03
1.146475e+03,4.973931e+03
1.149368e+03,4.938631e+03
1.152261e+03,4.929266e+03
1.155153e+03,4.908862e+03
1.158046e+03,4.871546e+03
1.160939e+03,4.863856e+03
1.163831e+03,4.871167e+03
1.166724e+03,4.860812e+03
1.169617e+03,4.836333e+03
1.172510e+03,4.834338e+03
1.175402e+03,4.824030e+03
1.178295e+03,4.815471e+03
1.181188e+03,4.801469e+03
1.184080e+03,4.797941e+03
1.186973e+03,4.775615e+03
1.189866e+03,4.760036e+03
1.192758e+03,4.758333e+03
1.195651e+03,4.768831e+03
1.198544e+03,4.751362e+03
1.201437e+03,4.703040e+03
1.204329e+03,4.690023e+03
1.207222e+03,4.698233e+03
1.210115e+03,4.699958e+03
1.213007e+03,4.680844e+03
1.215900e+03,4.663125e+03
1.218793e+03,4.657001e+03
1.221685e+03,4.663317e+03
1.224578e+03,4.668640e+03
1.227471e+03,4.673681e+03
1.230364e+03,4.638055e+03
1.233256e+03,4.617666e+03
1.236149e+03,4.606475e+03
1.239042e+03,4.613201e+03
1.241934e+03,4.592278e+03
1.244827e+03,4.584529e+03
1.247720e+03,4.560276e+03
1.250612e+03,4.550470e+03
1.253505e+03,4.544459e+03
1.256398e+03,4.503439e+03
1.259291e+03,4.532351e+03
1.262183e+03,4.505837e+03
1.265076e+03,4.485214e+03
1.267969e+03,4.467383e+03
1.270861e+03,4.490829e+03
1.273754e+03,4.479273e+03
1.276647e+03,4.465945e+03
1.279539e+03,4.460974e+03
1.282432e+03,4.437688e+03
1.285325e+03,4.434068e+03
1.288218e+03,4.435285e+03
1.291110e+03,4.418562e+03
1.294003e+03,4.414859e+03
1.296896e+03,4.387677e+03
1.299788e+03,4.362318e+03
1.302681e+03,4.370483e+03
1.305574e+03,4.373314e+03
1.308466e+03,4.380922e+03
1.311359e+03,4.343634e+03
1.314252e+03,4.322760e+03
1.317145e+03,4.325782e+03
1.320037e+03,4.331622e+03
1.322930e+03,4.330054e+03
1.325823e+03,4.310191e+03
1.328715e+03,4.308554e+03
1.331608e+03,4.296246e+03
1.334501e+03,4.297496e+03
1.337393e+03,4.280901e+03
1.340286e+03,4.292447e+03
1.343179e+03,4.249067e+03
1.346072e+03,4.245608e+03
1.348964e+03,4.249377e+03
1.351857e+03,4.257090e+03
1.354750e+03,4.251448e+03
1.357642e+03,4.251196e+03
1.360535e+03,4.200759e+03
1.363428e+03,4.216131e+03
1.366320e+03,4.231121e+03
1.369213e+03,4.194258e+03
1.372106e+03,4.173483e+03
1.374999e+03,4.167775e+03
1.377891e+03,4.156984e+03
1.380784e+03,4.171061e+03
1.383677e+03,4.160185e+03
1.386569e+03,4.111656e+03
1.389462e+03,4.130158e+03
1.392355e+03,4.114401e+03
1.395247e+03,4.099160e+03
1.398140e+03,4.102501e+03
1.401033e+03,4.100958e+03
1.403926e+03,4.082740e+03
1.406818e+03,4.061207e+03
1.409711e+03,4.076510e+03
1.412604e+03,4.065938e+03
1.415496e+03,4.045816e+03
1.418389e+03,4.061870e+03
1.421282e+03,4.030914e+03
1.424174e+03,4.033130e+03
1.427067e+03,3.997361e+03
1.429960e+03,4.034634e+03
1.432853e+03,4.002118e+03
1.435745e+03,3.993426e+03
1.438638e+03,3.981085e+03
1.441531e+03,3.980328e+03
1.444423e+03,3.976197e+03
1.447316e+03,3.976781e+03
1.450209e+03,3.973499e+03
1.453101e+03,3.967198e+03
1.455994e+03,3.968883e+03
1.458887e+03,3.976780e+03
1.461780e+03,3.940876e+03
1.464672e+03,3.922385e+03
1.467565e+03,3.906622e+03
1.470458e+03,3.899409e+03
1.473350e+03,3.895706e+03
1.476243e+03,3.891585e+03
1.479136e+03,3.892713e+03
1.482028e+03,3.891210e+03
1.484921e+03,3.872581e+03
1.487814e+03,3.870815e+03
1.490707e+03,3.857524e+03
1.493599e+03,3.853681e+03
1.496492e+03,3.831650e+03
1.499385e+03,3.813858e+03
1.502277e+03,3.818912e+03
1.505170e+03,3.848628e+03
1.508063e+03,3.821331e+03
1.510955e+03,3.801301e+03
1.513848e+03,3.807728e+03
1.516741e+03,3.798797e+03
1.519634e+03,3.773439e+03
1.522526e+03,3.761438e+03
1.525419e+03,3.780247e+03
1.528312e+03,3.746390e+03
1.531204e+03,3.741961e+03
1.534097e+03,3.741517e+03
1.536990e+03,3.725725e+03
1.539882e+03,3.736591e+03
1.542775e+03,3.706616e+03
1.545668e+03,3.696281e+03
1.548561e+03,3.706093e+03
1.551453e+03,3.699014e+03
1.554346e+03,3.690845e+03
1.557239e+03,3.720134e+03
1.560131e+03,3.714170e+03
1.563024e+03,3.736661e+03
1.565917e+03,3.783072e+03
1.568809e+03,3.809993e+03
1.571702e+03,3.812014e+03
1.574595e+03,3.774543e+03
1.577488e+03,3.725691e+03
1.580380e+03,3.711040e+03
1.583273e+03,3.690936e+03
1.586166e+03,3.686935e+03
1.589058e+03,3.640678e+03
1.591951e+03,3.608085e+03
1.594844e+03,3.580219e+03
1.597736e+03,3.586373e+03
1.600629e+03,3.590047e+03
1.603522e+03,3.574948e+03
1.606415e+03,3.575309e+03
1.609307e+03,3.551799e+03
1.612200e+03,3.535105e+03
1.615093e+03,3.534418e+03
1.617985e+03,3.538122e+03
1.620878e+03,3.525446e+03
1.623771e+03,3.519555e+03
1.626663e+03,3.516930e+03
1.629556e+03,3.518506e+03
1.632449e+03,3.506281e+03
1.635342e+03,3.485782e+03
1.638234e+03,3.483280e+03
1.641127e+03,3.462505e+03
1.644020e+03,3.469101e+03
1.646912e+03,3.452271e+03
1.649805e+03,3.428833e+03
1.652698e+03,3.445683e+03
1.655590e+03,3.427357e+03
1.658483e+03,3.424820e+03
1.661376e+03,3.413821e+03
1.664269e+03,3.409033e+03
1.667161e+03,3.389577e+03
1.670054e+03,3.401199e+03
1.672947e+03,3.377836e+03
1.675839e+03,3.392339e+03
1.678732e+03,3.379421e+03
1.681625e+03,3.355685e+03
1.684517e+03,3.368534e+03
1.687410e+03,3.356457e+03
1.690303e+03,3.319574e+03
1.693196e+03,3.332992e+03
1.696088e+03,3.324952e+03
1.698981e+03,3.313938e+03
1.701874e+03,3.296735e+03
1.704766e+03,3.296642e+03
1.707659e+03,3.305759e+03
1.710552e+03,3.280972e+03
1.713444e+03,3.241980e+03
1.716337e+03,3.268970e+03
1.719230e+03,3.260904e+03
1.722123e+03,3.253206e+03
1.725015e+03,3.231973e+03
1.727908e+03,3.223995e+03
1.730801e+03,3.206677e+03
1.733693e+03,3.228021e+03
1.736586e+03,3.202823e+03
1.739479e+03,3.204673e+03
1.742371e+03,3.196600e+03
1.745264e+03,3.189337e+03
1.748157e+03,3.172541e+03
1.751050e+03,3.178990e+03
1.753942e+03,3.134914e+03
1.756835e+03,3.155570e+03
1.759728e+03,3.129095e+03
1.762620e+03,3.127163e+03
1.765513e+03,3.142015e+03
1.768406e+03,3.135177e+03
1.771298e+03,3.109101e+03
1.774191e+03,3.095188e+03
1.777084e+03,3.094665e+03
1.779977e+03,3.076533e+03
1.782869e+03,3.095359e+03
1.785762e+03,3.082872e+03
1.788655e+03,3.070683e+03
1.791547e+03,3.064079e+03
1.794440e+03,3.061506e+03
1.797333e+03,3.070952e+03
1.800225e+03,3.054332e+03
1.803118e+03,3.016476e+03
1.806011e+03,3.031150e+03
1.808904e+03,3.023183e+03
1.811796e+03,3.001190e+03
1.814689e+03,2.992001e+03
1.817582e+03,3.017000e+03
1.820474e+03,2.958882e+03
1.823367e+03,2.939693e+03
1.826260e+03,2.951570e+03
1.829152e+03,2.954935e+03
1.832045e+03,2.935090e+03
1.834938e+03,2.942158e+03
1.837831e+03,2.919991e+03
1.840723e+03,2.939438e+03
1.843616e+03,2.920805e+03
1.846509e+03,2.930714e+03
1.849401e+03,2.892044e+03
1.852294e+03,2.881220e+03
1.855187e+03,2.879179e+03
1.858079e+03,2.913260e+03
1.860972e+03,2.880592e+03
1.863865e+03,2.875372e+03
1.866758e+03,2.859972e+03
1.869650e+03,2.868531e+03
1.872543e+03,2.852842e+03
1.875436e+03,2.840442e+03
1.878328e+03,2.830856e+03
1.881221e+03,2.806372e+03
1.884114e+03,2.828623e+03
1.887006e+03,2.796228e+03
1.889899e+03,2.793476e+03
1.892792e+03,2.806717e+03
1.895685e+03,2.792343e+03
1.898577e+03,2.784496e+03
1.901470e+03,2.766105e+03
1.904363e+03,2.753268e+03
1.907255e+03,2.755126e+03
1.910148e+03,2.757009e+03
1.913041e+03,2.738468e+03
1.915933e+03,2.720160e+03
1.918826e+03,2.738832e+03
1.921719e+03,2.701527e+03
1.924612e+03,2.721116e+03
1.927504e+03,2.699606e+03
1.930397e+03,2.708023e+03
1.933290e+03,2.669924e+03
1.936182e+03,2.682126e+03
1.939075e+03,2.656325e+03
1.941968e+03,2.656276e+03
1.944860e+03,2.662079e+03
1.947753e+03,2.637218e+03
1.950646e+03,2.657313e+03
1.953539e+03,2.627050e+03
1.956431e+03,2.627326e+03
1.959324e+03,2.622340e+03
1.962217e+03,2.625828e+03
1.965109e+03,2.611690e+03
1.968002e+03,2.616186e+03
1.970895e+03,2.590630e+03
1.973787e+03,2.574013e+03
1.976680e+03,2.589945e+03
1.979573e+03,2.553748e+03
1.982466e+03,2.546449e+03
1.985358e+03,2.531355e+03
1.988251e+03,2.544585e+03
1.991144e+03,2.534958e+03
1.994036e+03,2.524414e+03
1.996929e+03,2.507929e+03
1.999822e+03,2.527785e+03
2.002714e+03,2.513970e+03
2.005607e+03,2.511744e+03
2.008500e+03,2.487052e+03
2.011393e+03,2.475041e+03
2.014285e+03,2.489133e+03
2.017178e+03,2.459268e+03
2.020071e+03,2.456304e+03
2.022963e+03,2.457255e+03
2.025856e+03,2.430399e+03
2.028749e+03,2.436247e+03
2.031641e+03,2.425243e+03
2.034534e+03,2.431302e+03
2.037427e+03,2.407705e+03
2.040320e+03,2.385344e+03
2.043212e+03,2.381061e+03
2.046105e+03,2.382982e+03
2.048998e+03,2.385717e+03
2.051890e+03,2.371539e+03
2.054783e+03,2.368761e+03
2.057676e+03,2.354900e+03
2.060568e+03,2.352321e+03
2.063461e+03,2.358378e+03
2.066354e+03,2.336781e+03
2.069247e+03,2.307057e+03
2.072139e+03,2.318492e+03
2.075032e+03,2.310117e+03
2.077925e+03,2.321390e+03
2.080817e+03,2.305867e+03
2.083710e+03,2.298388e+03
2.086603e+03,2.292853e+03
2.089496e+03,2.296875e+03
2.092388e+03,2.256647e+03
2.095281e+03,2.275249e+03
2.098174e+03,2.290955e+03
2.101066e+03,2.266267e+03
2.103959e+03,2.249089e+03
2.106852e+03,2.230898e+03
2.109744e+03,2.241385e+03
2.112637e+03,2.216146e+03
2.115530e+03,2.193514e+03
2.118422e+03,2.192304e+03
2.121315e+03,2.246645e+03
2.124208e+03,2.208329e+03
2.127101e+03,2.166773e+03
2.129993e+03,2.171932e+03
2.132886e+03,2.150430e+03
2.135779e+03,2.178739e+03
2.138671e+03,2.158069e+03
2.141564e+03,2.144080e+03
2.144457e+03,2.130339e+03
2.147350e+03,2.112336e+03
2.150242e+03,2.127477e+03
2.153135e+03,2.128995e+03
2.156028e+03,2.110465e+03
2.158920e+03,2.095765e+03
2.161813e+03,2.089055e+03
2.164706e+03,2.075472e+03
2.167598e+03,2.073759e+03
2.170491e+03,2.084169e+03
2.173384e+03,2.088487e+03
2.176277e+03,2.072743e+03
2.179169e+03,2.049888e+03
2.182062e+03,2.067761e+03
2.184955e+03,2.039193e+03
2.187847e+03,2.044065e+03
2.190740e+03,2.036680e+03
2.193633e+03,2.005144e+03
2.196525e+03,2.017501e+03
2.199418e+03,1.998022e+03
2.202311e+03,2.000990e+03
2.205204e+03,2.016357e+03
2.208096e+03,2.009323e+03
2.210989e+03,1.966581e+03
2.213882e+03,1.989159e+03
2.216774e+03,1.984777e+03
2.219667e+03,1.976237e+03
2.222560e+03,1.966014e+03
2.225452e+03,1.945810e+03
2.228345e+03,1.928713e+03
2.231238e+03,1.944777e+03
2.234131e+03,1.941054e+03
2.237023e+03,1.939594e+03
2.239916e+03,1.911341e+03
2.242809e+03,1.903088e+03
2.245701e+03,1.906827e+03
2.248594e+03,1.890557e+03
2.251487e+03,1.900762e+03
2.254379e+03,1.876396e+03
2.257272e+03,1.864106e+03
2.260165e+03,1.873221e+03
2.263058e+03,1.873880e+03
2.265950e+03,1.858536e+03
2.268843e+03,1.846168e+03
2.271736e+03,1.837361e+03
2.274628e+03,1.836557e+03
2.277521e+03,1.826728e+03
2.280414e+03,1.825344e+03
2.283306e+03,1.820402e+03
2.286199e+03,1.780002e+03
2.289092e+03,1.794493e+03
2.291985e+03,1.778738e+03
2.294877e+03,1.795929e+03
2.297770e+03,1.790044e+03
2.300663e+03,1.795279e+03
2.303555e+03,1.781416e+03
2.306448e+03,1.754912e+03
2.309341e+03,1.769343e+03
2.312233e+03,1.757836e+03
2.315126e+03,1.761364e+03
2.318019e+03,1.746356e+03
2.320912e+03,1.757215e+03
2.323804e+03,1.727296e+03
2.326697e+03,1.749069e+03
2.329590e+03,1.712662e+03
2.332482e+03,1.716959e+03
2.335375e+03,1.706405e+03
2.338268e+03,1.716844e+03
2.341160e+03,1.708552e+03
2.344053e+03,1.710953e+03
2.346946e+03,1.702775e+03
2.349839e+03,1.679195e+03
2.352731e+03,1.690905e+03
2.355624e+03,1.682078e+03
2.358517e+03,1.680094e+03
2.361409e+03,1.667505e+03
2.364302e+03,1.670906e+03
2.367195e+03,1.646787e+03
2.370087e+03,1.649864e+03
2.372980e+03,1.642732e+03
2.375873e+03,1.655777e+03
2.378766e+03,1.635393e+03
2.381658e+03,1.611711e+03
2.384551e+03,1.631411e+03
2.387444e+03,1.609106e+03
2.390336e+03,1.604087e+03
2.393229e+03,1.609760e+03
2.396122e+03,1.603039e+03
2.399014e+03,1.606298e+03
2.401907e+03,1.584436e+03
2.404800e+03,1.583000e+03
2.407693e+03,1.587854e+03
2.410585e+03,1.589725e+03
2.413478e+03,1.553549e+03
2.416371e+03,1.560995e+03
2.419263e+03,1.539929e+03
2.422156e+03,1.548435e+03
2.425049e+03,1.557510e+03
2.427941e+03,1.530371e+03
2.430834e+03,1.548709e+03
2.433727e+03,1.541007e+03
2.436620e+03,1.529723e+03
2.439512e+03,1.523798e+03
2.442405e+03,1.526469e+03
2.445298e+03,1.511108e+03
2.448190e+03,1.504805e+03
2.451083e+03,1.509520e+03
2.453976e+03,1.510233e+03
2.456868e+03,1.481229e+03
2.459761e+03,1.499442e+03
2.462654e+03,1.469149e+03
2.465547e+03,1.466007e+03
2.468439e+03,1.483206e+03
2.471332e+03,1.487631e+03
2.474225e+03,1.460058e+03
2.477117e+03,1.467629e+03
2.480010e+03,1.467974e+03
2.482903e+03,1.460853e+03
2.485795e+03,1.440561e+03
2.488688e+03,1.435113e+03
2.491581e+03,1.435148e+03
2.494474e+03,1.438656e+03
2.497366e+03,1.427401e+03
2.500259e+03,1.435452e+03
2.503152e+03,1.421903e+03
2.506044e+03,1.429785e+03
2.508937e+03,1.415384e+03
2.511830e+03,1.397399e+03
2.514722e+03,1.398621e+03
2.517615e+03,1.402003e+03
2.520508e+03,1.388965e+03
2.523401e+03,1.390260e+03
2.526293e+03,1.389591e+03
2.529186e+03,1.381921e+03
2.532079e+03,1.376820e+03
2.534971e+03,1.369357e+03
2.537864e+03,1.368879e+03
2.540757e+03,1.359326e+03
2.543649e+03,1.348247e+03
2.546542e+03,1.360357e+03
2.549435e+03,1.368294e+03
2.552328e+03,1.350178e+03
2.555220e+03,1.373126e+03
2.558113e+03,1.349376e+03
2.561006e+03,1.332715e+03
2.563898e+03,1.331078e+03
2.566791e+03,1.340114e+03
2.569684e+03,1.336417e+03
2.572576e+03,1.322314e+03
2.575469e+03,1.315711e+03
2.578362e+03,1.328139e+03
2.581255e+03,1.305492e+03
2.584147e+03,1.312559e+03
2.587040e+03,1.309547e+03
2.589933e+03,1.301050e+03
2.592825e+03,1.297797e+03
2.595718e+03,1.287105e+03
2.598611e+03,1.281872e+03
2.601503e+03,1.268079e+03
2.604396e+03,1.291055e+03
2.607289e+03,1.263069e+03
2.610182e+03,1.276211e+03
2.613074e+03,1.262330e+03
2.615967e+03,1.246726e+03
2.618860e+03,1.267879e+03
2.621752e+03,1.257259e+03
2.624645e+03,1.276157e+03
2.627538e+03,1.237656e+03
2.630430e+03,1.273162e+03
2.633323e+03,1.254281e+03
2.636216e+03,1.242901e+03
2.639109e+03,1.253743e+03
2.642001e+03,1.228210e+03
2.644894e+03,1.229703e+03
2.647787e+03,1.231601e+03
2.650679e+03,1.212784e+03
2.653572e+03,1.206706e+03
2.656465e+03,1.209102e+03
2.659357e+03,1.199920e+03
2.662250e+03,1.206418e+03
2.665143e+03,1.202456e+03
2.668036e+03,1.226733e+03
2.670928e+03,1.201245e+03
2.673821e+03,1.187545e+03
2.676714e+03,1.171260e+03
2.679606e+03,1.188446e+03
2.682499e+03,1.169213e+03
2.685392e+03,1.192657e+03
2.688284e+03,1.176588e+03
2.691177e+03,1.172264e+03
2.694070e+03,1.164904e+03
2.696963e+03,1.173998e+03
2.699855e+03,1.153284e+03
2.702748e+03,1.166160e+03
2.705641e+03,1.154402e+03
2.708533e+03,1.167498e+03
2.711426e+03,1.138811e+03
2.714319e+03,1.149070e+03
2.717211e+03,1.150751e+03
2.720104e+03,1.137970e+03
2.722997e+03,1.120029e+03
2.725890e+03,1.138116e+03
2.728782e+03,1.125701e+03
2.731675e+03,1.115729e+03
2.734568e+03,1.125351e+03
2.737460e+03,1.129921e+03
2.740353e+03,1.114516e+03
2.743246e+03,1.112001e+03
2.746138e+03,1.101145e+03
2.749031e+03,1.118579e+03
2.751924e+03,1.095865e+03
2.754817e+03,1.103463e+03
2.757709e+03,1.094283e+03
2.760602e+03,1.117810e+03
2.763495e+03,1.094942e+03
2.766387e+03,1.109000e+03
2.769280e+03,1.082593e+03
2.772173e+03,1.074735e+03
2.775065e+03,1.093928e+03
2.777958e+03,1.069468e+03
2.780851e+03,1.090975e+03
2.783744e+03,1.073628e+03
2.786636e+03,1.072697e+03
2.789529e+03,1.057353e+03
2.792422e+03,1.045198e+03
2.795314e+03,1.036273e+03
2.798207e+03,1.063783e+03
2.801100e+03,1.050686e+03
2.803992e+03,1.064681e+03
2.806885e+03,1.042309e+03
2.809778e+03,1.068158e+03
2.812671e+03,1.059343e+03
2.815563e+03,1.042340e+03
2.818456e+03,1.052047e+03
2.821349e+03,1.024923e+03
2.824241e+03,1.030509e+03
2.827134e+03,1.057529e+03
2.830027e+03,1.030629e+03
2.832919e+03,1.017705e+03
2.835812e+03,1.033858e+03
2.838705e+03,1.030841e+03
2.841598e+03,1.029185e+03
2.844490e+03,1.021023e+03
2.847383e+03,1.011415e+03
2.850276e+03,1.002076e+03
2.853168e+03,1.034063e+03
2.856061e+03,1.003954e+03
2.858954e+03,1.025229e+03
2.861846e+03,1.017520e+03
2.864739e+03,1.035483e+03
2.867632e+03,1.011288e+03
2.870525e+03,1.038033e+03
2.873417e+03,1.014039e+03
2.876310e+03,1.013834e+03
2.879203e+03,9.944128e+02
2.882095e+03,1.007547e+03
2.884988e+03,1.039391e+03
2.887881e+03,1.021814e+03
2.890773e+03,1.014669e+03
2.893666e+03,1.014242e+03
2.896559e+03,1.001223e+03
2.899452e+03,1.011567e+03
2.902344e+03,1.000485e+03
2.905237e+03,1.010031e+03
2.908130e+03,9.870618e+02
2.911022e+03,9.804936e+02
2.913915e+03,1.010203e+03
2.916808e+03,9.915790e+02
2.919700e+03,9.847242e+02
2.922593e+03,9.727890e+02
2.925486e+03,9.476864e+02
2.928379e+03,9.843597e+02
2.931271e+03,9.449713e+02
2.934164e+03,9.530856e+02
2.937057e+03,9.626788e+02
2.939949e+03,9.741550e+02
2.942842e+03,9.423750e+02
2.945735e+03,9.473442e+02
2.948627e+03,9.314626e+02
2.951520e+03,9.672961e+02
2.954413e+03,9.597718e+02
2.957306e+03,9.965803e+02
2.960198e+03,9.476212e+02
2.963091e+03,9.632178e+02
2.965984e+03,9.423474e+02
2.968876e+03,9.490709e+02
2.971769e+03,9.365107e+02
2.974662e+03,9.096201e+02
2.977554e+03,9.536491e+02
2.980447e+03,9.365228e+02
2.983340e+03,9.421025e+02
2.986233e+03,9.107150e+02
2.989125e+03,8.882214e+02
2.992018e+03,9.292693e+02
2.994911e+03,8.910706e+02
2.997803e+03,9.304176e+02
3.000696e+03,8.958518e+02
3.003589e+03,9.082233e+02
3.006481e+03,8.559262e+02
3.009374e+03,9.024388e+02
3.012267e+03,8.890724e+02
3.015160e+03,8.972464e+02
3.018052e+03,8.823981e+02
3.020945e+03,9.064216e+02
3.023838e+03,9.067013e+02
3.026730e+03,9.066599e+02
3.029623e+03,9.022916e+02
3.032516e+03,8.832646e+02
3.035408e+03,8.809880e+02
3.038301e+03,8.790303e+02
3.041194e+03,8.927757e+02
3.044087e+03,9.065919e+02
3.046979e+03,8.475215e+02
3.049872e+03,8.900090e+02
3.052765e+03,8.775436e+02
3.055657e+03,8.934771e+02
3.058550e+03,9.125062e+02
3.061443e+03,8.670621e+02
3.064335e+03,9.000149e+02
3.067228e+03,8.495750e+02
3.070121e+03,8.856314e+02
3.073014e+03,8.986815e+02
3.075906e+03,8.613282e+02
3.078799e+03,8.860205e+02
3.081692e+03,9.058445e+02
3.084584e+03,8.682567e+02
3.087477e+03,8.801650e+02
3.090370e+03,8.926353e+02
3.093262e+03,8.494054e+02
3.096155e+03,8.759501e+02
3.099048e+03,8.579277e+02
3.101941e+03,8.928436e+02
3.104833e+03,8.455939e+02
3.107726e+03,8.270642e+02
3.110619e+03,8.608899e+02
3.113511e+03,8.612296e+02
3.116404e+03,8.714257e+02
3.119297e+03,9.055651e+02
3.122189e+03,8.595790e+02
3.125082e+03,8.719376e+02
3.127975e+03,8.958282e+02
3.130868e+03,8.512229e+02
3.133760e+03,8.610898e+02
3.136653e+03,8.624717e+02
3.139546e+03,9.137762e+02
3.142438e+03,8.807892e+02
3.145331e+03,8.870683e+02
3.148224e+03,8.747842e+02
3.151116e+03,8.524523e+02
3.154009e+03,8.627846e+02
3.156902e+03,8.905072e+02
3.159795e+03,8.666078e+02
3.162687e+03,9.051080e+02
3.165580e+03,8.673898e+02
3.168473e+03,9.239846e+02
3.171365e+03,8.239886e+02
3.174258e+03,8.813602e+02
3.177151e+03,8.701129e+02
3.180043e+03,8.514666e+02
3.182936e+03,8.745016e+02
3.185829e+03,9.035639e+02
3.188722e+03,8.641309e+02
3.191614e+03,8.646359e+02
3.194507e+03,8.783575e+02
3.197400e+03,8.886561e+02
3.200292e+03,9.037752e+02
3.203185e+03,0.000000e+00
3.206078e+03,0.000000e+00
3.208970e+03,0.000000e+00
3.211863e+03,0.000000e+00
3.214756e+03,0.000000e+00
3.217649e+03,0.000000e+00
3.220541e+03,0.000000e+00
3.223434e+03,0.000000e+00
3.226327e+03,0.000000e+00
3.229219e+03,0.000000e+00
3.232112e+03,0.000000e+00
3.235005e+03,0.000000e+00
3.237897e+03,0.000000e+00
3.240790e+03,0.000000e+00
3.243683e+03,0.000000e+00
3.246576e+03,0.000000e+00
3.249468e+03,0.000000e+00
3.252361e+03,0.000000e+00
3.255254e+03,0.000000e+00
3.258146e+03,0.000000e+00
3.261039e+03,0.000000e+00
3.263932e+03,0.000000e+00
3.266824e+03,0.000000e+00
3.269717e+03,0.000000e+00
3.272610e+03,0.000000e+00
3.275503e+03,0.000000e+00
3.278395e+03,0.000000e+00
3.281288e+03,0.000000e+00
3.284181e+03,0.000000e+00
3.287073e+03,0.000000e+00
3.289966e+03,0.000000e+00
3.292859e+03,0.000000e+00
3.295751e+03,0.000000e+00
3.298644e+03,0.000000e+00
3.301537e+03,0.000000e+00
3.304430e+03,0.000000e+00
3.307322e+03,0.000000e+00
3.310215e+03,0.000000e+00
3.313108e+03,0.000000e+00
3.316000e+03,0.000000e+00
3.318893e+03,0.000000e+00
3.321786e+03,0.000000e+00
3.324678e+03,0.000000e+00
3.327571e+03,0.000000e+00
3.330464e+03,0.000000e+00
3.333357e+03,0.000000e+00
3.336249e+03,0.000000e+00
3.339142e+03,0.000000e+00
3.342035e+03,0.000000e+00
3.344927e+03,0.000000e+00
3.347820e+03,0.000000e+00
3.350713e+03,0.000000e+00
3.353605e+03,0.000000e+00
3.356498e+03,0.000000e+00
3.359391e+03,0.000000e+00
3.362284e+03,0.000000e+00
3.365176e+03,0.000000e+00
3.368069e+03,0.000000e+00
3.370962e+03,0.000000e+00
3.373854e+03,0.000000e+00
3.376747e+03,0.000000e+00
3.379640e+03,0.000000e+00
3.382532e+03,0.000000e+00
3.385425e+03,0.000000e+00
3.388318e+03,0.000000e+00
3.391211e+03,0.000000e+00
3.394103e+03,0.000000e+00
3.396996e+03,0.000000e+00
3.399889e+03,0.000000e+00
3.402781e+03,0.000000e+00
3.405674e+03,0.000000e+00
3.408567e+03,0.000000e+00
3.411459e+03,0.000000e+00
3.414352e+03,0.000000e+00
3.417245e+03,0.000000e+00
3.420138e+03,0.000000e+00
3.423030e+03,0.000000e+00
3.425923e+03,0.000000e+00
3.428816e+03,0.000000e+00
3.431708e+03,0.000000e+00
3.434601e+03,0.000000e+00
3.437494e+03,0.000000e+00
3.440386e+03,0.000000e+00
3.443279e+03,0.000000e+00
3.446172e+03,0.000000e+00
3.449065e+03,0.000000e+00
3.451957e+03,0.000000e+00
3.454850e+03,0.000000e+00
3.457743e+03,0.000000e+00
3.460635e+03,0.000000e+00
3.463528e+03,0.000000e+00
3.466421e+03,0.000000e+00
3.469313e+03,0.000000e+00
3.472206e+03,0.000000e+00
3.475099e+03,0.000000e+00
3.477992e+03,0.000000e+00
3.480884e+03,0.000000e+00
3.483777e+03,0.000000e+00
3.486670e+03,0.000000e+00
3.489563e+03,0.000000e+00
3.492455e+03,0.000000e+00
3.495348e+03,0.000000e+00
3.498240e+03,0.000000e+00
3.500169e+03,0.000000e+00