File: RAMAN_data/23052023_r3/blue fibre5.CSV
9.931763e+01,0.000000e+00
1.022103e+02,0.000000e+00
1.051030e+02,0.000000e+00
1.079957e+02,0.000000e+00
1.108884e+02,0.000000e+00
1.137811e+02,0.000000e+00
1.166738e+02,0.000000e+00
1.195665e+02,0.000000e+00
1.224592e+02,0.000000e+00
1.253519e+02,0.000000e+00
1.282446e+02,0.000000e+00
1.311373e+02,0.000000e+00
1.340300e+02,0.000000e+00
1.369227e+02,0.000000e+00
1.398154e+02,0.000000e+00
1.427081e+02,0.000000e+00
1.456008e+02,0.000000e+00
1.484935e+02,0.000000e+00
1.513862e+02,0.000000e+00
1.542789e+02,0.000000e+00
1.571716e+02,0.000000e+00
1.600643e+02,0.000000e+00
1.629570e+02,0.000000e+00
1.658497e+02,0.000000e+00
1.687424e+02,0.000000e+00
1.716351e+02,0.000000e+00
1.745278e+02,0.000000e+00
1.774205e+02,0.000000e+00
1.803132e+02,0.000000e+00
1.832059e+02,0.000000e+00
1.860986e+02,0.000000e+00
1.889913e+02,0.000000e+00
1.918840e+02,0.000000e+00
1.947767e+02,0.000000e+00
1.976694e+02,0.000000e+00
2.005621e+02,5.250023e+03
2.034548e+02,5.284385e+03
2.063475e+02,5.309996e+03
2.092402e+02,5.345987e+03
2.121329e+02,5.338865e+03
2.150256e+02,5.346655e+03
2.179183e+02,5.397571e+03
2.208110e+02,5.430298e+03
2.237037e+02,5.403490e+03
2.265964e+02,5.428662e+03
2.294892e+02,5.459751e+03
2.323819e+02,5.490032e+03
2.352746e+02,5.523282e+03
2.381673e+02,5.537640e+03
2.410600e+02,5.552699e+03
2.439527e+02,5.590735e+03
2.468454e+02,5.597951e+03
2.497381e+02,5.640760e+03
2.526308e+02,5.623841e+03
2.555235e+02,5.636315e+03
2.584161e+02,5.657208e+03
2.613088e+02,5.702272e+03
2.642015e+02,5.728682e+03
2.670942e+02,5.735546e+03
2.699869e+02,5.772166e+03
2.728796e+02,5.806695e+03
2.757723e+02,5.837725e+03
2.786650e+02,5.868741e+03
2.815577e+02,5.864503e+03
2.844504e+02,5.867694e+03
2.873431e+02,5.853333e+03
2.902358e+02,5.850229e+03
2.931285e+02,5.864002e+03
2.960212e+02,5.875365e+03
2.989139e+02,5.911981e+03
3.018066e+02,5.929284e+03
3.046993e+02,5.919478e+03
3.075920e+02,5.909341e+03
3.104847e+02,5.945120e+03
3.133774e+02,5.960601e+03
3.162701e+02,5.961522e+03
3.191628e+02,6.005615e+03
3.220555e+02,5.993052e+03
3.249482e+02,5.999890e+03
3.278409e+02,6.012356e+03
3.307336e+02,6.039483e+03
3.336263e+02,6.046897e+03
3.365190e+02,6.023468e+03
3.394117e+02,6.064285e+03
3.423044e+02,6.098043e+03
3.451971e+02,6.100684e+03
3.480898e+02,6.119649e+03
3.509825e+02,6.126258e+03
3.538752e+02,6.134153e+03
3.567680e+02,6.137445e+03
3.596607e+02,6.154237e+03
3.625534e+02,6.164375e+03
3.654461e+02,6.135733e+03
3.683388e+02,6.154957e+03
3.712315e+02,6.214732e+03
3.741242e+02,6.208040e+03
3.770169e+02,6.225733e+03
3.799096e+02,6.230650e+03
3.828023e+02,6.228863e+03
3.856950e+02,6.228881e+03
3.885877e+02,6.239039e+03
3.914804e+02,6.242632e+03
3.943731e+02,6.234323e+03
3.972658e+02,6.256406e+03
4.001585e+02,6.269363e+03
4.030512e+02,6.264305e+03
4.059439e+02,6.274082e+03
4.088366e+02,6.288480e+03
4.117293e+02,6.289947e+03
4.146220e+02,6.298743e+03
4.175147e+02,6.302366e+03
4.204074e+02,6.306258e+03
4.233001e+02,6.316258e+03
4.261928e+02,6.313761e+03
4.290855e+02,6.307673e+03
4.319782e+02,6.311579e+03
4.348709e+02,6.344024e+03
4.377636e+02,6.330062e+03
4.406563e+02,6.343104e+03
4.435490e+02,6.330475e+03
4.464417e+02,6.336573e+03
4.493344e+02,6.364282e+03
4.522271e+02,6.371042e+03
4.551198e+02,6.355451e+03
4.580125e+02,6.351314e+03
4.609052e+02,6.353664e+03
4.637979e+02,6.337151e+03
4.666906e+02,6.346352e+03
4.695833e+02,6.390595e+03
4.724760e+02,6.339500e+03
4.753687e+02,6.366078e+03
4.782614e+02,6.363679e+03
4.811541e+02,6.370051e+03
4.840468e+02,6.370431e+03
4.869395e+02,6.374066e+03
4.898322e+02,6.388000e+03
4.927249e+02,6.386597e+03
4.956176e+02,6.391336e+03
4.985103e+02,6.381725e+03
5.014030e+02,6.380531e+03
5.042957e+02,6.387579e+03
5.071884e+02,6.369414e+03
5.100811e+02,6.409856e+03
5.129738e+02,6.398386e+03
5.158665e+02,6.399721e+03
5.187592e+02,6.390095e+03
5.216519e+02,6.384438e+03
5.245446e+02,6.396419e+03
5.274373e+02,6.417179e+03
5.303300e+02,6.401491e+03
5.332227e+02,6.403941e+03
5.361154e+02,6.412244e+03
5.390081e+02,6.437446e+03
5.419008e+02,6.521093e+03
5.447935e+02,6.499580e+03
5.476862e+02,6.458031e+03
5.505789e+02,6.454444e+03
5.534716e+02,6.439818e+03
5.563643e+02,6.439217e+03
5.592570e+02,6.463784e+03
5.621497e+02,6.468936e+03
5.650424e+02,6.413752e+03
5.679351e+02,6.413267e+03
5.708278e+02,6.370958e+03
5.737205e+02,6.361202e+03
5.766132e+02,6.376675e+03
5.795059e+02,6.350835e+03
5.823986e+02,6.354544e+03
5.852913e+02,6.353089e+03
5.881840e+02,6.381542e+03
5.910767e+02,6.351244e+03
5.939694e+02,6.388533e+03
5.968621e+02,6.395247e+03
5.997548e+02,6.369083e+03
6.026475e+02,6.361497e+03
6.055402e+02,6.414562e+03
6.084329e+02,6.417419e+03
6.113256e+02,6.392628e+03
6.142183e+02,6.348974e+03
6.171110e+02,6.330583e+03
6.200037e+02,6.318674e+03
6.228964e+02,6.294617e+03
6.257891e+02,6.316680e+03
6.286818e+02,6.319628e+03
6.315745e+02,6.300174e+03
6.344672e+02,6.312758e+03
6.373599e+02,6.299215e+03
6.402526e+02,6.292072e+03
6.431453e+02,6.272206e+03
6.460380e+02,6.233893e+03
6.489307e+02,6.249177e+03
6.518234e+02,6.264384e+03
6.547161e+02,6.253536e+03
6.576088e+02,6.210537e+03
6.605015e+02,6.208967e+03
6.633942e+02,6.184914e+03
6.662869e+02,6.226231e+03
6.691796e+02,6.237375e+03
6.720723e+02,6.245015e+03
6.749650e+02,6.193343e+03
6.778577e+02,6.161140e+03
6.807504e+02,6.152099e+03
6.836431e+02,6.130438e+03
6.865358e+02,6.135290e+03
6.894285e+02,6.136338e+03
6.923212e+02,6.103680e+03
6.952139e+02,6.122566e+03
6.981066e+02,6.124214e+03
7.009993e+02,6.078636e+03
7.038920e+02,6.076070e+03
7.067847e+02,6.059865e+03
7.096774e+02,6.071517e+03
7.125701e+02,6.064411e+03
7.154628e+02,6.042675e+03
7.183555e+02,6.037653e+03
7.212482e+02,6.013992e+03
7.241409e+02,6.016995e+03
7.270336e+02,5.997491e+03
7.299263e+02,5.999817e+03
7.328190e+02,5.999869e+03
7.357117e+02,5.941122e+03
7.386044e+02,5.967591e+03
7.414971e+02,5.974183e+03
7.443898e+02,5.958998e+03
7.472825e+02,5.960541e+03
7.501752e+02,5.937253e+03
7.530679e+02,5.941447e+03
7.559606e+02,5.919088e+03
7.588533e+02,5.901685e+03
7.617460e+02,5.892834e+03
7.646387e+02,5.877351e+03
7.675314e+02,5.890150e+03
7.704241e+02,5.872197e+03
7.733168e+02,5.857773e+03
7.762095e+02,5.864500e+03
7.791022e+02,5.876860e+03
7.819949e+02,5.833128e+03
7.848876e+02,5.830505e+03
7.877803e+02,5.808119e+03
7.906730e+02,5.808938e+03
7.935657e+02,5.793103e+03
7.964584e+02,5.755016e+03
7.993511e+02,5.769708e+03
8.022438e+02,5.746756e+03
8.051365e+02,5.719795e+03
8.080292e+02,5.731269e+03
8.109219e+02,5.699356e+03
8.138146e+02,5.697927e+03
8.167073e+02,5.668785e+03
8.196000e+02,5.663224e+03
8.224927e+02,5.670363e+03
8.253854e+02,5.654992e+03
8.282781e+02,5.640510e+03
8.311708e+02,5.657475e+03
8.340635e+02,5.620547e+03
8.369562e+02,5.616408e+03
8.398489e+02,5.619778e+03
8.427416e+02,5.610422e+03
8.456343e+02,5.588761e+03
8.485270e+02,5.558416e+03
8.514197e+02,5.557476e+03
8.543124e+02,5.526726e+03
8.572051e+02,5.525267e+03
8.600978e+02,5.513868e+03
8.629905e+02,5.524983e+03
8.658832e+02,5.522584e+03
8.687759e+02,5.497466e+03
8.716686e+02,5.512821e+03
8.745613e+02,5.446396e+03
8.774540e+02,5.460541e+03
8.803467e+02,5.446658e+03
8.832394e+02,5.459502e+03
8.861321e+02,5.458908e+03
8.890248e+02,5.407920e+03
8.919175e+02,5.401263e+03
8.948102e+02,5.371805e+03
8.977029e+02,5.390320e+03
9.005956e+02,5.364333e+03
9.034883e+02,5.361993e+03
9.063810e+02,5.325746e+03
9.092737e+02,5.323584e+03
9.121664e+02,5.320854e+03
9.150591e+02,5.311137e+03
9.179518e+02,5.307216e+03
9.208445e+02,5.245256e+03
9.237372e+02,5.230210e+03
9.266299e+02,5.233952e+03
9.295226e+02,5.239759e+03
9.324153e+02,5.209709e+03
9.353080e+02,5.192522e+03
9.382007e+02,5.177827e+03
9.410934e+02,5.183703e+03
9.439861e+02,5.174920e+03
9.468788e+02,5.131879e+03
9.497715e+02,5.119287e+03
9.526642e+02,5.121081e+03
9.555569e+02,5.102995e+03
9.584496e+02,5.135462e+03
9.613423e+02,5.097061e+03
9.642350e+02,5.071641e+03
9.671277e+02,5.072496e+03
9.700204e+02,5.052205e+03
9.729131e+02,5.043636e+03
9.758058e+02,5.012415e+03
9.786985e+02,5.004881e+03
9.815912e+02,5.001778e+03
9.844839e+02,4.971469e+03
9.873766e+02,4.959099e+03
9.902693e+02,4.979170e+03
9.931620e+02,4.953287e+03
9.960547e+02,4.943149e+03
9.989474e+02,4.901661e+03
1.001840e+03,4.916326e+03
1.004733e+03,4.903086e+03
1.007626e+03,4.870792e+03
1.010518e+03,4.881134e+03
1.013411e+03,4.856444e+03
1.016304e+03,4.844525e+03
1.019196e+03,4.831536e+03
1.022089e+03,4.806641e+03
1.024982e+03,4.817157e+03
1.027875e+03,4.793966e+03
1.030767e+03,4.773597e+03
1.033660e+03,4.774748e+03
1.036552e+03,4.786668e+03
1.039445e+03,4.759065e+03
1.042338e+03,4.746898e+03
1.045231e+03,4.722885e+03
1.048123e+03,4.723845e+03
1.051016e+03,4.715706e+03
1.053909e+03,4.710514e+03
1.056802e+03,4.688120e+03
1.059694e+03,4.686880e+03
1.062587e+03,4.639288e+03
1.065479e+03,4.665317e+03
1.068372e+03,4.647899e+03
1.071265e+03,4.657357e+03
1.074158e+03,4.648806e+03
1.077050e+03,4.637225e+03
1.079943e+03,4.630331e+03
1.082836e+03,4.647335e+03
1.085729e+03,4.620871e+03
1.088621e+03,4.618509e+03
1.091514e+03,4.592593e+03
1.094406e+03,4.571907e+03
1.097299e+03,4.547354e+03
1.100192e+03,4.535235e+03
1.103085e+03,4.515931e+03
1.105977e+03,4.512138e+03
1.108870e+03,4.488565e+03
1.111763e+03,4.482943e+03
1.114656e+03,4.489839e+03
1.117548e+03,4.499195e+03
1.120441e+03,4.485658e+03
1.123334e+03,4.446765e+03
1.126226e+03,4.423422e+03
1.129119e+03,4.413396e+03
1.132012e+03,4.417501e+03
1.134904e+03,4.395822e+03
1.137797e+03,4.381570e+03
1.140690e+03,4.364292e+03
1.143583e+03,4.368599e+03
1.146475e+03,4.361305e+03
1.149368e+03,4.341698e+03
1.152261e+03,4.326159e+03
1.155153e+03,4.300684e+03
1.158046e+03,4.287843e+03
1.160939e+03,4.292518e+03
1.163831e+03,4.282455e+03
1.166724e+03,4.271255e+03
1.169617e+03,4.243845e+03
1.172510e+03,4.229840e+03
1.175402e+03,4.220446e+03
1.178295e+03,4.231181e+03
1.181188e+03,4.232982e+03
1.184080e+03,4.199841e+03
1.186973e+03,4.198986e+03
1.189866e+03,4.184361e+03
1.192758e+03,4.190229e+03
1.195651e+03,4.172033e+03
1.198544e+03,4.160344e+03
1.201437e+03,4.141111e+03
1.204329e+03,4.109949e+03
1.207222e+03,4.116540e+03
1.210115e+03,4.100392e+03
1.213007e+03,4.113273e+03
1.215900e+03,4.081380e+03
1.218793e+03,4.095941e+03
1.221685e+03,4.094375e+03
1.224578e+03,4.105854e+03
1.227471e+03,4.090648e+03
1.230364e+03,4.087496e+03
1.233256e+03,4.058397e+03
1.236149e+03,4.018578e+03
1.239042e+03,4.029707e+03
1.241934e+03,4.022701e+03
1.244827e+03,3.988386e+03
1.247720e+03,3.979052e+03
1.250612e+03,3.973862e+03
1.253505e+03,3.961064e+03
1.256398e+03,3.963896e+03
1.259291e+03,3.932090e+03
1.262183e+03,3.940573e+03
1.265076e+03,3.931352e+03
1.267969e+03,3.915773e+03
1.270861e+03,3.908586e+03
1.273754e+03,3.907418e+03
1.276647e+03,3.876889e+03
1.279539e+03,3.890829e+03
1.282432e+03,3.884117e+03
1.285325e+03,3.856203e+03
1.288218e+03,3.873651e+03
1.291110e+03,3.848010e+03
1.294003e+03,3.830739e+03
1.296896e+03,3.828465e+03
1.299788e+03,3.814584e+03
1.302681e+03,3.809802e+03
1.305574e+03,3.816775e+03
1.308466e+03,3.804074e+03
1.311359e+03,3.806969e+03
1.314252e+03,3.801836e+03
1.317145e+03,3.786880e+03
1.320037e+03,3.784106e+03
1.322930e+03,3.754217e+03
1.325823e+03,3.764040e+03
1.328715e+03,3.740066e+03
1.331608e+03,3.742472e+03
1.334501e+03,3.749515e+03
1.337393e+03,3.733682e+03
1.340286e+03,3.700762e+03
1.343179e+03,3.709108e+03
1.346072e+03,3.701060e+03
1.348964e+03,3.696868e+03
1.351857e+03,3.693065e+03
1.354750e+03,3.686647e+03
1.357642e+03,3.652752e+03
1.360535e+03,3.672986e+03
1.363428e+03,3.677925e+03
1.366320e+03,3.665755e+03
1.369213e+03,3.655265e+03
1.372106e+03,3.645661e+03
1.374999e+03,3.617045e+03
1.377891e+03,3.602781e+03
1.380784e+03,3.613197e+03
1.383677e+03,3.598385e+03
1.386569e+03,3.585798e+03
1.389462e+03,3.583977e+03
1.392355e+03,3.553163e+03
1.395247e+03,3.560394e+03
1.398140e+03,3.575227e+03
1.401033e+03,3.554489e+03
1.403926e+03,3.541189e+03
1.406818e+03,3.527241e+03
1.409711e+03,3.509662e+03
1.412604e+03,3.503092e+03
1.415496e+03,3.510092e+03
1.418389e+03,3.503300e+03
1.421282e+03,3.491648e+03
1.424174e+03,3.486242e+03
1.427067e+03,3.474233e+03
1.429960e+03,3.479873e+03
1.432853e+03,3.468699e+03
1.435745e+03,3.459560e+03
1.438638e+03,3.451904e+03
1.441531e+03,3.452271e+03
1.444423e+03,3.441114e+03
1.447316e+03,3.442731e+03
1.450209e+03,3.441960e+03
1.453101e+03,3.444635e+03
1.455994e+03,3.431026e+03
1.458887e+03,3.431603e+03
1.461780e+03,3.432502e+03
1.464672e+03,3.411386e+03
1.467565e+03,3.399118e+03
1.470458e+03,3.369174e+03
1.473350e+03,3.355308e+03
1.476243e+03,3.364379e+03
1.479136e+03,3.371828e+03
1.482028e+03,3.349740e+03
1.484921e+03,3.343374e+03
1.487814e+03,3.337012e+03
1.490707e+03,3.347536e+03
1.493599e+03,3.332922e+03
1.496492e+03,3.328893e+03
1.499385e+03,3.324072e+03
1.502277e+03,3.303075e+03
1.505170e+03,3.312271e+03
1.508063e+03,3.309508e+03
1.510955e+03,3.288839e+03
1.513848e+03,3.268724e+03
1.516741e+03,3.264366e+03
1.519634e+03,3.264613e+03
1.522526e+03,3.266380e+03
1.525419e+03,3.247339e+03
1.528312e+03,3.243611e+03
1.531204e+03,3.235187e+03
1.534097e+03,3.219707e+03
1.536990e+03,3.231244e+03
1.539882e+03,3.230138e+03
1.542775e+03,3.219540e+03
1.545668e+03,3.192704e+03
1.548561e+03,3.207300e+03
1.551453e+03,3.199909e+03
1.554346e+03,3.188929e+03
1.557239e+03,3.208440e+03
1.560131e+03,3.217614e+03
1.563024e+03,3.239044e+03
1.565917e+03,3.318437e+03
1.568809e+03,3.365649e+03
1.571702e+03,3.381051e+03
1.574595e+03,3.312250e+03
1.577488e+03,3.266004e+03
1.580380e+03,3.247243e+03
1.583273e+03,3.254390e+03
1.586166e+03,3.193157e+03
1.589058e+03,3.155433e+03
1.591951e+03,3.107609e+03
1.594844e+03,3.095529e+03
1.597736e+03,3.085137e+03
1.600629e+03,3.094186e+03
1.603522e+03,3.085085e+03
1.606415e+03,3.070917e+03
1.609307e+03,3.057306e+03
1.612200e+03,3.053238e+03
1.615093e+03,3.048248e+03
1.617985e+03,3.060228e+03
1.620878e+03,3.052438e+03
1.623771e+03,3.031204e+03
1.626663e+03,3.042882e+03
1.629556e+03,3.035328e+03
1.632449e+03,3.028319e+03
1.635342e+03,3.012631e+03
1.638234e+03,2.992918e+03
1.641127e+03,2.975967e+03
1.644020e+03,2.995371e+03
1.646912e+03,2.979078e+03
1.649805e+03,2.965479e+03
1.652698e+03,2.949882e+03
1.655590e+03,2.961509e+03
1.658483e+03,2.940416e+03
1.661376e+03,2.940546e+03
1.664269e+03,2.929277e+03
1.667161e+03,2.935501e+03
1.670054e+03,2.930780e+03
1.672947e+03,2.916319e+03
1.675839e+03,2.922555e+03
1.678732e+03,2.920790e+03
1.681625e+03,2.902054e+03
1.684517e+03,2.876904e+03
1.687410e+03,2.881192e+03
1.690303e+03,2.890784e+03
1.693196e+03,2.873007e+03
1.696088e+03,2.864180e+03
1.698981e+03,2.863773e+03
1.701874e+03,2.848886e+03
1.704766e+03,2.830927e+03
1.707659e+03,2.832218e+03
1.710552e+03,2.836723e+03
1.713444e+03,2.822509e+03
1.716337e+03,2.799423e+03
1.719230e+03,2.794147e+03
1.722123e+03,2.789262e+03
1.725015e+03,2.789292e+03
1.727908e+03,2.766077e+03
1.730801e+03,2.771399e+03
1.733693e+03,2.757544e+03
1.736586e+03,2.782337e+03
1.739479e+03,2.755782e+03
1.742371e+03,2.750950e+03
1.745264e+03,2.746879e+03
1.748157e+03,2.715333e+03
1.751050e+03,2.720577e+03
1.753942e+03,2.731749e+03
1.756835e+03,2.730817e+03
1.759728e+03,2.701237e+03
1.762620e+03,2.696458e+03
1.765513e+03,2.685948e+03
1.768406e+03,2.679707e+03
1.771298e+03,2.679778e+03
1.774191e+03,2.659890e+03
1.777084e+03,2.649214e+03
1.779977e+03,2.651718e+03
1.782869e+03,2.657796e+03
1.785762e+03,2.645277e+03
1.788655e+03,2.632692e+03
1.791547e+03,2.623673e+03
1.794440e+03,2.614676e+03
1.797333e+03,2.633261e+03
1.800225e+03,2.622058e+03
1.803118e+03,2.607401e+03
1.806011e+03,2.595643e+03
1.808904e+03,2.578139e+03
1.811796e+03,2.586786e+03
1.814689e+03,2.568309e+03
1.817582e+03,2.589649e+03
1.820474e+03,2.547528e+03
1.823367e+03,2.553155e+03
1.826260e+03,2.542674e+03
1.829152e+03,2.551031e+03
1.832045e+03,2.550605e+03
1.834938e+03,2.545777e+03
1.837831e+03,2.535537e+03
1.840723e+03,2.526214e+03
1.843616e+03,2.509363e+03
1.846509e+03,2.506392e+03
1.849401e+03,2.524988e+03
1.852294e+03,2.480549e+03
1.855187e+03,2.484122e+03
1.858079e+03,2.467925e+03
1.860972e+03,2.492372e+03
1.863865e+03,2.484823e+03
1.866758e+03,2.461934e+03
1.869650e+03,2.449752e+03
1.872543e+03,2.456321e+03
1.875436e+03,2.446760e+03
1.878328e+03,2.434562e+03
1.881221e+03,2.429393e+03
1.884114e+03,2.430326e+03
1.887006e+03,2.420904e+03
1.889899e+03,2.421544e+03
1.892792e+03,2.403702e+03
1.895685e+03,2.386258e+03
1.898577e+03,2.402384e+03
1.901470e+03,2.399652e+03
1.904363e+03,2.379872e+03
1.907255e+03,2.384358e+03
1.910148e+03,2.356063e+03
1.913041e+03,2.335883e+03
1.915933e+03,2.348531e+03
1.918826e+03,2.339282e+03
1.921719e+03,2.345194e+03
1.924612e+03,2.337956e+03
1.927504e+03,2.329213e+03
1.930397e+03,2.326879e+03
1.933290e+03,2.318617e+03
1.936182e+03,2.313482e+03
1.939075e+03,2.321041e+03
1.941968e+03,2.307051e+03
1.944860e+03,2.293377e+03
1.947753e+03,2.274426e+03
1.950646e+03,2.277664e+03
1.953539e+03,2.292397e+03
1.956431e+03,2.261480e+03
1.959324e+03,2.271517e+03
1.962217e+03,2.254917e+03
1.965109e+03,2.236292e+03
1.968002e+03,2.249075e+03
1.970895e+03,2.252444e+03
1.973787e+03,2.225469e+03
1.976680e+03,2.216907e+03
1.979573e+03,2.221995e+03
1.982466e+03,2.218060e+03
1.985358e+03,2.195304e+03
1.988251e+03,2.206978e+03
1.991144e+03,2.191757e+03
1.994036e+03,2.193726e+03
1.996929e+03,2.161896e+03
1.999822e+03,2.165163e+03
2.002714e+03,2.177348e+03
2.005607e+03,2.155094e+03
2.008500e+03,2.131301e+03
2.011393e+03,2.138212e+03
2.014285e+03,2.129333e+03
2.017178e+03,2.135613e+03
2.020071e+03,2.121757e+03
2.022963e+03,2.101230e+03
2.025856e+03,2.102737e+03
2.028749e+03,2.081993e+03
2.031641e+03,2.087150e+03
2.034534e+03,2.077222e+03
2.037427e+03,2.061342e+03
2.040320e+03,2.057918e+03
2.043212e+03,2.060982e+03
2.046105e+03,2.050926e+03
2.048998e+03,2.073254e+03
2.051890e+03,2.056548e+03
2.054783e+03,2.024943e+03
2.057676e+03,2.025066e+03
2.060568e+03,2.020570e+03
2.063461e+03,2.020894e+03
2.066354e+03,2.010325e+03
2.069247e+03,2.006789e+03
2.072139e+03,1.998566e+03
2.075032e+03,1.991174e+03
2.077925e+03,1.984199e+03
2.080817e+03,1.974601e+03
2.083710e+03,1.960474e+03
2.086603e+03,1.965496e+03
2.089496e+03,1.969866e+03
2.092388e+03,1.954486e+03
2.095281e+03,1.961119e+03
2.098174e+03,1.940477e+03
2.101066e+03,1.934354e+03
2.103959e+03,1.947448e+03
2.106852e+03,1.920708e+03
2.109744e+03,1.930787e+03
2.112637e+03,1.906658e+03
2.115530e+03,1.900890e+03
2.118422e+03,1.898500e+03
2.121315e+03,1.919228e+03
2.124208e+03,1.896458e+03
2.127101e+03,1.879762e+03
2.129993e+03,1.866811e+03
2.132886e+03,1.859003e+03
2.135779e+03,1.853600e+03
2.138671e+03,1.853346e+03
2.141564e+03,1.855674e+03
2.144457e+03,1.825241e+03
2.147350e+03,1.828442e+03
2.150242e+03,1.831353e+03
2.153135e+03,1.829953e+03
2.156028e+03,1.815399e+03
2.158920e+03,1.808837e+03
2.161813e+03,1.800680e+03
2.164706e+03,1.811896e+03
2.167598e+03,1.790787e+03
2.170491e+03,1.824061e+03
2.173384e+03,1.777187e+03
2.176277e+03,1.781236e+03
2.179169e+03,1.772532e+03
2.182062e+03,1.772337e+03
2.184955e+03,1.765134e+03
2.187847e+03,1.750113e+03
2.190740e+03,1.754274e+03
2.193633e+03,1.733866e+03
2.196525e+03,1.725147e+03
2.199418e+03,1.753053e+03
2.202311e+03,1.729144e+03
2.205204e+03,1.719762e+03
2.208096e+03,1.721153e+03
2.210989e+03,1.705319e+03
2.213882e+03,1.705520e+03
2.216774e+03,1.717426e+03
2.219667e+03,1.692420e+03
2.222560e+03,1.701678e+03
2.225452e+03,1.678260e+03
2.228345e+03,1.668850e+03
2.231238e+03,1.687887e+03
2.234131e+03,1.681406e+03
2.237023e+03,1.665108e+03
2.239916e+03,1.649567e+03
2.242809e+03,1.643516e+03
2.245701e+03,1.622957e+03
2.248594e+03,1.635581e+03
2.251487e+03,1.622852e+03
2.254379e+03,1.617185e+03
2.257272e+03,1.613622e+03
2.260165e+03,1.615276e+03
2.263058e+03,1.592636e+03
2.265950e+03,1.572764e+03
2.268843e+03,1.585903e+03
2.271736e+03,1.596642e+03
2.274628e+03,1.577321e+03
2.277521e+03,1.584021e+03
2.280414e+03,1.570664e+03
2.283306e+03,1.567070e+03
2.286199e+03,1.548975e+03
2.289092e+03,1.547914e+03
2.291985e+03,1.538716e+03
2.294877e+03,1.540703e+03
2.297770e+03,1.556164e+03
2.300663e+03,1.546466e+03
2.303555e+03,1.515343e+03
2.306448e+03,1.541289e+03
2.309341e+03,1.508791e+03
2.312233e+03,1.497686e+03
2.315126e+03,1.514212e+03
2.318019e+03,1.513722e+03
2.320912e+03,1.507794e+03
2.323804e+03,1.507863e+03
2.326697e+03,1.489951e+03
2.329590e+03,1.487124e+03
2.332482e+03,1.479451e+03
2.335375e+03,1.477948e+03
2.338268e+03,1.481576e+03
2.341160e+03,1.453855e+03
2.344053e+03,1.466256e+03
2.346946e+03,1.457810e+03
2.349839e+03,1.451846e+03
2.352731e+03,1.450841e+03
2.355624e+03,1.457375e+03
2.358517e+03,1.446943e+03
2.361409e+03,1.443714e+03
2.364302e+03,1.425614e+03
2.367195e+03,1.416319e+03
2.370087e+03,1.422385e+03
2.372980e+03,1.417426e+03
2.375873e+03,1.410704e+03
2.378766e+03,1.404218e+03
2.381658e+03,1.401590e+03
2.384551e+03,1.395131e+03
2.387444e+03,1.399513e+03
2.390336e+03,1.384785e+03
2.393229e+03,1.395070e+03
2.396122e+03,1.390632e+03
2.399014e+03,1.374072e+03
2.401907e+03,1.382788e+03
2.404800e+03,1.370455e+03
2.407693e+03,1.367415e+03
2.410585e+03,1.349542e+03
2.413478e+03,1.348619e+03
2.416371e+03,1.343057e+03
2.419263e+03,1.351008e+03
2.422156e+03,1.337555e+03
2.425049e+03,1.334994e+03
2.427941e+03,1.314898e+03
2.430834e+03,1.330526e+03
2.433727e+03,1.312649e+03
2.436620e+03,1.311962e+03
2.439512e+03,1.304063e+03
2.442405e+03,1.306294e+03
2.445298e+03,1.310846e+03
2.448190e+03,1.300922e+03
2.451083e+03,1.290078e+03
2.453976e+03,1.293328e+03
2.456868e+03,1.276515e+03
2.459761e+03,1.275706e+03
2.462654e+03,1.271611e+03
2.465547e+03,1.260471e+03
2.468439e+03,1.269936e+03
2.471332e+03,1.264573e+03
2.474225e+03,1.253495e+03
2.477117e+03,1.240957e+03
2.480010e+03,1.252445e+03
2.482903e+03,1.243012e+03
2.485795e+03,1.249367e+03
2.488688e+03,1.243699e+03
2.491581e+03,1.232537e+03
2.494474e+03,1.219236e+03
2.497366e+03,1.242069e+03
2.500259e+03,1.226908e+03
2.503152e+03,1.223920e+03
2.506044e+03,1.222134e+03
2.508937e+03,1.223477e+03
2.511830e+03,1.204894e+03
2.514722e+03,1.204533e+03
2.517615e+03,1.204312e+03
2.520508e+03,1.185149e+03
2.523401e+03,1.187432e+03
2.526293e+03,1.181639e+03
2.529186e+03,1.178852e+03
2.532079e+03,1.185239e+03
2.534971e+03,1.171835e+03
2.537864e+03,1.180885e+03
2.540757e+03,1.163899e+03
2.543649e+03,1.181968e+03
2.546542e+03,1.170326e+03
2.549435e+03,1.171926e+03
2.552328e+03,1.168041e+03
2.555220e+03,1.152318e+03
2.558113e+03,1.140943e+03
2.561006e+03,1.172189e+03
2.563898e+03,1.134149e+03
2.566791e+03,1.149327e+03
2.569684e+03,1.133467e+03
2.572576e+03,1.136328e+03
2.575469e+03,1.133030e+03
2.578362e+03,1.119095e+03
2.581255e+03,1.125273e+03
2.584147e+03,1.116548e+03
2.587040e+03,1.108899e+03
2.589933e+03,1.112402e+03
2.592825e+03,1.104080e+03
2.595718e+03,1.096207e+03
2.598611e+03,1.082664e+03
2.601503e+03,1.095878e+03
2.604396e+03,1.084180e+03
2.607289e+03,1.083266e+03
2.610182e+03,1.095019e+03
2.613074e+03,1.081179e+03
2.615967e+03,1.088869e+03
2.618860e+03,1.073173e+03
2.621752e+03,1.090516e+03
2.624645e+03,1.065201e+03
2.627538e+03,1.072609e+03
2.630430e+03,1.084440e+03
2.633323e+03,1.049961e+03
2.636216e+03,1.052907e+03
2.639109e+03,1.041160e+03
2.642001e+03,1.054993e+03
2.644894e+03,1.026299e+03
2.647787e+03,1.044515e+03
2.650679e+03,1.040261e+03
2.653572e+03,1.021373e+03
2.656465e+03,1.039621e+03
2.659357e+03,1.028245e+03
2.662250e+03,1.006121e+03
2.665143e+03,1.023328e+03
2.668036e+03,1.016542e+03
2.670928e+03,1.022377e+03
2.673821e+03,1.015965e+03
2.676714e+03,1.022058e+03
2.679606e+03,1.011177e+03
2.682499e+03,9.951466e+02
2.685392e+03,9.932139e+02
2.688284e+03,9.971437e+02
2.691177e+03,9.920549e+02
2.694070e+03,9.910744e+02
2.696963e+03,9.873955e+02
2.699855e+03,9.874666e+02
2.702748e+03,9.915497e+02
2.705641e+03,9.876912e+02
2.708533e+03,9.794615e+02
2.711426e+03,9.611742e+02
2.714319e+03,9.741236e+02
2.717211e+03,9.824000e+02
2.720104e+03,9.671168e+02
2.722997e+03,9.405248e+02
2.725890e+03,9.543863e+02
2.728782e+03,9.742253e+02
2.731675e+03,9.681010e+02
2.734568e+03,9.480841e+02
2.737460e+03,9.445292e+02
2.740353e+03,9.354077e+02
2.743246e+03,9.629024e+02
2.746138e+03,9.412919e+02
2.749031e+03,9.550579e+02
2.751924e+03,9.540660e+02
2.754817e+03,9.408527e+02
2.757709e+03,9.597709e+02
2.760602e+03,9.342923e+02
2.763495e+03,9.205466e+02
2.766387e+03,9.133077e+02
2.769280e+03,9.223475e+02
2.772173e+03,9.075333e+02
2.775065e+03,9.147491e+02
2.777958e+03,9.072375e+02
2.780851e+03,9.125125e+02
2.783744e+03,9.125358e+02
2.786636e+03,9.072020e+02
2.789529e+03,9.161804e+02
2.792422e+03,9.000929e+02
2.795314e+03,8.943439e+02
2.798207e+03,8.937061e+02
2.801100e+03,8.873048e+02
2.803992e+03,8.665767e+02
2.806885e+03,9.454594e+02
2.809778e+03,8.748594e+02
2.812671e+03,8.692210e+02
2.815563e+03,9.063231e+02
2.818456e+03,8.874869e+02
2.821349e+03,8.863790e+02
2.824241e+03,8.767677e+02
2.827134e+03,8.784766e+02
2.830027e+03,8.622037e+02
2.832919e+03,8.781179e+02
2.835812e+03,8.675394e+02
2.838705e+03,8.708083e+02
2.841598e+03,8.587575e+02
2.844490e+03,8.665295e+02
2.847383e+03,8.511933e+02
2.850276e+03,8.640162e+02
2.853168e+03,8.666281e+02
2.856061e+03,8.550605e+02
2.858954e+03,8.667472e+02
2.861846e+03,8.654550e+02
2.864739e+03,8.330752e+02
2.867632e+03,8.562115e+02
2.870525e+03,8.489254e+02
2.873417e+03,8.709248e+02
2.876310e+03,8.534442e+02
2.879203e+03,8.780151e+02
2.882095e+03,8.695640e+02
2.884988e+03,8.656467e+02
2.887881e+03,8.732248e+02
2.890773e+03,8.362693e+02
2.893666e+03,8.559742e+02
2.896559e+03,8.938088e+02
2.899452e+03,8.621895e+02
2.902344e+03,8.503778e+02
2.905237e+03,8.383525e+02
2.908130e+03,8.437692e+02
2.911022e+03,8.346808e+02
2.913915e+03,8.482070e+02
2.916808e+03,8.340303e+02
2.919700e+03,8.150648e+02
2.922593e+03,8.173575e+02
2.925486e+03,8.005489e+02
2.928379e+03,8.186140e+02
2.931271e+03,7.909549e+02
2.934164e+03,8.158551e+02
2.937057e+03,8.484583e+02
2.939949e+03,8.291204e+02
2.942842e+03,7.938615e+02
2.945735e+03,8.164740e+02
2.948627e+03,7.978842e+02
2.951520e+03,7.972101e+02
2.954413e+03,8.107442e+02
2.957306e+03,8.540036e+02
2.960198e+03,7.869152e+02
2.963091e+03,8.077160e+02
2.965984e+03,7.879052e+02
2.968876e+03,7.893292e+02
2.971769e+03,7.941815e+02
2.974662e+03,7.708627e+02
2.977554e+03,7.777606e+02
2.980447e+03,7.811406e+02
2.983340e+03,7.638977e+02
2.986233e+03,7.663756e+02
2.989125e+03,7.780039e+02
2.992018e+03,7.878743e+02
2.994911e+03,7.729125e+02
2.997803e+03,7.821396e+02
3.000696e+03,7.620714e+02
3.003589e+03,7.624987e+02
3.006481e+03,7.593558e+02
3.009374e+03,7.747532e+02
3.012267e+03,7.415523e+02
3.015160e+03,7.707518e+02
3.018052e+03,7.525715e+02
3.020945e+03,7.402017e+02
3.023838e+03,7.518711e+02
3.026730e+03,7.613781e+02
3.029623e+03,7.628662e+02
3.032516e+03,7.373651e+02
3.035408e+03,7.723326e+02
3.038301e+03,7.680276e+02
3.041194e+03,7.733943e+02
3.044087e+03,7.406397e+02
3.046979e+03,7.477469e+02
3.049872e+03,7.486381e+02
3.052765e+03,7.372021e+02
3.055657e+03,7.416556e+02
3.058550e+03,7.516851e+02
3.061443e+03,7.575670e+02
3.064335e+03,7.229334e+02
3.067228e+03,7.666199e+02
3.070121e+03,7.288298e+02
3.073014e+03,7.480078e+02
3.075906e+03,7.300933e+02
3.078799e+03,7.366494e+02
3.081692e+03,7.265273e+02
3.084584e+03,7.454040e+02
3.087477e+03,7.284362e+02
3.090370e+03,7.508099e+02
3.093262e+03,7.401882e+02
3.096155e+03,7.365756e+02
3.099048e+03,7.338088e+02
3.101941e+03,7.427818e+02
3.104833e+03,7.489767e+02
3.107726e+03,7.062634e+02
3.110619e+03,7.384470e+02
3.113511e+03,7.248304e+02
3.116404e+03,7.404677e+02
3.119297e+03,7.394278e+02
3.122189e+03,7.374255e+02
3.125082e+03,7.290312e+02
3.127975e+03,7.353815e+02
3.130868e+03,7.632253e+02
3.133760e+03,7.662913e+02
3.136653e+03,7.317170e+02
3.139546e+03,7.818504e+02
3.142438e+03,7.362098e+02
3.145331e+03,7.437344e+02
3.148224e+03,7.239075e+02
3.151116e+03,7.245016e+02
3.154009e+03,7.537360e+02
3.156902e+03,7.319748e+02
3.159795e+03,7.476365e+02
3.162687e+03,7.361761e+02
3.165580e+03,7.390625e+02
3.168473e+03,7.139409e+02
3.171365e+03,7.396912e+02
3.174258e+03,7.472445e+02
3.177151e+03,7.426420e+02
3.180043e+03,7.375267e+02
3.182936e+03,7.218282e+02
3.185829e+03,7.653049e+02
3.188722e+03,7.491982e+02
3.191614e+03,7.551908e+02
3.194507e+03,7.710840e+02
3.197400e+03,7.636423e+02
3.200292e+03,7.824808e+02
3.203185e+03,0.000000e+00
3.206078e+03,0.000000e+00
3.208970e+03,0.000000e+00
3.211863e+03,0.000000e+00
3.214756e+03,0.000000e+00
3.217649e+03,0.000000e+00
3.220541e+03,0.000000e+00
3.223434e+03,0.000000e+00
3.226327e+03,0.000000e+00
3.229219e+03,0.000000e+00
3.232112e+03,0.000000e+00
3.235005e+03,0.000000e+00
3.237897e+03,0.000000e+00
3.240790e+03,0.000000e+00
3.243683e+03,0.000000e+00
3.246576e+03,0.000000e+00
3.249468e+03,0.000000e+00
3.252361e+03,0.000000e+00
3.255254e+03,0.000000e+00
3.258146e+03,0.000000e+00
3.261039e+03,0.000000e+00
3.263932e+03,0.000000e+00
3.266824e+03,0.000000e+00
3.269717e+03,0.000000e+00
3.272610e+03,0.000000e+00
3.275503e+03,0.000000e+00
3.278395e+03,0.000000e+00
3.281288e+03,0.000000e+00
3.284181e+03,0.000000e+00
3.287073e+03,0.000000e+00
3.289966e+03,0.000000e+00
3.292859e+03,0.000000e+00
3.295751e+03,0.000000e+00
3.298644e+03,0.000000e+00
3.301537e+03,0.000000e+00
3.304430e+03,0.000000e+00
3.307322e+03,0.000000e+00
3.310215e+03,0.000000e+00
3.313108e+03,0.000000e+00
3.316000e+03,0.000000e+00
3.318893e+03,0.000000e+00
3.321786e+03,0.000000e+00
3.324678e+03,0.000000e+00
3.327571e+03,0.000000e+00
3.330464e+03,0.000000e+00
3.333357e+03,0.000000e+00
3.336249e+03,0.000000e+00
3.339142e+03,0.000000e+00
3.342035e+03,0.000000e+00
3.344927e+03,0.000000e+00
3.347820e+03,0.000000e+00
3.350713e+03,0.000000e+00
3.353605e+03,0.000000e+00
3.356498e+03,0.000000e+00
3.359391e+03,0.000000e+00
3.362284e+03,0.000000e+00
3.365176e+03,0.000000e+00
3.368069e+03,0.000000e+00
3.370962e+03,0.000000e+00
3.373854e+03,0.000000e+00
3.376747e+03,0.000000e+00
3.379640e+03,0.000000e+00
3.382532e+03,0.000000e+00
3.385425e+03,0.000000e+00
3.388318e+03,0.000000e+00
3.391211e+03,0.000000e+00
3.394103e+03,0.000000e+00
3.396996e+03,0.000000e+00
3.399889e+03,0.000000e+00
3.402781e+03,0.000000e+00
3.405674e+03,0.000000e+00
3.408567e+03,0.000000e+00
3.411459e+03,0.000000e+00
3.414352e+03,0.000000e+00
3.417245e+03,0.000000e+00
3.420138e+03,0.000000e+00
3.423030e+03,0.000000e+00
3.425923e+03,0.000000e+00
3.428816e+03,0.000000e+00
3.431708e+03,0.000000e+00
3.434601e+03,0.000000e+00
3.437494e+03,0.000000e+00
3.440386e+03,0.000000e+00
3.443279e+03,0.000000e+00
3.446172e+03,0.000000e+00
3.449065e+03,0.000000e+00
3.451957e+03,0.000000e+00
3.454850e+03,0.000000e+00
3.457743e+03,0.000000e+00
3.460635e+03,0.000000e+00
3.463528e+03,0.000000e+00
3.466421e+03,0.000000e+00
3.469313e+03,0.000000e+00
3.472206e+03,0.000000e+00
3.475099e+03,0.000000e+00
3.477992e+03,0.000000e+00
3.480884e+03,0.000000e+00
3.483777e+03,0.000000e+00
3.486670e+03,0.000000e+00
3.489563e+03,0.000000e+00
3.492455e+03,0.000000e+00
3.495348e+03,0.000000e+00
3.498240e+03,0.000000e+00
3.500169e+03,0.000000e+00