File: RAMAN_data/23052023_r3/brown fibre.CSV
9.931763e+01,0.000000e+00
1.022103e+02,0.000000e+00
1.051030e+02,0.000000e+00
1.079957e+02,0.000000e+00
1.108884e+02,0.000000e+00
1.137811e+02,0.000000e+00
1.166738e+02,0.000000e+00
1.195665e+02,0.000000e+00
1.224592e+02,0.000000e+00
1.253519e+02,0.000000e+00
1.282446e+02,0.000000e+00
1.311373e+02,0.000000e+00
1.340300e+02,0.000000e+00
1.369227e+02,0.000000e+00
1.398154e+02,0.000000e+00
1.427081e+02,0.000000e+00
1.456008e+02,0.000000e+00
1.484935e+02,0.000000e+00
1.513862e+02,0.000000e+00
1.542789e+02,0.000000e+00
1.571716e+02,0.000000e+00
1.600643e+02,0.000000e+00
1.629570e+02,0.000000e+00
1.658497e+02,0.000000e+00
1.687424e+02,0.000000e+00
1.716351e+02,0.000000e+00
1.745278e+02,0.000000e+00
1.774205e+02,0.000000e+00
1.803132e+02,0.000000e+00
1.832059e+02,0.000000e+00
1.860986e+02,0.000000e+00
1.889913e+02,0.000000e+00
1.918840e+02,0.000000e+00
1.947767e+02,0.000000e+00
1.976694e+02,0.000000e+00
2.005621e+02,1.047981e+04
2.034548e+02,1.052034e+04
2.063475e+02,1.054905e+04
2.092402e+02,1.055023e+04
2.121329e+02,1.055114e+04
2.150256e+02,1.057994e+04
2.179183e+02,1.060919e+04
2.208110e+02,1.066058e+04
2.237037e+02,1.067718e+04
2.265964e+02,1.068749e+04
2.294892e+02,1.071674e+04
2.323819e+02,1.076485e+04
2.352746e+02,1.080180e+04
2.381673e+02,1.083688e+04
2.410600e+02,1.083374e+04
2.439527e+02,1.085114e+04
2.468454e+02,1.088743e+04
2.497381e+02,1.092293e+04
2.526308e+02,1.095972e+04
2.555235e+02,1.097477e+04
2.584161e+02,1.097703e+04
2.613088e+02,1.102010e+04
2.642015e+02,1.107264e+04
2.670942e+02,1.109793e+04
2.699869e+02,1.113241e+04
2.728796e+02,1.114520e+04
2.757723e+02,1.118599e+04
2.786650e+02,1.122956e+04
2.815577e+02,1.125743e+04
2.844504e+02,1.128402e+04
2.873431e+02,1.129060e+04
2.902358e+02,1.131700e+04
2.931285e+02,1.134644e+04
2.960212e+02,1.139113e+04
2.989139e+02,1.141448e+04
3.018066e+02,1.143413e+04
3.046993e+02,1.146692e+04
3.075920e+02,1.148884e+04
3.104847e+02,1.152890e+04
3.133774e+02,1.157925e+04
3.162701e+02,1.159601e+04
3.191628e+02,1.160888e+04
3.220555e+02,1.164175e+04
3.249482e+02,1.168424e+04
3.278409e+02,1.172364e+04
3.307336e+02,1.175929e+04
3.336263e+02,1.178546e+04
3.365190e+02,1.179593e+04
3.394117e+02,1.184477e+04
3.423044e+02,1.189110e+04
3.451971e+02,1.195065e+04
3.480898e+02,1.197636e+04
3.509825e+02,1.198931e+04
3.538752e+02,1.203903e+04
3.567680e+02,1.208796e+04
3.596607e+02,1.212734e+04
3.625534e+02,1.216518e+04
3.654461e+02,1.215143e+04
3.683388e+02,1.217766e+04
3.712315e+02,1.224066e+04
3.741242e+02,1.227460e+04
3.770169e+02,1.231209e+04
3.799096e+02,1.235504e+04
3.828023e+02,1.237077e+04
3.856950e+02,1.241141e+04
3.885877e+02,1.246715e+04
3.914804e+02,1.251785e+04
3.943731e+02,1.254654e+04
3.972658e+02,1.257221e+04
4.001585e+02,1.259571e+04
4.030512e+02,1.265208e+04
4.059439e+02,1.268439e+04
4.088366e+02,1.272684e+04
4.117293e+02,1.274472e+04
4.146220e+02,1.277363e+04
4.175147e+02,1.281375e+04
4.204074e+02,1.285257e+04
4.233001e+02,1.288676e+04
4.261928e+02,1.290905e+04
4.290855e+02,1.294774e+04
4.319782e+02,1.298699e+04
4.348709e+02,1.304558e+04
4.377636e+02,1.309523e+04
4.406563e+02,1.313692e+04
4.435490e+02,1.317664e+04
4.464417e+02,1.321787e+04
4.493344e+02,1.326524e+04
4.522271e+02,1.329400e+04
4.551198e+02,1.332378e+04
4.580125e+02,1.333318e+04
4.609052e+02,1.337773e+04
4.637979e+02,1.340457e+04
4.666906e+02,1.342731e+04
4.695833e+02,1.347626e+04
4.724760e+02,1.351270e+04
4.753687e+02,1.353410e+04
4.782614e+02,1.356131e+04
4.811541e+02,1.360236e+04
4.840468e+02,1.364771e+04
4.869395e+02,1.368210e+04
4.898322e+02,1.370779e+04
4.927249e+02,1.374528e+04
4.956176e+02,1.378946e+04
4.985103e+02,1.383496e+04
5.014030e+02,1.385635e+04
5.042957e+02,1.387435e+04
5.071884e+02,1.389094e+04
5.100811e+02,1.391389e+04
5.129738e+02,1.394534e+04
5.158665e+02,1.399864e+04
5.187592e+02,1.401324e+04
5.216519e+02,1.400965e+04
5.245446e+02,1.405543e+04
5.274373e+02,1.410163e+04
5.303300e+02,1.412588e+04
5.332227e+02,1.412560e+04
5.361154e+02,1.414876e+04
5.390081e+02,1.417050e+04
5.419008e+02,1.421884e+04
5.447935e+02,1.426149e+04
5.476862e+02,1.428333e+04
5.505789e+02,1.428684e+04
5.534716e+02,1.427754e+04
5.563643e+02,1.432018e+04
5.592570e+02,1.435616e+04
5.621497e+02,1.439771e+04
5.650424e+02,1.440605e+04
5.679351e+02,1.440203e+04
5.708278e+02,1.441442e+04
5.737205e+02,1.446703e+04
5.766132e+02,1.451686e+04
5.795059e+02,1.454171e+04
5.823986e+02,1.455829e+04
5.852913e+02,1.457644e+04
5.881840e+02,1.461572e+04
5.910767e+02,1.465786e+04
5.939694e+02,1.469935e+04
5.968621e+02,1.471511e+04
5.997548e+02,1.472276e+04
6.026475e+02,1.474913e+04
6.055402e+02,1.479394e+04
6.084329e+02,1.480400e+04
6.113256e+02,1.479959e+04
6.142183e+02,1.479833e+04
6.171110e+02,1.480506e+04
6.200037e+02,1.484453e+04
6.228964e+02,1.487450e+04
6.257891e+02,1.491219e+04
6.286818e+02,1.490214e+04
6.315745e+02,1.490820e+04
6.344672e+02,1.494905e+04
6.373599e+02,1.498393e+04
6.402526e+02,1.499711e+04
6.431453e+02,1.500872e+04
6.460380e+02,1.501161e+04
6.489307e+02,1.505329e+04
6.518234e+02,1.509699e+04
6.547161e+02,1.510748e+04
6.576088e+02,1.509536e+04
6.605015e+02,1.509805e+04
6.633942e+02,1.510734e+04
6.662869e+02,1.514652e+04
6.691796e+02,1.518144e+04
6.720723e+02,1.518572e+04
6.749650e+02,1.516938e+04
6.778577e+02,1.514802e+04
6.807504e+02,1.516739e+04
6.836431e+02,1.520608e+04
6.865358e+02,1.520188e+04
6.894285e+02,1.519513e+04
6.923212e+02,1.519975e+04
6.952139e+02,1.521645e+04
6.981066e+02,1.526940e+04
7.009993e+02,1.527333e+04
7.038920e+02,1.526940e+04
7.067847e+02,1.525439e+04
7.096774e+02,1.526092e+04
7.125701e+02,1.527581e+04
7.154628e+02,1.528784e+04
7.183555e+02,1.529253e+04
7.212482e+02,1.527303e+04
7.241409e+02,1.527056e+04
7.270336e+02,1.526713e+04
7.299263e+02,1.527675e+04
7.328190e+02,1.527825e+04
7.357117e+02,1.526930e+04
7.386044e+02,1.526215e+04
7.414971e+02,1.526360e+04
7.443898e+02,1.526421e+04
7.472825e+02,1.529960e+04
7.501752e+02,1.526551e+04
7.530679e+02,1.525431e+04
7.559606e+02,1.524391e+04
7.588533e+02,1.525382e+04
7.617460e+02,1.528184e+04
7.646387e+02,1.524558e+04
7.675314e+02,1.525678e+04
7.704241e+02,1.521191e+04
7.733168e+02,1.518383e+04
7.762095e+02,1.522938e+04
7.791022e+02,1.524479e+04
7.819949e+02,1.519989e+04
7.848876e+02,1.517437e+04
7.877803e+02,1.515950e+04
7.906730e+02,1.514235e+04
7.935657e+02,1.517511e+04
7.964584e+02,1.512699e+04
7.993511e+02,1.512025e+04
8.022438e+02,1.510734e+04
8.051365e+02,1.511129e+04
8.080292e+02,1.512501e+04
8.109219e+02,1.510991e+04
8.138146e+02,1.510410e+04
8.167073e+02,1.508447e+04
8.196000e+02,1.507412e+04
8.224927e+02,1.508079e+04
8.253854e+02,1.507502e+04
8.282781e+02,1.504107e+04
8.311708e+02,1.500484e+04
8.340635e+02,1.500798e+04
8.369562e+02,1.500045e+04
8.398489e+02,1.497962e+04
8.427416e+02,1.495380e+04
8.456343e+02,1.491493e+04
8.485270e+02,1.488333e+04
8.514197e+02,1.485256e+04
8.543124e+02,1.485149e+04
8.572051e+02,1.483683e+04
8.600978e+02,1.479960e+04
8.629905e+02,1.478422e+04
8.658832e+02,1.475915e+04
8.687759e+02,1.476681e+04
8.716686e+02,1.476069e+04
8.745613e+02,1.470286e+04
8.774540e+02,1.468101e+04
8.803467e+02,1.467744e+04
8.832394e+02,1.466477e+04
8.861321e+02,1.467148e+04
8.890248e+02,1.463441e+04
8.919175e+02,1.458591e+04
8.948102e+02,1.457230e+04
8.977029e+02,1.455250e+04
9.005956e+02,1.451730e+04
9.034883e+02,1.452976e+04
9.063810e+02,1.448216e+04
9.092737e+02,1.445627e+04
9.121664e+02,1.443397e+04
9.150591e+02,1.441934e+04
9.179518e+02,1.442280e+04
9.208445e+02,1.435686e+04
9.237372e+02,1.432475e+04
9.266299e+02,1.432090e+04
9.295226e+02,1.431743e+04
9.324153e+02,1.430501e+04
9.353080e+02,1.429450e+04
9.382007e+02,1.425009e+04
9.410934e+02,1.422755e+04
9.439861e+02,1.419716e+04
9.468788e+02,1.418974e+04
9.497715e+02,1.417138e+04
9.526642e+02,1.410908e+04
9.555569e+02,1.405368e+04
9.584496e+02,1.401745e+04
9.613423e+02,1.400254e+04
9.642350e+02,1.396746e+04
9.671277e+02,1.394430e+04
9.700204e+02,1.389770e+04
9.729131e+02,1.383936e+04
9.758058e+02,1.383007e+04
9.786985e+02,1.383164e+04
9.815912e+02,1.379938e+04
9.844839e+02,1.373304e+04
9.873766e+02,1.369705e+04
9.902693e+02,1.367584e+04
9.931620e+02,1.368204e+04
9.960547e+02,1.365794e+04
9.989474e+02,1.360420e+04
1.001840e+03,1.353603e+04
1.004733e+03,1.352163e+04
1.007626e+03,1.352325e+04
1.010518e+03,1.352471e+04
1.013411e+03,1.346525e+04
1.016304e+03,1.341451e+04
1.019196e+03,1.339172e+04
1.022089e+03,1.337375e+04
1.024982e+03,1.338008e+04
1.027875e+03,1.333784e+04
1.030767e+03,1.328700e+04
1.033660e+03,1.325654e+04
1.036552e+03,1.323509e+04
1.039445e+03,1.323010e+04
1.042338e+03,1.319751e+04
1.045231e+03,1.316458e+04
1.048123e+03,1.311863e+04
1.051016e+03,1.309315e+04
1.053909e+03,1.310733e+04
1.056802e+03,1.308790e+04
1.059694e+03,1.305507e+04
1.062587e+03,1.302000e+04
1.065479e+03,1.300263e+04
1.068372e+03,1.299774e+04
1.071265e+03,1.300558e+04
1.074158e+03,1.298119e+04
1.077050e+03,1.292508e+04
1.079943e+03,1.289903e+04
1.082836e+03,1.290236e+04
1.085729e+03,1.288571e+04
1.088621e+03,1.286404e+04
1.091514e+03,1.280080e+04
1.094406e+03,1.274735e+04
1.097299e+03,1.273295e+04
1.100192e+03,1.273119e+04
1.103085e+03,1.271147e+04
1.105977e+03,1.267960e+04
1.108870e+03,1.264821e+04
1.111763e+03,1.262101e+04
1.114656e+03,1.261395e+04
1.117548e+03,1.262586e+04
1.120441e+03,1.260149e+04
1.123334e+03,1.255537e+04
1.126226e+03,1.251300e+04
1.129119e+03,1.251258e+04
1.132012e+03,1.252052e+04
1.134904e+03,1.249040e+04
1.137797e+03,1.244569e+04
1.140690e+03,1.242165e+04
1.143583e+03,1.240975e+04
1.146475e+03,1.240131e+04
1.149368e+03,1.239221e+04
1.152261e+03,1.239153e+04
1.155153e+03,1.233257e+04
1.158046e+03,1.230259e+04
1.160939e+03,1.231853e+04
1.163831e+03,1.232244e+04
1.166724e+03,1.228697e+04
1.169617e+03,1.225057e+04
1.172510e+03,1.222180e+04
1.175402e+03,1.221976e+04
1.178295e+03,1.221964e+04
1.181188e+03,1.222203e+04
1.184080e+03,1.218908e+04
1.186973e+03,1.215668e+04
1.189866e+03,1.215900e+04
1.192758e+03,1.215399e+04
1.195651e+03,1.215549e+04
1.198544e+03,1.215996e+04
1.201437e+03,1.210229e+04
1.204329e+03,1.207045e+04
1.207222e+03,1.208390e+04
1.210115e+03,1.211086e+04
1.213007e+03,1.210106e+04
1.215900e+03,1.207097e+04
1.218793e+03,1.206245e+04
1.221685e+03,1.206958e+04
1.224578e+03,1.208925e+04
1.227471e+03,1.209407e+04
1.230364e+03,1.208161e+04
1.233256e+03,1.204761e+04
1.236149e+03,1.203647e+04
1.239042e+03,1.207756e+04
1.241934e+03,1.209733e+04
1.244827e+03,1.207964e+04
1.247720e+03,1.205952e+04
1.250612e+03,1.205655e+04
1.253505e+03,1.207197e+04
1.256398e+03,1.208948e+04
1.259291e+03,1.210071e+04
1.262183e+03,1.207357e+04
1.265076e+03,1.206637e+04
1.267969e+03,1.206765e+04
1.270861e+03,1.211051e+04
1.273754e+03,1.212878e+04
1.276647e+03,1.211686e+04
1.279539e+03,1.209201e+04
1.282432e+03,1.208648e+04
1.285325e+03,1.212164e+04
1.288218e+03,1.214276e+04
1.291110e+03,1.213736e+04
1.294003e+03,1.213659e+04
1.296896e+03,1.212598e+04
1.299788e+03,1.215301e+04
1.302681e+03,1.218566e+04
1.305574e+03,1.221313e+04
1.308466e+03,1.219353e+04
1.311359e+03,1.220751e+04
1.314252e+03,1.221000e+04
1.317145e+03,1.224658e+04
1.320037e+03,1.227777e+04
1.322930e+03,1.226070e+04
1.325823e+03,1.225626e+04
1.328715e+03,1.227983e+04
1.331608e+03,1.231475e+04
1.334501e+03,1.234862e+04
1.337393e+03,1.235368e+04
1.340286e+03,1.236559e+04
1.343179e+03,1.235840e+04
1.346072e+03,1.238830e+04
1.348964e+03,1.241407e+04
1.351857e+03,1.243669e+04
1.354750e+03,1.245151e+04
1.357642e+03,1.244433e+04
1.360535e+03,1.246664e+04
1.363428e+03,1.248835e+04
1.366320e+03,1.253539e+04
1.369213e+03,1.255059e+04
1.372106e+03,1.257047e+04
1.374999e+03,1.258062e+04
1.377891e+03,1.261267e+04
1.380784e+03,1.265576e+04
1.383677e+03,1.270505e+04
1.386569e+03,1.272591e+04
1.389462e+03,1.274506e+04
1.392355e+03,1.276364e+04
1.395247e+03,1.281360e+04
1.398140e+03,1.286956e+04
1.401033e+03,1.290957e+04
1.403926e+03,1.292533e+04
1.406818e+03,1.293384e+04
1.409711e+03,1.299908e+04
1.412604e+03,1.305415e+04
1.415496e+03,1.308281e+04
1.418389e+03,1.311972e+04
1.421282e+03,1.312875e+04
1.424174e+03,1.316763e+04
1.427067e+03,1.323534e+04
1.429960e+03,1.328490e+04
1.432853e+03,1.330423e+04
1.435745e+03,1.332725e+04
1.438638e+03,1.335838e+04
1.441531e+03,1.341933e+04
1.444423e+03,1.348399e+04
1.447316e+03,1.350816e+04
1.450209e+03,1.352345e+04
1.453101e+03,1.357444e+04
1.455994e+03,1.363758e+04
1.458887e+03,1.371918e+04
1.461780e+03,1.377436e+04
1.464672e+03,1.378912e+04
1.467565e+03,1.382836e+04
1.470458e+03,1.389807e+04
1.473350e+03,1.395874e+04
1.476243e+03,1.403146e+04
1.479136e+03,1.406881e+04
1.482028e+03,1.410545e+04
1.484921e+03,1.417298e+04
1.487814e+03,1.425586e+04
1.490707e+03,1.429652e+04
1.493599e+03,1.435119e+04
1.496492e+03,1.441447e+04
1.499385e+03,1.445800e+04
1.502277e+03,1.453370e+04
1.505170e+03,1.462279e+04
1.508063e+03,1.468746e+04
1.510955e+03,1.473512e+04
1.513848e+03,1.477867e+04
1.516741e+03,1.487727e+04
1.519634e+03,1.495548e+04
1.522526e+03,1.504730e+04
1.525419e+03,1.511550e+04
1.528312e+03,1.515137e+04
1.531204e+03,1.523831e+04
1.534097e+03,1.532588e+04
1.536990e+03,1.539478e+04
1.539882e+03,1.546646e+04
1.542775e+03,1.553259e+04
1.545668e+03,1.558705e+04
1.548561e+03,1.568219e+04
1.551453e+03,1.579566e+04
1.554346e+03,1.587394e+04
1.557239e+03,1.594191e+04
1.560131e+03,1.599183e+04
1.563024e+03,1.603525e+04
1.565917e+03,1.608062e+04
1.568809e+03,1.615446e+04
1.571702e+03,1.618583e+04
1.574595e+03,1.619488e+04
1.577488e+03,1.627400e+04
1.580380e+03,1.632701e+04
1.583273e+03,1.638147e+04
1.586166e+03,1.643437e+04
1.589058e+03,1.646577e+04
1.591951e+03,1.649365e+04
1.594844e+03,1.658569e+04
1.597736e+03,1.661000e+04
1.600629e+03,1.669585e+04
1.603522e+03,1.674176e+04
1.606415e+03,1.674742e+04
1.609307e+03,1.678824e+04
1.612200e+03,1.669385e+04
1.615093e+03,1.668469e+04
1.617985e+03,1.679687e+04
1.620878e+03,1.677582e+04
1.623771e+03,1.680606e+04
1.626663e+03,1.679471e+04
1.629556e+03,1.682644e+04
1.632449e+03,1.684208e+04
1.635342e+03,1.686188e+04
1.638234e+03,1.684831e+04
1.641127e+03,1.686471e+04
1.644020e+03,1.690779e+04
1.646912e+03,1.688578e+04
1.649805e+03,1.685151e+04
1.652698e+03,1.677665e+04
1.655590e+03,1.672739e+04
1.658483e+03,1.678229e+04
1.661376e+03,1.674581e+04
1.664269e+03,1.670691e+04
1.667161e+03,1.667751e+04
1.670054e+03,1.658420e+04
1.672947e+03,1.661992e+04
1.675839e+03,1.659124e+04
1.678732e+03,1.653634e+04
1.681625e+03,1.653397e+04
1.684517e+03,1.650423e+04
1.687410e+03,1.650949e+04
1.690303e+03,1.645909e+04
1.693196e+03,1.641704e+04
1.696088e+03,1.648610e+04
1.698981e+03,1.642747e+04
1.701874e+03,1.638413e+04
1.704766e+03,1.643662e+04
1.707659e+03,1.631692e+04
1.710552e+03,1.631551e+04
1.713444e+03,1.628700e+04
1.716337e+03,1.622927e+04
1.719230e+03,1.624161e+04
1.722123e+03,1.619962e+04
1.725015e+03,1.616222e+04
1.727908e+03,1.615058e+04
1.730801e+03,1.616019e+04
1.733693e+03,1.611326e+04
1.736586e+03,1.612215e+04
1.739479e+03,1.610799e+04
1.742371e+03,1.609375e+04
1.745264e+03,1.601264e+04
1.748157e+03,1.596354e+04
1.751050e+03,1.599934e+04
1.753942e+03,1.595701e+04
1.756835e+03,1.599090e+04
1.759728e+03,1.586104e+04
1.762620e+03,1.588801e+04
1.765513e+03,1.588920e+04
1.768406e+03,1.589169e+04
1.771298e+03,1.584544e+04
1.774191e+03,1.579812e+04
1.777084e+03,1.574774e+04
1.779977e+03,1.572536e+04
1.782869e+03,1.579642e+04
1.785762e+03,1.579210e+04
1.788655e+03,1.570238e+04
1.791547e+03,1.567665e+04
1.794440e+03,1.561637e+04
1.797333e+03,1.565297e+04
1.800225e+03,1.567809e+04
1.803118e+03,1.559444e+04
1.806011e+03,1.556829e+04
1.808904e+03,1.554238e+04
1.811796e+03,1.550885e+04
1.814689e+03,1.550159e+04
1.817582e+03,1.549712e+04
1.820474e+03,1.545023e+04
1.823367e+03,1.539860e+04
1.826260e+03,1.537124e+04
1.829152e+03,1.539988e+04
1.832045e+03,1.543342e+04
1.834938e+03,1.533781e+04
1.837831e+03,1.531266e+04
1.840723e+03,1.532174e+04
1.843616e+03,1.526348e+04
1.846509e+03,1.528380e+04
1.849401e+03,1.521980e+04
1.852294e+03,1.523888e+04
1.855187e+03,1.513897e+04
1.858079e+03,1.514235e+04
1.860972e+03,1.515980e+04
1.863865e+03,1.515354e+04
1.866758e+03,1.511635e+04
1.869650e+03,1.506390e+04
1.872543e+03,1.505431e+04
1.875436e+03,1.509493e+04
1.878328e+03,1.499607e+04
1.881221e+03,1.496572e+04
1.884114e+03,1.493405e+04
1.887006e+03,1.490380e+04
1.889899e+03,1.490591e+04
1.892792e+03,1.487692e+04
1.895685e+03,1.490118e+04
1.898577e+03,1.487774e+04
1.901470e+03,1.487767e+04
1.904363e+03,1.478019e+04
1.907255e+03,1.479977e+04
1.910148e+03,1.481672e+04
1.913041e+03,1.473007e+04
1.915933e+03,1.465836e+04
1.918826e+03,1.465543e+04
1.921719e+03,1.466252e+04
1.924612e+03,1.463379e+04
1.927504e+03,1.464947e+04
1.930397e+03,1.460049e+04
1.933290e+03,1.453992e+04
1.936182e+03,1.454354e+04
1.939075e+03,1.457335e+04
1.941968e+03,1.451800e+04
1.944860e+03,1.449830e+04
1.947753e+03,1.444919e+04
1.950646e+03,1.444117e+04
1.953539e+03,1.447399e+04
1.956431e+03,1.438998e+04
1.959324e+03,1.441183e+04
1.962217e+03,1.433704e+04
1.965109e+03,1.427976e+04
1.968002e+03,1.434141e+04
1.970895e+03,1.432146e+04
1.973787e+03,1.425714e+04
1.976680e+03,1.423170e+04
1.979573e+03,1.422206e+04
1.982466e+03,1.424127e+04
1.985358e+03,1.419787e+04
1.988251e+03,1.418544e+04
1.991144e+03,1.412645e+04
1.994036e+03,1.410582e+04
1.996929e+03,1.413906e+04
1.999822e+03,1.410871e+04
2.002714e+03,1.405092e+04
2.005607e+03,1.400763e+04
2.008500e+03,1.394579e+04
2.011393e+03,1.393330e+04
2.014285e+03,1.396755e+04
2.017178e+03,1.387085e+04
2.020071e+03,1.388109e+04
2.022963e+03,1.389522e+04
2.025856e+03,1.378985e+04
2.028749e+03,1.378095e+04
2.031641e+03,1.379662e+04
2.034534e+03,1.379234e+04
2.037427e+03,1.373493e+04
2.040320e+03,1.370324e+04
2.043212e+03,1.364658e+04
2.046105e+03,1.363566e+04
2.048998e+03,1.365486e+04
2.051890e+03,1.360572e+04
2.054783e+03,1.357511e+04
2.057676e+03,1.352609e+04
2.060568e+03,1.349272e+04
2.063461e+03,1.355404e+04
2.066354e+03,1.354795e+04
2.069247e+03,1.345217e+04
2.072139e+03,1.341995e+04
2.075032e+03,1.336939e+04
2.077925e+03,1.342783e+04
2.080817e+03,1.344373e+04
2.083710e+03,1.336116e+04
2.086603e+03,1.329675e+04
2.089496e+03,1.335230e+04
2.092388e+03,1.326564e+04
2.095281e+03,1.326528e+04
2.098174e+03,1.330071e+04
2.101066e+03,1.323458e+04
2.103959e+03,1.309250e+04
2.106852e+03,1.319217e+04
2.109744e+03,1.323611e+04
2.112637e+03,1.311410e+04
2.115530e+03,1.300822e+04
2.118422e+03,1.302486e+04
2.121315e+03,1.313463e+04
2.124208e+03,1.306187e+04
2.127101e+03,1.290948e+04
2.129993e+03,1.297416e+04
2.132886e+03,1.294008e+04
2.135779e+03,1.294188e+04
2.138671e+03,1.289074e+04
2.141564e+03,1.284479e+04
2.144457e+03,1.285550e+04
2.147350e+03,1.275929e+04
2.150242e+03,1.280346e+04
2.153135e+03,1.279100e+04
2.156028e+03,1.269604e+04
2.158920e+03,1.273006e+04
2.161813e+03,1.274346e+04
2.164706e+03,1.273931e+04
2.167598e+03,1.265518e+04
2.170491e+03,1.264640e+04
2.173384e+03,1.266843e+04
2.176277e+03,1.255061e+04
2.179169e+03,1.253728e+04
2.182062e+03,1.254641e+04
2.184955e+03,1.251083e+04
2.187847e+03,1.253595e+04
2.190740e+03,1.250836e+04
2.193633e+03,1.242237e+04
2.196525e+03,1.244473e+04
2.199418e+03,1.244053e+04
2.202311e+03,1.239317e+04
2.205204e+03,1.239969e+04
2.208096e+03,1.236061e+04
2.210989e+03,1.225317e+04
2.213882e+03,1.219747e+04
2.216774e+03,1.230916e+04
2.219667e+03,1.228371e+04
2.222560e+03,1.219306e+04
2.225452e+03,1.207842e+04
2.228345e+03,1.214481e+04
2.231238e+03,1.218278e+04
2.234131e+03,1.211520e+04
2.237023e+03,1.211859e+04
2.239916e+03,1.202241e+04
2.242809e+03,1.198692e+04
2.245701e+03,1.200435e+04
2.248594e+03,1.195665e+04
2.251487e+03,1.201403e+04
2.254379e+03,1.192519e+04
2.257272e+03,1.181137e+04
2.260165e+03,1.184767e+04
2.263058e+03,1.182384e+04
2.265950e+03,1.179243e+04
2.268843e+03,1.178067e+04
2.271736e+03,1.171919e+04
2.274628e+03,1.181657e+04
2.277521e+03,1.176181e+04
2.280414e+03,1.174316e+04
2.283306e+03,1.171872e+04
2.286199e+03,1.163178e+04
2.289092e+03,1.161255e+04
2.291985e+03,1.160107e+04
2.294877e+03,1.160714e+04
2.297770e+03,1.163203e+04
2.300663e+03,1.154434e+04
2.303555e+03,1.149255e+04
2.306448e+03,1.145579e+04
2.309341e+03,1.150460e+04
2.312233e+03,1.147787e+04
2.315126e+03,1.148807e+04
2.318019e+03,1.137608e+04
2.320912e+03,1.140514e+04
2.323804e+03,1.138291e+04
2.326697e+03,1.138324e+04
2.329590e+03,1.139467e+04
2.332482e+03,1.132071e+04
2.335375e+03,1.126301e+04
2.338268e+03,1.124721e+04
2.341160e+03,1.116317e+04
2.344053e+03,1.131009e+04
2.346946e+03,1.125203e+04
2.349839e+03,1.118618e+04
2.352731e+03,1.112911e+04
2.355624e+03,1.119128e+04
2.358517e+03,1.114943e+04
2.361409e+03,1.111656e+04
2.364302e+03,1.102690e+04
2.367195e+03,1.097350e+04
2.370087e+03,1.102647e+04
2.372980e+03,1.099120e+04
2.375873e+03,1.097118e+04
2.378766e+03,1.091093e+04
2.381658e+03,1.086802e+04
2.384551e+03,1.089015e+04
2.387444e+03,1.090772e+04
2.390336e+03,1.091091e+04
2.393229e+03,1.086720e+04
2.396122e+03,1.080526e+04
2.399014e+03,1.077904e+04
2.401907e+03,1.072497e+04
2.404800e+03,1.073967e+04
2.407693e+03,1.074432e+04
2.410585e+03,1.071657e+04
2.413478e+03,1.067574e+04
2.416371e+03,1.061709e+04
2.419263e+03,1.061012e+04
2.422156e+03,1.061047e+04
2.425049e+03,1.057133e+04
2.427941e+03,1.056413e+04
2.430834e+03,1.052354e+04
2.433727e+03,1.051890e+04
2.436620e+03,1.052693e+04
2.439512e+03,1.048244e+04
2.442405e+03,1.044540e+04
2.445298e+03,1.044812e+04
2.448190e+03,1.037759e+04
2.451083e+03,1.041379e+04
2.453976e+03,1.038287e+04
2.456868e+03,1.036032e+04
2.459761e+03,1.026735e+04
2.462654e+03,1.026517e+04
2.465547e+03,1.025882e+04
2.468439e+03,1.025297e+04
2.471332e+03,1.021530e+04
2.474225e+03,1.021434e+04
2.477117e+03,1.020321e+04
2.480010e+03,1.020410e+04
2.482903e+03,1.017765e+04
2.485795e+03,1.015900e+04
2.488688e+03,1.007317e+04
2.491581e+03,1.008929e+04
2.494474e+03,1.005176e+04
2.497366e+03,1.009170e+04
2.500259e+03,1.004744e+04
2.503152e+03,1.000760e+04
2.506044e+03,1.001327e+04
2.508937e+03,9.974808e+03
2.511830e+03,9.974256e+03
2.514722e+03,9.950821e+03
2.517615e+03,9.942750e+03
2.520508e+03,9.888985e+03
2.523401e+03,9.902817e+03
2.526293e+03,9.869373e+03
2.529186e+03,9.896659e+03
2.532079e+03,9.836960e+03
2.534971e+03,9.798635e+03
2.537864e+03,9.770793e+03
2.540757e+03,9.757090e+03
2.543649e+03,9.750786e+03
2.546542e+03,9.736760e+03
2.549435e+03,9.708541e+03
2.552328e+03,9.670762e+03
2.555220e+03,9.654896e+03
2.558113e+03,9.660230e+03
2.561006e+03,9.637179e+03
2.563898e+03,9.635953e+03
2.566791e+03,9.635654e+03
2.569684e+03,9.528715e+03
2.572576e+03,9.509929e+03
2.575469e+03,9.557469e+03
2.578362e+03,9.521209e+03
2.581255e+03,9.542100e+03
2.584147e+03,9.478351e+03
2.587040e+03,9.403669e+03
2.589933e+03,9.440901e+03
2.592825e+03,9.424682e+03
2.595718e+03,9.416818e+03
2.598611e+03,9.429500e+03
2.601503e+03,9.342608e+03
2.604396e+03,9.357587e+03
2.607289e+03,9.311366e+03
2.610182e+03,9.347515e+03
2.613074e+03,9.256840e+03
2.615967e+03,9.278605e+03
2.618860e+03,9.246524e+03
2.621752e+03,9.204768e+03
2.624645e+03,9.230103e+03
2.627538e+03,9.196860e+03
2.630430e+03,9.262972e+03
2.633323e+03,9.136699e+03
2.636216e+03,9.144731e+03
2.639109e+03,9.138495e+03
2.642001e+03,9.134933e+03
2.644894e+03,9.088944e+03
2.647787e+03,9.049564e+03
2.650679e+03,9.049485e+03
2.653572e+03,9.009678e+03
2.656465e+03,9.072886e+03
2.659357e+03,9.000632e+03
2.662250e+03,8.921756e+03
2.665143e+03,9.006360e+03
2.668036e+03,9.043603e+03
2.670928e+03,8.949176e+03
2.673821e+03,8.895368e+03
2.676714e+03,8.918274e+03
2.679606e+03,8.830739e+03
2.682499e+03,8.835556e+03
2.685392e+03,8.837333e+03
2.688284e+03,8.848220e+03
2.691177e+03,8.785906e+03
2.694070e+03,8.788267e+03
2.696963e+03,8.764506e+03
2.699855e+03,8.761669e+03
2.702748e+03,8.767442e+03
2.705641e+03,8.753220e+03
2.708533e+03,8.724179e+03
2.711426e+03,8.666699e+03
2.714319e+03,8.662773e+03
2.717211e+03,8.688967e+03
2.720104e+03,8.692037e+03
2.722997e+03,8.603711e+03
2.725890e+03,8.647053e+03
2.728782e+03,8.594029e+03
2.731675e+03,8.555539e+03
2.734568e+03,8.560248e+03
2.737460e+03,8.558223e+03
2.740353e+03,8.540660e+03
2.743246e+03,8.518060e+03
2.746138e+03,8.485956e+03
2.749031e+03,8.510233e+03
2.751924e+03,8.499246e+03
2.754817e+03,8.408088e+03
2.757709e+03,8.416790e+03
2.760602e+03,8.428344e+03
2.763495e+03,8.395968e+03
2.766387e+03,8.376444e+03
2.769280e+03,8.414945e+03
2.772173e+03,8.325975e+03
2.775065e+03,8.330237e+03
2.777958e+03,8.317373e+03
2.780851e+03,8.310519e+03
2.783744e+03,8.292701e+03
2.786636e+03,8.234189e+03
2.789529e+03,8.275124e+03
2.792422e+03,8.293067e+03
2.795314e+03,8.224713e+03
2.798207e+03,8.234485e+03
2.801100e+03,8.194846e+03
2.803992e+03,8.214996e+03
2.806885e+03,8.186829e+03
2.809778e+03,8.168942e+03
2.812671e+03,8.168915e+03
2.815563e+03,8.051006e+03
2.818456e+03,8.137312e+03
2.821349e+03,8.113728e+03
2.824241e+03,8.103887e+03
2.827134e+03,8.079975e+03
2.830027e+03,8.021928e+03
2.832919e+03,8.022899e+03
2.835812e+03,8.059608e+03
2.838705e+03,8.004110e+03
2.841598e+03,7.990741e+03
2.844490e+03,7.995573e+03
2.847383e+03,7.908378e+03
2.850276e+03,7.921182e+03
2.853168e+03,7.944333e+03
2.856061e+03,7.966447e+03
2.858954e+03,7.847064e+03
2.861846e+03,7.852972e+03
2.864739e+03,7.876663e+03
2.867632e+03,7.857660e+03
2.870525e+03,7.874506e+03
2.873417e+03,7.806599e+03
2.876310e+03,7.868810e+03
2.879203e+03,7.759181e+03
2.882095e+03,7.760548e+03
2.884988e+03,7.732882e+03
2.887881e+03,7.795620e+03
2.890773e+03,7.781580e+03
2.893666e+03,7.700279e+03
2.896559e+03,7.763657e+03
2.899452e+03,7.710990e+03
2.902344e+03,7.756641e+03
2.905237e+03,7.729672e+03
2.908130e+03,7.648183e+03
2.911022e+03,7.567712e+03
2.913915e+03,7.657714e+03
2.916808e+03,7.644380e+03
2.919700e+03,7.608104e+03
2.922593e+03,7.623920e+03
2.925486e+03,7.522845e+03
2.928379e+03,7.583497e+03
2.931271e+03,7.580855e+03
2.934164e+03,7.505330e+03
2.937057e+03,7.508920e+03
2.939949e+03,7.502171e+03
2.942842e+03,7.538864e+03
2.945735e+03,7.522681e+03
2.948627e+03,7.535159e+03
2.951520e+03,7.434689e+03
2.954413e+03,7.447303e+03
2.957306e+03,7.506834e+03
2.960198e+03,7.439153e+03
2.963091e+03,7.447706e+03
2.965984e+03,7.415217e+03
2.968876e+03,7.384820e+03
2.971769e+03,7.405822e+03
2.974662e+03,7.352889e+03
2.977554e+03,7.401638e+03
2.980447e+03,7.417474e+03
2.983340e+03,7.360278e+03
2.986233e+03,7.349295e+03
2.989125e+03,7.298440e+03
2.992018e+03,7.316607e+03
2.994911e+03,7.302525e+03
2.997803e+03,7.232577e+03
3.000696e+03,7.180051e+03
3.003589e+03,7.200820e+03
3.006481e+03,7.252875e+03
3.009374e+03,7.163225e+03
3.012267e+03,7.307892e+03
3.015160e+03,7.183394e+03
3.018052e+03,7.186353e+03
3.020945e+03,7.254406e+03
3.023838e+03,7.152495e+03
3.026730e+03,7.239472e+03
3.029623e+03,7.188442e+03
3.032516e+03,7.135796e+03
3.035408e+03,7.133311e+03
3.038301e+03,7.127910e+03
3.041194e+03,7.115452e+03
3.044087e+03,7.216201e+03
3.046979e+03,7.052021e+03
3.049872e+03,7.157139e+03
3.052765e+03,7.049320e+03
3.055657e+03,7.062380e+03
3.058550e+03,7.053667e+03
3.061443e+03,7.040141e+03
3.064335e+03,6.990202e+03
3.067228e+03,6.975505e+03
3.070121e+03,7.035811e+03
3.073014e+03,6.992817e+03
3.075906e+03,6.987914e+03
3.078799e+03,6.985593e+03
3.081692e+03,6.950337e+03
3.084584e+03,6.907024e+03
3.087477e+03,6.993065e+03
3.090370e+03,7.007945e+03
3.093262e+03,6.922044e+03
3.096155e+03,6.971282e+03
3.099048e+03,6.943286e+03
3.101941e+03,6.891133e+03
3.104833e+03,6.920361e+03
3.107726e+03,6.839466e+03
3.110619e+03,6.848489e+03
3.113511e+03,6.927475e+03
3.116404e+03,6.897487e+03
3.119297e+03,6.817420e+03
3.122189e+03,6.893694e+03
3.125082e+03,6.875496e+03
3.127975e+03,6.785231e+03
3.130868e+03,6.885024e+03
3.133760e+03,6.847937e+03
3.136653e+03,6.846452e+03
3.139546e+03,6.834856e+03
3.142438e+03,6.837919e+03
3.145331e+03,6.776775e+03
3.148224e+03,6.797617e+03
3.151116e+03,6.729472e+03
3.154009e+03,6.811054e+03
3.156902e+03,6.809250e+03
3.159795e+03,6.816492e+03
3.162687e+03,6.799311e+03
3.165580e+03,6.856562e+03
3.168473e+03,6.781847e+03
3.171365e+03,6.741900e+03
3.174258e+03,6.761907e+03
3.177151e+03,6.769700e+03
3.180043e+03,6.818029e+03
3.182936e+03,6.737968e+03
3.185829e+03,6.698155e+03
3.188722e+03,6.729463e+03
3.191614e+03,6.757794e+03
3.194507e+03,6.691419e+03
3.197400e+03,6.736366e+03
3.200292e+03,6.850379e+03
3.203185e+03,0.000000e+00
3.206078e+03,0.000000e+00
3.208970e+03,0.000000e+00
3.211863e+03,0.000000e+00
3.214756e+03,0.000000e+00
3.217649e+03,0.000000e+00
3.220541e+03,0.000000e+00
3.223434e+03,0.000000e+00
3.226327e+03,0.000000e+00
3.229219e+03,0.000000e+00
3.232112e+03,0.000000e+00
3.235005e+03,0.000000e+00
3.237897e+03,0.000000e+00
3.240790e+03,0.000000e+00
3.243683e+03,0.000000e+00
3.246576e+03,0.000000e+00
3.249468e+03,0.000000e+00
3.252361e+03,0.000000e+00
3.255254e+03,0.000000e+00
3.258146e+03,0.000000e+00
3.261039e+03,0.000000e+00
3.263932e+03,0.000000e+00
3.266824e+03,0.000000e+00
3.269717e+03,0.000000e+00
3.272610e+03,0.000000e+00
3.275503e+03,0.000000e+00
3.278395e+03,0.000000e+00
3.281288e+03,0.000000e+00
3.284181e+03,0.000000e+00
3.287073e+03,0.000000e+00
3.289966e+03,0.000000e+00
3.292859e+03,0.000000e+00
3.295751e+03,0.000000e+00
3.298644e+03,0.000000e+00
3.301537e+03,0.000000e+00
3.304430e+03,0.000000e+00
3.307322e+03,0.000000e+00
3.310215e+03,0.000000e+00
3.313108e+03,0.000000e+00
3.316000e+03,0.000000e+00
3.318893e+03,0.000000e+00
3.321786e+03,0.000000e+00
3.324678e+03,0.000000e+00
3.327571e+03,0.000000e+00
3.330464e+03,0.000000e+00
3.333357e+03,0.000000e+00
3.336249e+03,0.000000e+00
3.339142e+03,0.000000e+00
3.342035e+03,0.000000e+00
3.344927e+03,0.000000e+00
3.347820e+03,0.000000e+00
3.350713e+03,0.000000e+00
3.353605e+03,0.000000e+00
3.356498e+03,0.000000e+00
3.359391e+03,0.000000e+00
3.362284e+03,0.000000e+00
3.365176e+03,0.000000e+00
3.368069e+03,0.000000e+00
3.370962e+03,0.000000e+00
3.373854e+03,0.000000e+00
3.376747e+03,0.000000e+00
3.379640e+03,0.000000e+00
3.382532e+03,0.000000e+00
3.385425e+03,0.000000e+00
3.388318e+03,0.000000e+00
3.391211e+03,0.000000e+00
3.394103e+03,0.000000e+00
3.396996e+03,0.000000e+00
3.399889e+03,0.000000e+00
3.402781e+03,0.000000e+00
3.405674e+03,0.000000e+00
3.408567e+03,0.000000e+00
3.411459e+03,0.000000e+00
3.414352e+03,0.000000e+00
3.417245e+03,0.000000e+00
3.420138e+03,0.000000e+00
3.423030e+03,0.000000e+00
3.425923e+03,0.000000e+00
3.428816e+03,0.000000e+00
3.431708e+03,0.000000e+00
3.434601e+03,0.000000e+00
3.437494e+03,0.000000e+00
3.440386e+03,0.000000e+00
3.443279e+03,0.000000e+00
3.446172e+03,0.000000e+00
3.449065e+03,0.000000e+00
3.451957e+03,0.000000e+00
3.454850e+03,0.000000e+00
3.457743e+03,0.000000e+00
3.460635e+03,0.000000e+00
3.463528e+03,0.000000e+00
3.466421e+03,0.000000e+00
3.469313e+03,0.000000e+00
3.472206e+03,0.000000e+00
3.475099e+03,0.000000e+00
3.477992e+03,0.000000e+00
3.480884e+03,0.000000e+00
3.483777e+03,0.000000e+00
3.486670e+03,0.000000e+00
3.489563e+03,0.000000e+00
3.492455e+03,0.000000e+00
3.495348e+03,0.000000e+00
3.498240e+03,0.000000e+00
3.500169e+03,0.000000e+00