File: RAMAN_data/23052023_r1/black fibre1.CSV
9.931763e+01,0.000000e+00
1.022103e+02,0.000000e+00
1.051030e+02,0.000000e+00
1.079957e+02,0.000000e+00
1.108884e+02,0.000000e+00
1.137811e+02,0.000000e+00
1.166738e+02,0.000000e+00
1.195665e+02,0.000000e+00
1.224592e+02,0.000000e+00
1.253519e+02,0.000000e+00
1.282446e+02,0.000000e+00
1.311373e+02,0.000000e+00
1.340300e+02,0.000000e+00
1.369227e+02,0.000000e+00
1.398154e+02,0.000000e+00
1.427081e+02,0.000000e+00
1.456008e+02,0.000000e+00
1.484935e+02,0.000000e+00
1.513862e+02,0.000000e+00
1.542789e+02,0.000000e+00
1.571716e+02,0.000000e+00
1.600643e+02,0.000000e+00
1.629570e+02,0.000000e+00
1.658497e+02,0.000000e+00
1.687424e+02,0.000000e+00
1.716351e+02,0.000000e+00
1.745278e+02,0.000000e+00
1.774205e+02,0.000000e+00
1.803132e+02,0.000000e+00
1.832059e+02,0.000000e+00
1.860986e+02,0.000000e+00
1.889913e+02,0.000000e+00
1.918840e+02,0.000000e+00
1.947767e+02,0.000000e+00
1.976694e+02,0.000000e+00
2.005621e+02,9.794387e+02
2.034548e+02,9.826104e+02
2.063475e+02,9.713040e+02
2.092402e+02,9.752951e+02
2.121329e+02,9.775724e+02
2.150256e+02,9.733256e+02
2.179183e+02,9.821293e+02
2.208110e+02,9.879570e+02
2.237037e+02,9.780799e+02
2.265964e+02,9.789692e+02
2.294892e+02,9.839727e+02
2.323819e+02,9.812252e+02
2.352746e+02,9.842296e+02
2.381673e+02,9.894101e+02
2.410600e+02,9.863431e+02
2.439527e+02,9.808909e+02
2.468454e+02,9.832897e+02
2.497381e+02,9.880078e+02
2.526308e+02,9.930473e+02
2.555235e+02,9.888158e+02
2.584161e+02,9.870346e+02
2.613088e+02,9.908504e+02
2.642015e+02,9.882386e+02
2.670942e+02,9.945697e+02
2.699869e+02,9.943184e+02
2.728796e+02,9.932501e+02
2.757723e+02,9.925592e+02
2.786650e+02,9.983757e+02
2.815577e+02,9.933052e+02
2.844504e+02,9.956300e+02
2.873431e+02,9.955500e+02
2.902358e+02,1.007322e+03
2.931285e+02,1.003179e+03
2.960212e+02,1.002506e+03
2.989139e+02,1.015855e+03
3.018066e+02,1.017681e+03
3.046993e+02,1.005547e+03
3.075920e+02,1.011164e+03
3.104847e+02,1.012961e+03
3.133774e+02,1.010571e+03
3.162701e+02,1.012575e+03
3.191628e+02,1.016872e+03
3.220555e+02,1.019565e+03
3.249482e+02,1.015669e+03
3.278409e+02,1.017552e+03
3.307336e+02,1.007542e+03
3.336263e+02,1.014625e+03
3.365190e+02,1.015489e+03
3.394117e+02,1.011563e+03
3.423044e+02,1.018067e+03
3.451971e+02,1.018839e+03
3.480898e+02,1.019054e+03
3.509825e+02,1.012391e+03
3.538752e+02,1.005824e+03
3.567680e+02,1.002620e+03
3.596607e+02,1.003834e+03
3.625534e+02,1.009249e+03
3.654461e+02,1.007133e+03
3.683388e+02,1.008023e+03
3.712315e+02,1.027488e+03
3.741242e+02,1.025436e+03
3.770169e+02,1.014334e+03
3.799096e+02,1.016547e+03
3.828023e+02,1.014063e+03
3.856950e+02,1.003286e+03
3.885877e+02,1.001466e+03
3.914804e+02,9.964049e+02
3.943731e+02,1.000299e+03
3.972658e+02,9.940495e+02
4.001585e+02,1.000372e+03
4.030512e+02,1.003006e+03
4.059439e+02,9.995827e+02
4.088366e+02,9.993818e+02
4.117293e+02,9.923547e+02
4.146220e+02,9.925010e+02
4.175147e+02,1.001514e+03
4.204074e+02,1.005784e+03
4.233001e+02,1.001846e+03
4.261928e+02,9.981533e+02
4.290855e+02,1.005829e+03
4.319782e+02,1.008072e+03
4.348709e+02,1.005058e+03
4.377636e+02,1.007164e+03
4.406563e+02,9.957484e+02
4.435490e+02,9.985186e+02
4.464417e+02,1.000547e+03
4.493344e+02,1.001342e+03
4.522271e+02,9.986943e+02
4.551198e+02,1.002065e+03
4.580125e+02,1.003214e+03
4.609052e+02,9.971633e+02
4.637979e+02,9.919739e+02
4.666906e+02,9.959998e+02
4.695833e+02,9.838949e+02
4.724760e+02,9.847285e+02
4.753687e+02,9.897195e+02
4.782614e+02,9.890465e+02
4.811541e+02,9.896417e+02
4.840468e+02,9.840270e+02
4.869395e+02,9.840257e+02
4.898322e+02,9.850314e+02
4.927249e+02,9.880605e+02
4.956176e+02,9.931785e+02
4.985103e+02,9.846450e+02
5.014030e+02,9.826863e+02
5.042957e+02,9.769480e+02
5.071884e+02,9.713510e+02
5.100811e+02,9.740983e+02
5.129738e+02,9.723039e+02
5.158665e+02,9.786052e+02
5.187592e+02,9.858699e+02
5.216519e+02,9.710334e+02
5.245446e+02,9.723316e+02
5.274373e+02,9.647449e+02
5.303300e+02,9.640650e+02
5.332227e+02,9.564385e+02
5.361154e+02,9.625262e+02
5.390081e+02,9.638435e+02
5.419008e+02,9.653705e+02
5.447935e+02,9.637284e+02
5.476862e+02,9.629941e+02
5.505789e+02,9.641435e+02
5.534716e+02,9.623495e+02
5.563643e+02,9.604152e+02
5.592570e+02,9.609609e+02
5.621497e+02,9.652199e+02
5.650424e+02,9.556661e+02
5.679351e+02,9.512168e+02
5.708278e+02,9.510826e+02
5.737205e+02,9.603039e+02
5.766132e+02,9.546619e+02
5.795059e+02,9.506801e+02
5.823986e+02,9.582012e+02
5.852913e+02,9.499869e+02
5.881840e+02,9.565331e+02
5.910767e+02,9.539685e+02
5.939694e+02,9.548071e+02
5.968621e+02,9.402766e+02
5.997548e+02,9.527523e+02
6.026475e+02,9.530925e+02
6.055402e+02,9.435108e+02
6.084329e+02,9.457966e+02
6.113256e+02,9.451844e+02
6.142183e+02,9.407230e+02
6.171110e+02,9.424037e+02
6.200037e+02,9.440279e+02
6.228964e+02,9.399872e+02
6.257891e+02,9.336442e+02
6.286818e+02,9.383101e+02
6.315745e+02,9.403506e+02
6.344672e+02,9.352028e+02
6.373599e+02,9.380395e+02
6.402526e+02,9.267009e+02
6.431453e+02,9.261766e+02
6.460380e+02,9.317450e+02
6.489307e+02,9.290641e+02
6.518234e+02,9.196015e+02
6.547161e+02,9.247922e+02
6.576088e+02,9.275204e+02
6.605015e+02,9.190377e+02
6.633942e+02,9.170582e+02
6.662869e+02,9.196761e+02
6.691796e+02,9.161812e+02
6.720723e+02,9.192123e+02
6.749650e+02,9.166143e+02
6.778577e+02,9.116058e+02
6.807504e+02,9.055307e+02
6.836431e+02,9.145627e+02
6.865358e+02,9.105198e+02
6.894285e+02,9.116566e+02
6.923212e+02,9.060111e+02
6.952139e+02,9.105128e+02
6.981066e+02,9.076116e+02
7.009993e+02,9.122875e+02
7.038920e+02,9.019738e+02
7.067847e+02,9.012492e+02
7.096774e+02,8.995668e+02
7.125701e+02,8.984969e+02
7.154628e+02,8.980341e+02
7.183555e+02,9.013457e+02
7.212482e+02,8.965087e+02
7.241409e+02,8.917483e+02
7.270336e+02,8.997123e+02
7.299263e+02,8.970141e+02
7.328190e+02,8.965338e+02
7.357117e+02,8.919313e+02
7.386044e+02,8.886057e+02
7.414971e+02,8.867796e+02
7.443898e+02,8.936160e+02
7.472825e+02,8.811746e+02
7.501752e+02,8.785284e+02
7.530679e+02,8.860446e+02
7.559606e+02,8.828369e+02
7.588533e+02,8.802227e+02
7.617460e+02,8.698947e+02
7.646387e+02,8.861632e+02
7.675314e+02,8.746784e+02
7.704241e+02,8.771270e+02
7.733168e+02,8.586516e+02
7.762095e+02,8.678414e+02
7.791022e+02,8.669129e+02
7.819949e+02,8.536877e+02
7.848876e+02,8.598855e+02
7.877803e+02,8.696586e+02
7.906730e+02,8.709134e+02
7.935657e+02,8.594427e+02
7.964584e+02,8.620245e+02
7.993511e+02,8.714572e+02
8.022438e+02,8.501846e+02
8.051365e+02,8.564085e+02
8.080292e+02,8.584224e+02
8.109219e+02,8.602021e+02
8.138146e+02,8.584713e+02
8.167073e+02,8.544774e+02
8.196000e+02,8.563502e+02
8.224927e+02,8.518747e+02
8.253854e+02,8.551946e+02
8.282781e+02,8.413830e+02
8.311708e+02,8.493378e+02
8.340635e+02,8.416533e+02
8.369562e+02,8.531542e+02
8.398489e+02,8.488574e+02
8.427416e+02,8.463695e+02
8.456343e+02,8.421551e+02
8.485270e+02,8.413824e+02
8.514197e+02,8.350940e+02
8.543124e+02,8.405336e+02
8.572051e+02,8.467611e+02
8.600978e+02,8.459674e+02
8.629905e+02,8.386412e+02
8.658832e+02,8.375343e+02
8.687759e+02,8.388207e+02
8.716686e+02,8.425355e+02
8.745613e+02,8.375810e+02
8.774540e+02,8.362846e+02
8.803467e+02,8.395433e+02
8.832394e+02,8.300133e+02
8.861321e+02,8.390410e+02
8.890248e+02,8.395687e+02
8.919175e+02,8.292452e+02
8.948102e+02,8.240766e+02
8.977029e+02,8.269445e+02
9.005956e+02,8.253383e+02
9.034883e+02,8.167830e+02
9.063810e+02,8.111192e+02
9.092737e+02,8.115355e+02
9.121664e+02,8.075579e+02
9.150591e+02,8.096207e+02
9.179518e+02,8.163072e+02
9.208445e+02,8.035579e+02
9.237372e+02,7.932022e+02
9.266299e+02,8.014671e+02
9.295226e+02,7.914524e+02
9.324153e+02,7.949964e+02
9.353080e+02,7.980470e+02
9.382007e+02,7.978431e+02
9.410934e+02,7.902696e+02
9.439861e+02,7.893870e+02
9.468788e+02,7.884170e+02
9.497715e+02,7.972443e+02
9.526642e+02,7.870660e+02
9.555569e+02,7.891148e+02
9.584496e+02,7.865826e+02
9.613423e+02,7.849141e+02
9.642350e+02,7.897590e+02
9.671277e+02,7.977155e+02
9.700204e+02,7.908156e+02
9.729131e+02,7.833804e+02
9.758058e+02,7.781579e+02
9.786985e+02,7.805746e+02
9.815912e+02,7.827299e+02
9.844839e+02,7.752011e+02
9.873766e+02,7.744210e+02
9.902693e+02,7.750634e+02
9.931620e+02,7.729439e+02
9.960547e+02,7.809639e+02
9.989474e+02,7.753170e+02
1.001840e+03,7.699459e+02
1.004733e+03,7.724487e+02
1.007626e+03,7.635219e+02
1.010518e+03,7.727667e+02
1.013411e+03,7.668067e+02
1.016304e+03,7.566042e+02
1.019196e+03,7.664495e+02
1.022089e+03,7.758458e+02
1.024982e+03,7.740976e+02
1.027875e+03,7.711583e+02
1.030767e+03,7.691495e+02
1.033660e+03,7.741365e+02
1.036552e+03,7.685007e+02
1.039445e+03,7.767775e+02
1.042338e+03,7.665128e+02
1.045231e+03,7.706974e+02
1.048123e+03,7.688910e+02
1.051016e+03,7.597579e+02
1.053909e+03,7.651961e+02
1.056802e+03,7.620013e+02
1.059694e+03,7.597253e+02
1.062587e+03,7.513476e+02
1.065479e+03,7.571406e+02
1.068372e+03,7.546927e+02
1.071265e+03,7.507692e+02
1.074158e+03,7.482708e+02
1.077050e+03,7.545569e+02
1.079943e+03,7.451212e+02
1.082836e+03,7.558145e+02
1.085729e+03,7.604078e+02
1.088621e+03,7.654764e+02
1.091514e+03,7.703943e+02
1.094406e+03,7.600303e+02
1.097299e+03,7.566304e+02
1.100192e+03,7.576025e+02
1.103085e+03,7.552721e+02
1.105977e+03,7.422904e+02
1.108870e+03,7.436390e+02
1.111763e+03,7.502790e+02
1.114656e+03,7.443730e+02
1.117548e+03,7.513223e+02
1.120441e+03,7.435482e+02
1.123334e+03,7.472980e+02
1.126226e+03,7.387298e+02
1.129119e+03,7.353494e+02
1.132012e+03,7.392092e+02
1.134904e+03,7.266395e+02
1.137797e+03,7.302373e+02
1.140690e+03,7.253448e+02
1.143583e+03,7.280060e+02
1.146475e+03,7.424230e+02
1.149368e+03,7.311332e+02
1.152261e+03,7.322189e+02
1.155153e+03,7.192108e+02
1.158046e+03,7.123814e+02
1.160939e+03,7.195289e+02
1.163831e+03,7.310008e+02
1.166724e+03,7.164446e+02
1.169617e+03,7.069299e+02
1.172510e+03,7.195453e+02
1.175402e+03,6.997188e+02
1.178295e+03,7.109417e+02
1.181188e+03,7.169847e+02
1.184080e+03,7.078653e+02
1.186973e+03,7.083474e+02
1.189866e+03,7.038093e+02
1.192758e+03,7.018330e+02
1.195651e+03,7.094459e+02
1.198544e+03,7.045469e+02
1.201437e+03,6.918294e+02
1.204329e+03,6.998506e+02
1.207222e+03,6.985699e+02
1.210115e+03,6.966715e+02
1.213007e+03,6.934815e+02
1.215900e+03,6.897453e+02
1.218793e+03,6.891351e+02
1.221685e+03,6.863878e+02
1.224578e+03,6.891635e+02
1.227471e+03,6.803609e+02
1.230364e+03,6.886926e+02
1.233256e+03,6.836748e+02
1.236149e+03,6.756559e+02
1.239042e+03,6.812745e+02
1.241934e+03,6.857947e+02
1.244827e+03,6.865085e+02
1.247720e+03,6.737774e+02
1.250612e+03,6.756740e+02
1.253505e+03,6.763026e+02
1.256398e+03,6.793992e+02
1.259291e+03,6.764713e+02
1.262183e+03,6.842363e+02
1.265076e+03,6.781884e+02
1.267969e+03,6.738276e+02
1.270861e+03,6.818514e+02
1.273754e+03,6.936723e+02
1.276647e+03,6.789297e+02
1.279539e+03,6.912719e+02
1.282432e+03,6.900714e+02
1.285325e+03,7.012215e+02
1.288218e+03,7.095400e+02
1.291110e+03,7.099377e+02
1.294003e+03,7.077110e+02
1.296896e+03,7.050099e+02
1.299788e+03,6.981175e+02
1.302681e+03,7.028020e+02
1.305574e+03,7.027313e+02
1.308466e+03,7.180983e+02
1.311359e+03,7.284023e+02
1.314252e+03,7.344928e+02
1.317145e+03,7.409417e+02
1.320037e+03,7.345280e+02
1.322930e+03,7.287099e+02
1.325823e+03,7.243904e+02
1.328715e+03,7.100317e+02
1.331608e+03,7.091407e+02
1.334501e+03,6.976346e+02
1.337393e+03,6.965475e+02
1.340286e+03,6.889576e+02
1.343179e+03,6.903083e+02
1.346072e+03,6.870638e+02
1.348964e+03,6.930129e+02
1.351857e+03,6.821933e+02
1.354750e+03,6.784401e+02
1.357642e+03,6.855945e+02
1.360535e+03,6.885469e+02
1.363428e+03,6.965706e+02
1.366320e+03,6.829863e+02
1.369213e+03,6.782349e+02
1.372106e+03,6.703977e+02
1.374999e+03,6.643947e+02
1.377891e+03,6.559996e+02
1.380784e+03,6.635710e+02
1.383677e+03,6.567553e+02
1.386569e+03,6.480750e+02
1.389462e+03,6.373828e+02
1.392355e+03,6.395911e+02
1.395247e+03,6.454642e+02
1.398140e+03,6.402885e+02
1.401033e+03,6.350224e+02
1.403926e+03,6.325842e+02
1.406818e+03,6.318237e+02
1.409711e+03,6.317181e+02
1.412604e+03,6.344474e+02
1.415496e+03,6.316907e+02
1.418389e+03,6.307019e+02
1.421282e+03,6.351037e+02
1.424174e+03,6.409135e+02
1.427067e+03,6.381920e+02
1.429960e+03,6.315247e+02
1.432853e+03,6.332479e+02
1.435745e+03,6.341328e+02
1.438638e+03,6.344759e+02
1.441531e+03,6.338994e+02
1.444423e+03,6.351056e+02
1.447316e+03,6.267675e+02
1.450209e+03,6.265297e+02
1.453101e+03,6.258105e+02
1.455994e+03,6.301045e+02
1.458887e+03,6.281504e+02
1.461780e+03,6.247379e+02
1.464672e+03,6.237670e+02
1.467565e+03,6.281913e+02
1.470458e+03,6.265897e+02
1.473350e+03,6.243035e+02
1.476243e+03,6.263519e+02
1.479136e+03,6.204011e+02
1.482028e+03,6.217986e+02
1.484921e+03,6.083877e+02
1.487814e+03,6.096988e+02
1.490707e+03,6.194959e+02
1.493599e+03,6.048239e+02
1.496492e+03,6.136396e+02
1.499385e+03,6.056435e+02
1.502277e+03,6.130565e+02
1.505170e+03,6.101103e+02
1.508063e+03,6.123433e+02
1.510955e+03,6.012666e+02
1.513848e+03,5.974333e+02
1.516741e+03,5.987777e+02
1.519634e+03,5.937984e+02
1.522526e+03,6.001664e+02
1.525419e+03,5.996917e+02
1.528312e+03,5.872538e+02
1.531204e+03,5.840550e+02
1.534097e+03,5.831536e+02
1.536990e+03,5.845557e+02
1.539882e+03,5.769614e+02
1.542775e+03,5.802885e+02
1.545668e+03,5.853842e+02
1.548561e+03,5.830764e+02
1.551453e+03,5.720021e+02
1.554346e+03,5.766768e+02
1.557239e+03,5.797199e+02
1.560131e+03,5.726340e+02
1.563024e+03,5.723673e+02
1.565917e+03,5.797771e+02
1.568809e+03,5.734512e+02
1.571702e+03,5.772386e+02
1.574595e+03,5.762696e+02
1.577488e+03,5.686709e+02
1.580380e+03,5.758527e+02
1.583273e+03,5.779453e+02
1.586166e+03,5.785805e+02
1.589058e+03,5.715325e+02
1.591951e+03,5.739134e+02
1.594844e+03,5.658477e+02
1.597736e+03,5.752428e+02
1.600629e+03,5.745095e+02
1.603522e+03,5.683591e+02
1.606415e+03,5.675567e+02
1.609307e+03,5.687802e+02
1.612200e+03,5.649443e+02
1.615093e+03,5.678966e+02
1.617985e+03,5.645548e+02
1.620878e+03,5.700562e+02
1.623771e+03,5.595355e+02
1.626663e+03,5.569960e+02
1.629556e+03,5.636215e+02
1.632449e+03,5.600580e+02
1.635342e+03,5.653044e+02
1.638234e+03,5.589778e+02
1.641127e+03,5.583855e+02
1.644020e+03,5.544305e+02
1.646912e+03,5.573909e+02
1.649805e+03,5.574408e+02
1.652698e+03,5.624940e+02
1.655590e+03,5.458570e+02
1.658483e+03,5.596198e+02
1.661376e+03,5.575516e+02
1.664269e+03,5.529283e+02
1.667161e+03,5.418815e+02
1.670054e+03,5.442722e+02
1.672947e+03,5.347540e+02
1.675839e+03,5.410887e+02
1.678732e+03,5.431388e+02
1.681625e+03,5.330295e+02
1.684517e+03,5.374944e+02
1.687410e+03,5.288838e+02
1.690303e+03,5.205257e+02
1.693196e+03,5.294365e+02
1.696088e+03,5.196224e+02
1.698981e+03,5.290629e+02
1.701874e+03,5.269770e+02
1.704766e+03,5.261106e+02
1.707659e+03,5.222413e+02
1.710552e+03,5.133479e+02
1.713444e+03,5.271423e+02
1.716337e+03,5.199960e+02
1.719230e+03,5.152245e+02
1.722123e+03,5.060220e+02
1.725015e+03,5.140209e+02
1.727908e+03,5.225462e+02
1.730801e+03,5.208300e+02
1.733693e+03,5.129993e+02
1.736586e+03,5.150764e+02
1.739479e+03,5.079220e+02
1.742371e+03,5.151075e+02
1.745264e+03,5.174852e+02
1.748157e+03,5.113083e+02
1.751050e+03,5.095989e+02
1.753942e+03,5.069082e+02
1.756835e+03,5.104473e+02
1.759728e+03,5.147929e+02
1.762620e+03,5.072691e+02
1.765513e+03,5.065193e+02
1.768406e+03,5.063040e+02
1.771298e+03,5.000011e+02
1.774191e+03,5.006716e+02
1.777084e+03,4.975480e+02
1.779977e+03,5.005563e+02
1.782869e+03,5.055442e+02
1.785762e+03,5.047602e+02
1.788655e+03,5.013014e+02
1.791547e+03,5.020551e+02
1.794440e+03,4.951855e+02
1.797333e+03,4.991706e+02
1.800225e+03,4.963377e+02
1.803118e+03,4.987794e+02
1.806011e+03,4.978026e+02
1.808904e+03,4.932944e+02
1.811796e+03,4.845706e+02
1.814689e+03,4.820931e+02
1.817582e+03,4.930244e+02
1.820474e+03,4.952679e+02
1.823367e+03,4.825455e+02
1.826260e+03,4.841226e+02
1.829152e+03,4.839028e+02
1.832045e+03,4.818947e+02
1.834938e+03,4.680539e+02
1.837831e+03,4.610457e+02
1.840723e+03,4.779065e+02
1.843616e+03,4.701589e+02
1.846509e+03,4.657371e+02
1.849401e+03,4.702641e+02
1.852294e+03,4.597156e+02
1.855187e+03,4.626345e+02
1.858079e+03,4.639262e+02
1.860972e+03,4.586568e+02
1.863865e+03,4.568655e+02
1.866758e+03,4.653865e+02
1.869650e+03,4.440634e+02
1.872543e+03,4.597700e+02
1.875436e+03,4.597048e+02
1.878328e+03,4.553537e+02
1.881221e+03,4.475880e+02
1.884114e+03,4.522980e+02
1.887006e+03,4.521943e+02
1.889899e+03,4.562863e+02
1.892792e+03,4.537870e+02
1.895685e+03,4.492639e+02
1.898577e+03,4.473446e+02
1.901470e+03,4.453851e+02
1.904363e+03,4.455080e+02
1.907255e+03,4.534382e+02
1.910148e+03,4.426313e+02
1.913041e+03,4.500650e+02
1.915933e+03,4.384928e+02
1.918826e+03,4.503067e+02
1.921719e+03,4.447089e+02
1.924612e+03,4.435433e+02
1.927504e+03,4.379122e+02
1.930397e+03,4.412462e+02
1.933290e+03,4.429699e+02
1.936182e+03,4.418351e+02
1.939075e+03,4.455045e+02
1.941968e+03,4.417261e+02
1.944860e+03,4.404890e+02
1.947753e+03,4.408697e+02
1.950646e+03,4.324698e+02
1.953539e+03,4.345856e+02
1.956431e+03,4.293124e+02
1.959324e+03,4.423523e+02
1.962217e+03,4.404632e+02
1.965109e+03,4.168477e+02
1.968002e+03,4.298962e+02
1.970895e+03,4.402128e+02
1.973787e+03,4.237569e+02
1.976680e+03,4.263583e+02
1.979573e+03,4.190031e+02
1.982466e+03,4.245302e+02
1.985358e+03,4.191573e+02
1.988251e+03,4.214667e+02
1.991144e+03,4.139538e+02
1.994036e+03,4.129500e+02
1.996929e+03,4.090006e+02
1.999822e+03,4.072862e+02
2.002714e+03,4.014672e+02
2.005607e+03,4.040756e+02
2.008500e+03,4.063942e+02
2.011393e+03,4.037556e+02
2.014285e+03,3.983773e+02
2.017178e+03,3.997218e+02
2.020071e+03,4.011374e+02
2.022963e+03,3.980469e+02
2.025856e+03,3.975127e+02
2.028749e+03,3.902984e+02
2.031641e+03,4.000407e+02
2.034534e+03,3.920120e+02
2.037427e+03,3.953130e+02
2.040320e+03,3.843219e+02
2.043212e+03,3.881804e+02
2.046105e+03,3.847839e+02
2.048998e+03,3.853686e+02
2.051890e+03,3.929304e+02
2.054783e+03,3.857220e+02
2.057676e+03,3.896540e+02
2.060568e+03,3.876672e+02
2.063461e+03,3.827872e+02
2.066354e+03,3.913663e+02
2.069247e+03,3.817883e+02
2.072139e+03,3.765059e+02
2.075032e+03,3.806629e+02
2.077925e+03,3.755667e+02
2.080817e+03,3.834773e+02
2.083710e+03,3.760012e+02
2.086603e+03,3.839549e+02
2.089496e+03,3.766107e+02
2.092388e+03,3.681456e+02
2.095281e+03,3.678047e+02
2.098174e+03,3.747294e+02
2.101066e+03,3.766836e+02
2.103959e+03,3.752560e+02
2.106852e+03,3.771601e+02
2.109744e+03,3.706178e+02
2.112637e+03,3.702432e+02
2.115530e+03,3.706776e+02
2.118422e+03,3.724466e+02
2.121315e+03,3.778321e+02
2.124208e+03,3.661464e+02
2.127101e+03,3.668013e+02
2.129993e+03,3.655730e+02
2.132886e+03,3.534346e+02
2.135779e+03,3.534026e+02
2.138671e+03,3.581093e+02
2.141564e+03,3.528058e+02
2.144457e+03,3.543394e+02
2.147350e+03,3.472924e+02
2.150242e+03,3.528058e+02
2.153135e+03,3.619823e+02
2.156028e+03,3.540746e+02
2.158920e+03,3.437967e+02
2.161813e+03,3.430020e+02
2.164706e+03,3.456961e+02
2.167598e+03,3.420016e+02
2.170491e+03,3.439431e+02
2.173384e+03,3.408134e+02
2.176277e+03,3.447071e+02
2.179169e+03,3.404642e+02
2.182062e+03,3.477312e+02
2.184955e+03,3.422181e+02
2.187847e+03,3.386222e+02
2.190740e+03,3.409382e+02
2.193633e+03,3.358403e+02
2.196525e+03,3.369632e+02
2.199418e+03,3.420345e+02
2.202311e+03,3.293388e+02
2.205204e+03,3.369958e+02
2.208096e+03,3.272852e+02
2.210989e+03,3.276271e+02
2.213882e+03,3.306775e+02
2.216774e+03,3.328174e+02
2.219667e+03,3.284546e+02
2.222560e+03,3.247010e+02
2.225452e+03,3.284688e+02
2.228345e+03,3.218839e+02
2.231238e+03,3.253393e+02
2.234131e+03,3.273190e+02
2.237023e+03,3.287995e+02
2.239916e+03,3.212247e+02
2.242809e+03,3.310748e+02
2.245701e+03,3.146158e+02
2.248594e+03,3.230217e+02
2.251487e+03,3.184710e+02
2.254379e+03,3.241378e+02
2.257272e+03,3.230003e+02
2.260165e+03,3.181589e+02
2.263058e+03,3.190004e+02
2.265950e+03,3.179604e+02
2.268843e+03,3.186705e+02
2.271736e+03,3.207917e+02
2.274628e+03,3.151302e+02
2.277521e+03,3.158248e+02
2.280414e+03,3.225571e+02
2.283306e+03,3.110735e+02
2.286199e+03,3.148376e+02
2.289092e+03,3.027108e+02
2.291985e+03,3.110972e+02
2.294877e+03,3.062474e+02
2.297770e+03,3.103951e+02
2.300663e+03,3.094745e+02
2.303555e+03,3.049578e+02
2.306448e+03,3.036154e+02
2.309341e+03,3.013835e+02
2.312233e+03,2.940735e+02
2.315126e+03,3.006435e+02
2.318019e+03,2.949382e+02
2.320912e+03,2.998923e+02
2.323804e+03,2.937140e+02
2.326697e+03,2.972296e+02
2.329590e+03,2.899110e+02
2.332482e+03,2.914704e+02
2.335375e+03,2.848200e+02
2.338268e+03,2.914414e+02
2.341160e+03,2.859778e+02
2.344053e+03,2.894526e+02
2.346946e+03,2.860025e+02
2.349839e+03,2.965000e+02
2.352731e+03,2.851173e+02
2.355624e+03,2.914582e+02
2.358517e+03,2.866063e+02
2.361409e+03,2.852920e+02
2.364302e+03,2.874952e+02
2.367195e+03,2.874009e+02
2.370087e+03,2.821091e+02
2.372980e+03,2.879083e+02
2.375873e+03,2.817606e+02
2.378766e+03,2.887777e+02
2.381658e+03,2.893726e+02
2.384551e+03,2.796489e+02
2.387444e+03,2.844237e+02
2.390336e+03,2.801471e+02
2.393229e+03,2.790559e+02
2.396122e+03,2.790612e+02
2.399014e+03,2.856702e+02
2.401907e+03,2.763017e+02
2.404800e+03,2.793714e+02
2.407693e+03,2.766865e+02
2.410585e+03,2.729201e+02
2.413478e+03,2.699289e+02
2.416371e+03,2.778463e+02
2.419263e+03,2.714312e+02
2.422156e+03,2.783369e+02
2.425049e+03,2.681935e+02
2.427941e+03,2.725498e+02
2.430834e+03,2.747364e+02
2.433727e+03,2.703364e+02
2.436620e+03,2.628885e+02
2.439512e+03,2.711605e+02
2.442405e+03,2.712272e+02
2.445298e+03,2.693110e+02
2.448190e+03,2.674154e+02
2.451083e+03,2.734203e+02
2.453976e+03,2.650189e+02
2.456868e+03,2.669495e+02
2.459761e+03,2.595683e+02
2.462654e+03,2.579449e+02
2.465547e+03,2.668276e+02
2.468439e+03,2.520640e+02
2.471332e+03,2.601325e+02
2.474225e+03,2.525739e+02
2.477117e+03,2.560009e+02
2.480010e+03,2.607906e+02
2.482903e+03,2.524995e+02
2.485795e+03,2.578751e+02
2.488688e+03,2.544074e+02
2.491581e+03,2.583309e+02
2.494474e+03,2.587752e+02
2.497366e+03,2.508824e+02
2.500259e+03,2.497253e+02
2.503152e+03,2.494145e+02
2.506044e+03,2.578204e+02
2.508937e+03,2.537716e+02
2.511830e+03,2.554814e+02
2.514722e+03,2.590867e+02
2.517615e+03,2.496462e+02
2.520508e+03,2.533269e+02
2.523401e+03,2.494608e+02
2.526293e+03,2.476004e+02
2.529186e+03,2.518132e+02
2.532079e+03,2.480860e+02
2.534971e+03,2.432899e+02
2.537864e+03,2.479565e+02
2.540757e+03,2.428580e+02
2.543649e+03,2.533817e+02
2.546542e+03,2.511001e+02
2.549435e+03,2.487294e+02
2.552328e+03,2.601410e+02
2.555220e+03,2.578368e+02
2.558113e+03,2.602706e+02
2.561006e+03,2.569168e+02
2.563898e+03,2.499407e+02
2.566791e+03,2.536216e+02
2.569684e+03,2.583399e+02
2.572576e+03,2.525594e+02
2.575469e+03,2.547437e+02
2.578362e+03,2.507496e+02
2.581255e+03,2.471070e+02
2.584147e+03,2.493239e+02
2.587040e+03,2.377981e+02
2.589933e+03,2.491337e+02
2.592825e+03,2.407548e+02
2.595718e+03,2.406254e+02
2.598611e+03,2.342607e+02
2.601503e+03,2.336846e+02
2.604396e+03,2.347077e+02
2.607289e+03,2.358680e+02
2.610182e+03,2.394108e+02
2.613074e+03,2.259383e+02
2.615967e+03,2.219190e+02
2.618860e+03,2.274701e+02
2.621752e+03,2.391245e+02
2.624645e+03,2.348011e+02
2.627538e+03,2.344821e+02
2.630430e+03,2.320447e+02
2.633323e+03,2.397023e+02
2.636216e+03,2.276261e+02
2.639109e+03,2.297519e+02
2.642001e+03,2.275347e+02
2.644894e+03,2.318732e+02
2.647787e+03,2.371161e+02
2.650679e+03,2.290346e+02
2.653572e+03,2.277243e+02
2.656465e+03,2.408741e+02
2.659357e+03,2.238217e+02
2.662250e+03,2.181331e+02
2.665143e+03,2.347952e+02
2.668036e+03,2.293853e+02
2.670928e+03,2.340869e+02
2.673821e+03,2.292793e+02
2.676714e+03,2.178105e+02
2.679606e+03,2.384338e+02
2.682499e+03,2.196420e+02
2.685392e+03,2.281665e+02
2.688284e+03,2.282150e+02
2.691177e+03,2.273305e+02
2.694070e+03,2.301213e+02
2.696963e+03,2.250986e+02
2.699855e+03,2.289223e+02
2.702748e+03,2.330370e+02
2.705641e+03,2.291134e+02
2.708533e+03,2.247438e+02
2.711426e+03,2.216005e+02
2.714319e+03,2.204802e+02
2.717211e+03,2.211587e+02
2.720104e+03,2.229075e+02
2.722997e+03,2.249513e+02
2.725890e+03,2.298420e+02
2.728782e+03,2.176400e+02
2.731675e+03,2.296912e+02
2.734568e+03,2.378269e+02
2.737460e+03,2.149198e+02
2.740353e+03,2.265243e+02
2.743246e+03,2.212399e+02
2.746138e+03,2.241038e+02
2.749031e+03,2.228941e+02
2.751924e+03,2.232256e+02
2.754817e+03,2.217216e+02
2.757709e+03,2.121232e+02
2.760602e+03,2.282715e+02
2.763495e+03,2.250031e+02
2.766387e+03,2.124949e+02
2.769280e+03,2.216599e+02
2.772173e+03,2.201502e+02
2.775065e+03,2.310119e+02
2.777958e+03,2.114247e+02
2.780851e+03,2.190359e+02
2.783744e+03,2.098363e+02
2.786636e+03,2.116976e+02
2.789529e+03,2.198681e+02
2.792422e+03,2.189807e+02
2.795314e+03,2.127102e+02
2.798207e+03,2.164488e+02
2.801100e+03,2.131358e+02
2.803992e+03,2.221728e+02
2.806885e+03,2.238573e+02
2.809778e+03,2.064695e+02
2.812671e+03,2.005234e+02
2.815563e+03,2.175153e+02
2.818456e+03,2.193115e+02
2.821349e+03,2.084878e+02
2.824241e+03,2.089207e+02
2.827134e+03,2.154374e+02
2.830027e+03,2.182154e+02
2.832919e+03,2.296095e+02
2.835812e+03,2.242415e+02
2.838705e+03,2.298067e+02
2.841598e+03,2.179329e+02
2.844490e+03,2.202115e+02
2.847383e+03,2.089825e+02
2.850276e+03,2.235514e+02
2.853168e+03,2.271135e+02
2.856061e+03,2.325999e+02
2.858954e+03,2.218234e+02
2.861846e+03,2.354308e+02
2.864739e+03,2.288926e+02
2.867632e+03,2.372287e+02
2.870525e+03,2.433732e+02
2.873417e+03,2.539019e+02
2.876310e+03,2.554470e+02
2.879203e+03,2.339364e+02
2.882095e+03,2.552969e+02
2.884988e+03,2.571786e+02
2.887881e+03,2.618550e+02
2.890773e+03,2.455428e+02
2.893666e+03,2.538865e+02
2.896559e+03,2.597581e+02
2.899452e+03,2.537477e+02
2.902344e+03,2.546664e+02
2.905237e+03,2.448950e+02
2.908130e+03,2.437199e+02
2.911022e+03,2.463569e+02
2.913915e+03,2.420542e+02
2.916808e+03,2.494866e+02
2.919700e+03,2.358780e+02
2.922593e+03,2.370417e+02
2.925486e+03,2.237236e+02
2.928379e+03,2.323099e+02
2.931271e+03,2.228669e+02
2.934164e+03,2.260486e+02
2.937057e+03,2.344124e+02
2.939949e+03,2.367346e+02
2.942842e+03,2.303830e+02
2.945735e+03,2.394106e+02
2.948627e+03,2.232110e+02
2.951520e+03,2.290314e+02
2.954413e+03,2.429031e+02
2.957306e+03,2.837840e+02
2.960198e+03,2.189555e+02
2.963091e+03,2.205583e+02
2.965984e+03,2.226157e+02
2.968876e+03,2.161969e+02
2.971769e+03,2.276844e+02
2.974662e+03,2.074632e+02
2.977554e+03,2.314056e+02
2.980447e+03,2.105119e+02
2.983340e+03,2.094485e+02
2.986233e+03,2.096242e+02
2.989125e+03,2.330907e+02
2.992018e+03,2.090495e+02
2.994911e+03,2.029537e+02
2.997803e+03,2.228962e+02
3.000696e+03,1.919752e+02
3.003589e+03,2.096535e+02
3.006481e+03,2.023110e+02
3.009374e+03,2.155479e+02
3.012267e+03,2.157954e+02
3.015160e+03,2.147459e+02
3.018052e+03,2.177615e+02
3.020945e+03,2.179449e+02
3.023838e+03,1.935799e+02
3.026730e+03,1.923207e+02
3.029623e+03,2.338095e+02
3.032516e+03,2.047456e+02
3.035408e+03,2.164884e+02
3.038301e+03,2.089454e+02
3.041194e+03,2.158741e+02
3.044087e+03,2.130608e+02
3.046979e+03,2.132924e+02
3.049872e+03,2.210005e+02
3.052765e+03,2.066152e+02
3.055657e+03,2.132466e+02
3.058550e+03,2.258352e+02
3.061443e+03,1.957937e+02
3.064335e+03,2.001573e+02
3.067228e+03,2.240290e+02
3.070121e+03,2.074289e+02
3.073014e+03,2.128250e+02
3.075906e+03,2.171880e+02
3.078799e+03,2.181725e+02
3.081692e+03,2.169372e+02
3.084584e+03,2.005260e+02
3.087477e+03,2.086262e+02
3.090370e+03,2.202231e+02
3.093262e+03,2.105839e+02
3.096155e+03,2.057257e+02
3.099048e+03,2.147091e+02
3.101941e+03,2.326724e+02
3.104833e+03,2.049792e+02
3.107726e+03,1.927658e+02
3.110619e+03,1.884208e+02
3.113511e+03,2.192732e+02
3.116404e+03,2.170016e+02
3.119297e+03,2.322745e+02
3.122189e+03,2.147248e+02
3.125082e+03,2.196683e+02
3.127975e+03,1.964636e+02
3.130868e+03,2.281772e+02
3.133760e+03,2.216619e+02
3.136653e+03,2.446887e+02
3.139546e+03,2.293020e+02
3.142438e+03,2.143829e+02
3.145331e+03,2.101111e+02
3.148224e+03,1.856252e+02
3.151116e+03,2.216925e+02
3.154009e+03,2.072793e+02
3.156902e+03,2.070838e+02
3.159795e+03,2.415773e+02
3.162687e+03,3.333286e+02
3.165580e+03,2.552130e+02
3.168473e+03,2.296040e+02
3.171365e+03,2.006131e+02
3.174258e+03,2.333930e+02
3.177151e+03,2.373418e+02
3.180043e+03,2.109709e+02
3.182936e+03,2.237431e+02
3.185829e+03,2.517506e+02
3.188722e+03,2.224078e+02
3.191614e+03,2.398338e+02
3.194507e+03,2.089260e+02
3.197400e+03,2.523026e+02
3.200292e+03,2.620583e+02
3.203185e+03,0.000000e+00
3.206078e+03,0.000000e+00
3.208970e+03,0.000000e+00
3.211863e+03,0.000000e+00
3.214756e+03,0.000000e+00
3.217649e+03,0.000000e+00
3.220541e+03,0.000000e+00
3.223434e+03,0.000000e+00
3.226327e+03,0.000000e+00
3.229219e+03,0.000000e+00
3.232112e+03,0.000000e+00
3.235005e+03,0.000000e+00
3.237897e+03,0.000000e+00
3.240790e+03,0.000000e+00
3.243683e+03,0.000000e+00
3.246576e+03,0.000000e+00
3.249468e+03,0.000000e+00
3.252361e+03,0.000000e+00
3.255254e+03,0.000000e+00
3.258146e+03,0.000000e+00
3.261039e+03,0.000000e+00
3.263932e+03,0.000000e+00
3.266824e+03,0.000000e+00
3.269717e+03,0.000000e+00
3.272610e+03,0.000000e+00
3.275503e+03,0.000000e+00
3.278395e+03,0.000000e+00
3.281288e+03,0.000000e+00
3.284181e+03,0.000000e+00
3.287073e+03,0.000000e+00
3.289966e+03,0.000000e+00
3.292859e+03,0.000000e+00
3.295751e+03,0.000000e+00
3.298644e+03,0.000000e+00
3.301537e+03,0.000000e+00
3.304430e+03,0.000000e+00
3.307322e+03,0.000000e+00
3.310215e+03,0.000000e+00
3.313108e+03,0.000000e+00
3.316000e+03,0.000000e+00
3.318893e+03,0.000000e+00
3.321786e+03,0.000000e+00
3.324678e+03,0.000000e+00
3.327571e+03,0.000000e+00
3.330464e+03,0.000000e+00
3.333357e+03,0.000000e+00
3.336249e+03,0.000000e+00
3.339142e+03,0.000000e+00
3.342035e+03,0.000000e+00
3.344927e+03,0.000000e+00
3.347820e+03,0.000000e+00
3.350713e+03,0.000000e+00
3.353605e+03,0.000000e+00
3.356498e+03,0.000000e+00
3.359391e+03,0.000000e+00
3.362284e+03,0.000000e+00
3.365176e+03,0.000000e+00
3.368069e+03,0.000000e+00
3.370962e+03,0.000000e+00
3.373854e+03,0.000000e+00
3.376747e+03,0.000000e+00
3.379640e+03,0.000000e+00
3.382532e+03,0.000000e+00
3.385425e+03,0.000000e+00
3.388318e+03,0.000000e+00
3.391211e+03,0.000000e+00
3.394103e+03,0.000000e+00
3.396996e+03,0.000000e+00
3.399889e+03,0.000000e+00
3.402781e+03,0.000000e+00
3.405674e+03,0.000000e+00
3.408567e+03,0.000000e+00
3.411459e+03,0.000000e+00
3.414352e+03,0.000000e+00
3.417245e+03,0.000000e+00
3.420138e+03,0.000000e+00
3.423030e+03,0.000000e+00
3.425923e+03,0.000000e+00
3.428816e+03,0.000000e+00
3.431708e+03,0.000000e+00
3.434601e+03,0.000000e+00
3.437494e+03,0.000000e+00
3.440386e+03,0.000000e+00
3.443279e+03,0.000000e+00
3.446172e+03,0.000000e+00
3.449065e+03,0.000000e+00
3.451957e+03,0.000000e+00
3.454850e+03,0.000000e+00
3.457743e+03,0.000000e+00
3.460635e+03,0.000000e+00
3.463528e+03,0.000000e+00
3.466421e+03,0.000000e+00
3.469313e+03,0.000000e+00
3.472206e+03,0.000000e+00
3.475099e+03,0.000000e+00
3.477992e+03,0.000000e+00
3.480884e+03,0.000000e+00
3.483777e+03,0.000000e+00
3.486670e+03,0.000000e+00
3.489563e+03,0.000000e+00
3.492455e+03,0.000000e+00
3.495348e+03,0.000000e+00
3.498240e+03,0.000000e+00
3.500169e+03,0.000000e+00