File: RAMAN_data/23052023_r1/black fibre2.CSV
9.931763e+01,0.000000e+00
1.022103e+02,0.000000e+00
1.051030e+02,0.000000e+00
1.079957e+02,0.000000e+00
1.108884e+02,0.000000e+00
1.137811e+02,0.000000e+00
1.166738e+02,0.000000e+00
1.195665e+02,0.000000e+00
1.224592e+02,0.000000e+00
1.253519e+02,0.000000e+00
1.282446e+02,0.000000e+00
1.311373e+02,0.000000e+00
1.340300e+02,0.000000e+00
1.369227e+02,0.000000e+00
1.398154e+02,0.000000e+00
1.427081e+02,0.000000e+00
1.456008e+02,0.000000e+00
1.484935e+02,0.000000e+00
1.513862e+02,0.000000e+00
1.542789e+02,0.000000e+00
1.571716e+02,0.000000e+00
1.600643e+02,0.000000e+00
1.629570e+02,0.000000e+00
1.658497e+02,0.000000e+00
1.687424e+02,0.000000e+00
1.716351e+02,0.000000e+00
1.745278e+02,0.000000e+00
1.774205e+02,0.000000e+00
1.803132e+02,0.000000e+00
1.832059e+02,0.000000e+00
1.860986e+02,0.000000e+00
1.889913e+02,0.000000e+00
1.918840e+02,0.000000e+00
1.947767e+02,0.000000e+00
1.976694e+02,0.000000e+00
2.005621e+02,9.609238e+02
2.034548e+02,9.669276e+02
2.063475e+02,9.666979e+02
2.092402e+02,9.665873e+02
2.121329e+02,9.764417e+02
2.150256e+02,9.753002e+02
2.179183e+02,9.741342e+02
2.208110e+02,9.737422e+02
2.237037e+02,9.760009e+02
2.265964e+02,9.698126e+02
2.294892e+02,9.742831e+02
2.323819e+02,9.803680e+02
2.352746e+02,9.742011e+02
2.381673e+02,9.735753e+02
2.410600e+02,9.765126e+02
2.439527e+02,9.737668e+02
2.468454e+02,9.723761e+02
2.497381e+02,9.702689e+02
2.526308e+02,9.747164e+02
2.555235e+02,9.752990e+02
2.584161e+02,9.716246e+02
2.613088e+02,9.755237e+02
2.642015e+02,9.776731e+02
2.670942e+02,9.780114e+02
2.699869e+02,9.809854e+02
2.728796e+02,9.792930e+02
2.757723e+02,9.801169e+02
2.786650e+02,9.860468e+02
2.815577e+02,9.758333e+02
2.844504e+02,9.839445e+02
2.873431e+02,9.842795e+02
2.902358e+02,9.803232e+02
2.931285e+02,9.834466e+02
2.960212e+02,9.834530e+02
2.989139e+02,9.781255e+02
3.018066e+02,9.854200e+02
3.046993e+02,9.845341e+02
3.075920e+02,9.793962e+02
3.104847e+02,9.902179e+02
3.133774e+02,9.920979e+02
3.162701e+02,9.948058e+02
3.191628e+02,9.866564e+02
3.220555e+02,9.890441e+02
3.249482e+02,9.918376e+02
3.278409e+02,9.929766e+02
3.307336e+02,9.941985e+02
3.336263e+02,9.904584e+02
3.365190e+02,9.953044e+02
3.394117e+02,9.881154e+02
3.423044e+02,9.962000e+02
3.451971e+02,9.923825e+02
3.480898e+02,9.946466e+02
3.509825e+02,9.943203e+02
3.538752e+02,9.930583e+02
3.567680e+02,9.989366e+02
3.596607e+02,1.001213e+03
3.625534e+02,9.954034e+02
3.654461e+02,9.917607e+02
3.683388e+02,9.979843e+02
3.712315e+02,1.002117e+03
3.741242e+02,1.004083e+03
3.770169e+02,1.009188e+03
3.799096e+02,1.005583e+03
3.828023e+02,9.956534e+02
3.856950e+02,9.902884e+02
3.885877e+02,9.976438e+02
3.914804e+02,9.995352e+02
3.943731e+02,9.965632e+02
3.972658e+02,9.865583e+02
4.001585e+02,9.840038e+02
4.030512e+02,9.903482e+02
4.059439e+02,9.931580e+02
4.088366e+02,9.904922e+02
4.117293e+02,9.888041e+02
4.146220e+02,9.896505e+02
4.175147e+02,9.893257e+02
4.204074e+02,9.858746e+02
4.233001e+02,9.858092e+02
4.261928e+02,9.921395e+02
4.290855e+02,9.889639e+02
4.319782e+02,9.905482e+02
4.348709e+02,9.858714e+02
4.377636e+02,9.818289e+02
4.406563e+02,9.714774e+02
4.435490e+02,9.761202e+02
4.464417e+02,9.815291e+02
4.493344e+02,9.870371e+02
4.522271e+02,9.807828e+02
4.551198e+02,9.861669e+02
4.580125e+02,9.813294e+02
4.609052e+02,9.754300e+02
4.637979e+02,9.774669e+02
4.666906e+02,9.750085e+02
4.695833e+02,9.668824e+02
4.724760e+02,9.689215e+02
4.753687e+02,9.632784e+02
4.782614e+02,9.553672e+02
4.811541e+02,9.585844e+02
4.840468e+02,9.536826e+02
4.869395e+02,9.646054e+02
4.898322e+02,9.648156e+02
4.927249e+02,9.622620e+02
4.956176e+02,9.624706e+02
4.985103e+02,9.673982e+02
5.014030e+02,9.641656e+02
5.042957e+02,9.611194e+02
5.071884e+02,9.540235e+02
5.100811e+02,9.579565e+02
5.129738e+02,9.650074e+02
5.158665e+02,9.615525e+02
5.187592e+02,9.669877e+02
5.216519e+02,9.587256e+02
5.245446e+02,9.684687e+02
5.274373e+02,9.602254e+02
5.303300e+02,9.559784e+02
5.332227e+02,9.566557e+02
5.361154e+02,9.541171e+02
5.390081e+02,9.527844e+02
5.419008e+02,9.530293e+02
5.447935e+02,9.536757e+02
5.476862e+02,9.557911e+02
5.505789e+02,9.539198e+02
5.534716e+02,9.497652e+02
5.563643e+02,9.590027e+02
5.592570e+02,9.502520e+02
5.621497e+02,9.466734e+02
5.650424e+02,9.479343e+02
5.679351e+02,9.321740e+02
5.708278e+02,9.413147e+02
5.737205e+02,9.376393e+02
5.766132e+02,9.369530e+02
5.795059e+02,9.460156e+02
5.823986e+02,9.375554e+02
5.852913e+02,9.265445e+02
5.881840e+02,9.295452e+02
5.910767e+02,9.328230e+02
5.939694e+02,9.418686e+02
5.968621e+02,9.413919e+02
5.997548e+02,9.320417e+02
6.026475e+02,9.295872e+02
6.055402e+02,9.185575e+02
6.084329e+02,9.334736e+02
6.113256e+02,9.299680e+02
6.142183e+02,9.363943e+02
6.171110e+02,9.202968e+02
6.200037e+02,9.276580e+02
6.228964e+02,9.160048e+02
6.257891e+02,9.199594e+02
6.286818e+02,9.227808e+02
6.315745e+02,9.189773e+02
6.344672e+02,9.133263e+02
6.373599e+02,9.124879e+02
6.402526e+02,9.169662e+02
6.431453e+02,9.142029e+02
6.460380e+02,9.110319e+02
6.489307e+02,9.110665e+02
6.518234e+02,9.086406e+02
6.547161e+02,9.088409e+02
6.576088e+02,9.060109e+02
6.605015e+02,9.101152e+02
6.633942e+02,9.111794e+02
6.662869e+02,9.146980e+02
6.691796e+02,9.136468e+02
6.720723e+02,9.004807e+02
6.749650e+02,9.065726e+02
6.778577e+02,9.056691e+02
6.807504e+02,9.002885e+02
6.836431e+02,8.992148e+02
6.865358e+02,9.024991e+02
6.894285e+02,9.020362e+02
6.923212e+02,8.956038e+02
6.952139e+02,8.993499e+02
6.981066e+02,8.883690e+02
7.009993e+02,8.924391e+02
7.038920e+02,8.986346e+02
7.067847e+02,9.073441e+02
7.096774e+02,8.944852e+02
7.125701e+02,8.981647e+02
7.154628e+02,8.967255e+02
7.183555e+02,8.938486e+02
7.212482e+02,8.900914e+02
7.241409e+02,8.862853e+02
7.270336e+02,8.873031e+02
7.299263e+02,8.852438e+02
7.328190e+02,8.843585e+02
7.357117e+02,8.833656e+02
7.386044e+02,8.827737e+02
7.414971e+02,8.764443e+02
7.443898e+02,8.780886e+02
7.472825e+02,8.829974e+02
7.501752e+02,8.694802e+02
7.530679e+02,8.669379e+02
7.559606e+02,8.689018e+02
7.588533e+02,8.725804e+02
7.617460e+02,8.600856e+02
7.646387e+02,8.666972e+02
7.675314e+02,8.533415e+02
7.704241e+02,8.534700e+02
7.733168e+02,8.533578e+02
7.762095e+02,8.681882e+02
7.791022e+02,8.540967e+02
7.819949e+02,8.510427e+02
7.848876e+02,8.466059e+02
7.877803e+02,8.509857e+02
7.906730e+02,8.484088e+02
7.935657e+02,8.467732e+02
7.964584e+02,8.436576e+02
7.993511e+02,8.508339e+02
8.022438e+02,8.424921e+02
8.051365e+02,8.485751e+02
8.080292e+02,8.539498e+02
8.109219e+02,8.482750e+02
8.138146e+02,8.482303e+02
8.167073e+02,8.503879e+02
8.196000e+02,8.443469e+02
8.224927e+02,8.505173e+02
8.253854e+02,8.446930e+02
8.282781e+02,8.374075e+02
8.311708e+02,8.406913e+02
8.340635e+02,8.418909e+02
8.369562e+02,8.513173e+02
8.398489e+02,8.373560e+02
8.427416e+02,8.390243e+02
8.456343e+02,8.337233e+02
8.485270e+02,8.377479e+02
8.514197e+02,8.231312e+02
8.543124e+02,8.357377e+02
8.572051e+02,8.312272e+02
8.600978e+02,8.361512e+02
8.629905e+02,8.262430e+02
8.658832e+02,8.264776e+02
8.687759e+02,8.288716e+02
8.716686e+02,8.298031e+02
8.745613e+02,8.400477e+02
8.774540e+02,8.433986e+02
8.803467e+02,8.322903e+02
8.832394e+02,8.277144e+02
8.861321e+02,8.263209e+02
8.890248e+02,8.343064e+02
8.919175e+02,8.252641e+02
8.948102e+02,8.194602e+02
8.977029e+02,8.193178e+02
9.005956e+02,8.177302e+02
9.034883e+02,8.113615e+02
9.063810e+02,8.126325e+02
9.092737e+02,8.030800e+02
9.121664e+02,8.036789e+02
9.150591e+02,8.006182e+02
9.179518e+02,8.019275e+02
9.208445e+02,8.035145e+02
9.237372e+02,7.919107e+02
9.266299e+02,7.846339e+02
9.295226e+02,7.795785e+02
9.324153e+02,7.844896e+02
9.353080e+02,7.845538e+02
9.382007e+02,7.800313e+02
9.410934e+02,7.827245e+02
9.439861e+02,7.799919e+02
9.468788e+02,7.857724e+02
9.497715e+02,7.772731e+02
9.526642e+02,7.730446e+02
9.555569e+02,7.750274e+02
9.584496e+02,7.822737e+02
9.613423e+02,7.797097e+02
9.642350e+02,7.756062e+02
9.671277e+02,7.765987e+02
9.700204e+02,7.683766e+02
9.729131e+02,7.743563e+02
9.758058e+02,7.663982e+02
9.786985e+02,7.672849e+02
9.815912e+02,7.708516e+02
9.844839e+02,7.717474e+02
9.873766e+02,7.707452e+02
9.902693e+02,7.684174e+02
9.931620e+02,7.680196e+02
9.960547e+02,7.756830e+02
9.989474e+02,7.717874e+02
1.001840e+03,7.663170e+02
1.004733e+03,7.646666e+02
1.007626e+03,7.618096e+02
1.010518e+03,7.678478e+02
1.013411e+03,7.636963e+02
1.016304e+03,7.629000e+02
1.019196e+03,7.645214e+02
1.022089e+03,7.625094e+02
1.024982e+03,7.622848e+02
1.027875e+03,7.526612e+02
1.030767e+03,7.598030e+02
1.033660e+03,7.639122e+02
1.036552e+03,7.626573e+02
1.039445e+03,7.570904e+02
1.042338e+03,7.604399e+02
1.045231e+03,7.609365e+02
1.048123e+03,7.569464e+02
1.051016e+03,7.528941e+02
1.053909e+03,7.494759e+02
1.056802e+03,7.552087e+02
1.059694e+03,7.469872e+02
1.062587e+03,7.510714e+02
1.065479e+03,7.475753e+02
1.068372e+03,7.467081e+02
1.071265e+03,7.378052e+02
1.074158e+03,7.488459e+02
1.077050e+03,7.418634e+02
1.079943e+03,7.465035e+02
1.082836e+03,7.566730e+02
1.085729e+03,7.571113e+02
1.088621e+03,7.601552e+02
1.091514e+03,7.583136e+02
1.094406e+03,7.549227e+02
1.097299e+03,7.559714e+02
1.100192e+03,7.487764e+02
1.103085e+03,7.436425e+02
1.105977e+03,7.366437e+02
1.108870e+03,7.386295e+02
1.111763e+03,7.403798e+02
1.114656e+03,7.412119e+02
1.117548e+03,7.429081e+02
1.120441e+03,7.392613e+02
1.123334e+03,7.409725e+02
1.126226e+03,7.357927e+02
1.129119e+03,7.282617e+02
1.132012e+03,7.378688e+02
1.134904e+03,7.205091e+02
1.137797e+03,7.268117e+02
1.140690e+03,7.370923e+02
1.143583e+03,7.295089e+02
1.146475e+03,7.282718e+02
1.149368e+03,7.380907e+02
1.152261e+03,7.313832e+02
1.155153e+03,7.133255e+02
1.158046e+03,7.078485e+02
1.160939e+03,7.118056e+02
1.163831e+03,7.127875e+02
1.166724e+03,7.140460e+02
1.169617e+03,7.194149e+02
1.172510e+03,7.077740e+02
1.175402e+03,7.047404e+02
1.178295e+03,7.101441e+02
1.181188e+03,7.116439e+02
1.184080e+03,7.076642e+02
1.186973e+03,7.026243e+02
1.189866e+03,6.988626e+02
1.192758e+03,6.987982e+02
1.195651e+03,6.932379e+02
1.198544e+03,6.988561e+02
1.201437e+03,6.884682e+02
1.204329e+03,6.935621e+02
1.207222e+03,6.979201e+02
1.210115e+03,6.911100e+02
1.213007e+03,6.947465e+02
1.215900e+03,6.892565e+02
1.218793e+03,6.882181e+02
1.221685e+03,6.849380e+02
1.224578e+03,6.804915e+02
1.227471e+03,6.754859e+02
1.230364e+03,6.839161e+02
1.233256e+03,6.768033e+02
1.236149e+03,6.669554e+02
1.239042e+03,6.762652e+02
1.241934e+03,6.800410e+02
1.244827e+03,6.833066e+02
1.247720e+03,6.730162e+02
1.250612e+03,6.750683e+02
1.253505e+03,6.803432e+02
1.256398e+03,6.768011e+02
1.259291e+03,6.771224e+02
1.262183e+03,6.805387e+02
1.265076e+03,6.765696e+02
1.267969e+03,6.724437e+02
1.270861e+03,6.744503e+02
1.273754e+03,6.787556e+02
1.276647e+03,6.812868e+02
1.279539e+03,6.880723e+02
1.282432e+03,6.867355e+02
1.285325e+03,6.950679e+02
1.288218e+03,6.990613e+02
1.291110e+03,7.121786e+02
1.294003e+03,7.141124e+02
1.296896e+03,7.047084e+02
1.299788e+03,7.034721e+02
1.302681e+03,7.018191e+02
1.305574e+03,7.168985e+02
1.308466e+03,7.228231e+02
1.311359e+03,7.422047e+02
1.314252e+03,7.566638e+02
1.317145e+03,7.653294e+02
1.320037e+03,7.526837e+02
1.322930e+03,7.428631e+02
1.325823e+03,7.316489e+02
1.328715e+03,7.251251e+02
1.331608e+03,7.117564e+02
1.334501e+03,7.028459e+02
1.337393e+03,7.063201e+02
1.340286e+03,6.959478e+02
1.343179e+03,6.919779e+02
1.346072e+03,6.896661e+02
1.348964e+03,6.820555e+02
1.351857e+03,6.825333e+02
1.354750e+03,6.885781e+02
1.357642e+03,6.876273e+02
1.360535e+03,6.978377e+02
1.363428e+03,6.979304e+02
1.366320e+03,6.906281e+02
1.369213e+03,6.884531e+02
1.372106e+03,6.779248e+02
1.374999e+03,6.729415e+02
1.377891e+03,6.658485e+02
1.380784e+03,6.638265e+02
1.383677e+03,6.617064e+02
1.386569e+03,6.500498e+02
1.389462e+03,6.492675e+02
1.392355e+03,6.487747e+02
1.395247e+03,6.448881e+02
1.398140e+03,6.392715e+02
1.401033e+03,6.446368e+02
1.403926e+03,6.313301e+02
1.406818e+03,6.369880e+02
1.409711e+03,6.270593e+02
1.412604e+03,6.283702e+02
1.415496e+03,6.273101e+02
1.418389e+03,6.283876e+02
1.421282e+03,6.269460e+02
1.424174e+03,6.253420e+02
1.427067e+03,6.264824e+02
1.429960e+03,6.255769e+02
1.432853e+03,6.320726e+02
1.435745e+03,6.298607e+02
1.438638e+03,6.246207e+02
1.441531e+03,6.200994e+02
1.444423e+03,6.245906e+02
1.447316e+03,6.290501e+02
1.450209e+03,6.211605e+02
1.453101e+03,6.175930e+02
1.455994e+03,6.242657e+02
1.458887e+03,6.183942e+02
1.461780e+03,6.255818e+02
1.464672e+03,6.193701e+02
1.467565e+03,6.176311e+02
1.470458e+03,6.168930e+02
1.473350e+03,6.216810e+02
1.476243e+03,6.213627e+02
1.479136e+03,6.205061e+02
1.482028e+03,6.111899e+02
1.484921e+03,6.040303e+02
1.487814e+03,6.154753e+02
1.490707e+03,6.110756e+02
1.493599e+03,6.103983e+02
1.496492e+03,6.024498e+02
1.499385e+03,6.063395e+02
1.502277e+03,6.028618e+02
1.505170e+03,6.035050e+02
1.508063e+03,6.033417e+02
1.510955e+03,5.976746e+02
1.513848e+03,5.942244e+02
1.516741e+03,5.933342e+02
1.519634e+03,5.928427e+02
1.522526e+03,5.906955e+02
1.525419e+03,5.929134e+02
1.528312e+03,5.807599e+02
1.531204e+03,5.910251e+02
1.534097e+03,5.857230e+02
1.536990e+03,5.843988e+02
1.539882e+03,5.796245e+02
1.542775e+03,5.765323e+02
1.545668e+03,5.776562e+02
1.548561e+03,5.801808e+02
1.551453e+03,5.812708e+02
1.554346e+03,5.764393e+02
1.557239e+03,5.726791e+02
1.560131e+03,5.817657e+02
1.563024e+03,5.680042e+02
1.565917e+03,5.700043e+02
1.568809e+03,5.834514e+02
1.571702e+03,5.703572e+02
1.574595e+03,5.550053e+02
1.577488e+03,5.697502e+02
1.580380e+03,5.683546e+02
1.583273e+03,5.729775e+02
1.586166e+03,5.660743e+02
1.589058e+03,5.630215e+02
1.591951e+03,5.639587e+02
1.594844e+03,5.622897e+02
1.597736e+03,5.704995e+02
1.600629e+03,5.713234e+02
1.603522e+03,5.625082e+02
1.606415e+03,5.706279e+02
1.609307e+03,5.708528e+02
1.612200e+03,5.617258e+02
1.615093e+03,5.613065e+02
1.617985e+03,5.561991e+02
1.620878e+03,5.555717e+02
1.623771e+03,5.497242e+02
1.626663e+03,5.616731e+02
1.629556e+03,5.627274e+02
1.632449e+03,5.571382e+02
1.635342e+03,5.602434e+02
1.638234e+03,5.555623e+02
1.641127e+03,5.568796e+02
1.644020e+03,5.580028e+02
1.646912e+03,5.468383e+02
1.649805e+03,5.467752e+02
1.652698e+03,5.526458e+02
1.655590e+03,5.529611e+02
1.658483e+03,5.464532e+02
1.661376e+03,5.487687e+02
1.664269e+03,5.460678e+02
1.667161e+03,5.456384e+02
1.670054e+03,5.391221e+02
1.672947e+03,5.383610e+02
1.675839e+03,5.388824e+02
1.678732e+03,5.329474e+02
1.681625e+03,5.229946e+02
1.684517e+03,5.304059e+02
1.687410e+03,5.286910e+02
1.690303e+03,5.301237e+02
1.693196e+03,5.210023e+02
1.696088e+03,5.217148e+02
1.698981e+03,5.186725e+02
1.701874e+03,5.212328e+02
1.704766e+03,5.246776e+02
1.707659e+03,5.267327e+02
1.710552e+03,5.171402e+02
1.713444e+03,5.170967e+02
1.716337e+03,5.127592e+02
1.719230e+03,5.037421e+02
1.722123e+03,5.078675e+02
1.725015e+03,5.070289e+02
1.727908e+03,5.122043e+02
1.730801e+03,5.190226e+02
1.733693e+03,5.129387e+02
1.736586e+03,5.049041e+02
1.739479e+03,5.041686e+02
1.742371e+03,5.071262e+02
1.745264e+03,5.083353e+02
1.748157e+03,5.022766e+02
1.751050e+03,5.085420e+02
1.753942e+03,5.065473e+02
1.756835e+03,5.067580e+02
1.759728e+03,4.978056e+02
1.762620e+03,5.047599e+02
1.765513e+03,5.013497e+02
1.768406e+03,4.953883e+02
1.771298e+03,5.000675e+02
1.774191e+03,4.955609e+02
1.777084e+03,4.985569e+02
1.779977e+03,5.039024e+02
1.782869e+03,4.900863e+02
1.785762e+03,5.008019e+02
1.788655e+03,4.949773e+02
1.791547e+03,5.005732e+02
1.794440e+03,4.865384e+02
1.797333e+03,4.962726e+02
1.800225e+03,4.958447e+02
1.803118e+03,4.872603e+02
1.806011e+03,4.918824e+02
1.808904e+03,4.952535e+02
1.811796e+03,4.870436e+02
1.814689e+03,4.866760e+02
1.817582e+03,4.824158e+02
1.820474e+03,4.789653e+02
1.823367e+03,4.735706e+02
1.826260e+03,4.678569e+02
1.829152e+03,4.701353e+02
1.832045e+03,4.838968e+02
1.834938e+03,4.673771e+02
1.837831e+03,4.712225e+02
1.840723e+03,4.764061e+02
1.843616e+03,4.669043e+02
1.846509e+03,4.612530e+02
1.849401e+03,4.676813e+02
1.852294e+03,4.578087e+02
1.855187e+03,4.585798e+02
1.858079e+03,4.600174e+02
1.860972e+03,4.545303e+02
1.863865e+03,4.643948e+02
1.866758e+03,4.538833e+02
1.869650e+03,4.580110e+02
1.872543e+03,4.463332e+02
1.875436e+03,4.479515e+02
1.878328e+03,4.524244e+02
1.881221e+03,4.455293e+02
1.884114e+03,4.488267e+02
1.887006e+03,4.554330e+02
1.889899e+03,4.445036e+02
1.892792e+03,4.447422e+02
1.895685e+03,4.477328e+02
1.898577e+03,4.399902e+02
1.901470e+03,4.390128e+02
1.904363e+03,4.399950e+02
1.907255e+03,4.412640e+02
1.910148e+03,4.360114e+02
1.913041e+03,4.363677e+02
1.915933e+03,4.451053e+02
1.918826e+03,4.351947e+02
1.921719e+03,4.429403e+02
1.924612e+03,4.422698e+02
1.927504e+03,4.360626e+02
1.930397e+03,4.385232e+02
1.933290e+03,4.356126e+02
1.936182e+03,4.375009e+02
1.939075e+03,4.303448e+02
1.941968e+03,4.338897e+02
1.944860e+03,4.294356e+02
1.947753e+03,4.323044e+02
1.950646e+03,4.303655e+02
1.953539e+03,4.380498e+02
1.956431e+03,4.284044e+02
1.959324e+03,4.347145e+02
1.962217e+03,4.272782e+02
1.965109e+03,4.224533e+02
1.968002e+03,4.245317e+02
1.970895e+03,4.273725e+02
1.973787e+03,4.128225e+02
1.976680e+03,4.263734e+02
1.979573e+03,4.178264e+02
1.982466e+03,4.180597e+02
1.985358e+03,4.149575e+02
1.988251e+03,4.131522e+02
1.991144e+03,4.109478e+02
1.994036e+03,4.019415e+02
1.996929e+03,4.097481e+02
1.999822e+03,4.008541e+02
2.002714e+03,4.060616e+02
2.005607e+03,4.129723e+02
2.008500e+03,3.966223e+02
2.011393e+03,4.085711e+02
2.014285e+03,4.003859e+02
2.017178e+03,3.947628e+02
2.020071e+03,3.970899e+02
2.022963e+03,3.964456e+02
2.025856e+03,3.951895e+02
2.028749e+03,3.969938e+02
2.031641e+03,3.906256e+02
2.034534e+03,3.971483e+02
2.037427e+03,3.933691e+02
2.040320e+03,3.836119e+02
2.043212e+03,3.919228e+02
2.046105e+03,3.815759e+02
2.048998e+03,3.901974e+02
2.051890e+03,3.957641e+02
2.054783e+03,3.784098e+02
2.057676e+03,3.779550e+02
2.060568e+03,3.779715e+02
2.063461e+03,3.888849e+02
2.066354e+03,3.873343e+02
2.069247e+03,3.795684e+02
2.072139e+03,3.685595e+02
2.075032e+03,3.854051e+02
2.077925e+03,3.794811e+02
2.080817e+03,3.726247e+02
2.083710e+03,3.797547e+02
2.086603e+03,3.689100e+02
2.089496e+03,3.747567e+02
2.092388e+03,3.680447e+02
2.095281e+03,3.732926e+02
2.098174e+03,3.781104e+02
2.101066e+03,3.671621e+02
2.103959e+03,3.712153e+02
2.106852e+03,3.708225e+02
2.109744e+03,3.729976e+02
2.112637e+03,3.716665e+02
2.115530e+03,3.608426e+02
2.118422e+03,3.686988e+02
2.121315e+03,3.685515e+02
2.124208e+03,3.671978e+02
2.127101e+03,3.600249e+02
2.129993e+03,3.616674e+02
2.132886e+03,3.500459e+02
2.135779e+03,3.705511e+02
2.138671e+03,3.639357e+02
2.141564e+03,3.595580e+02
2.144457e+03,3.550986e+02
2.147350e+03,3.491991e+02
2.150242e+03,3.522653e+02
2.153135e+03,3.514628e+02
2.156028e+03,3.498179e+02
2.158920e+03,3.446700e+02
2.161813e+03,3.611211e+02
2.164706e+03,3.340603e+02
2.167598e+03,3.443290e+02
2.170491e+03,3.476557e+02
2.173384e+03,3.420123e+02
2.176277e+03,3.399955e+02
2.179169e+03,3.403327e+02
2.182062e+03,3.437749e+02
2.184955e+03,3.416317e+02
2.187847e+03,3.315994e+02
2.190740e+03,3.390491e+02
2.193633e+03,3.282218e+02
2.196525e+03,3.335030e+02
2.199418e+03,3.328867e+02
2.202311e+03,3.366088e+02
2.205204e+03,3.317160e+02
2.208096e+03,3.244808e+02
2.210989e+03,3.286281e+02
2.213882e+03,3.269854e+02
2.216774e+03,3.280079e+02
2.219667e+03,3.202594e+02
2.222560e+03,3.224536e+02
2.225452e+03,3.261143e+02
2.228345e+03,3.318128e+02
2.231238e+03,3.263073e+02
2.234131e+03,3.292397e+02
2.237023e+03,3.258354e+02
2.239916e+03,3.252682e+02
2.242809e+03,3.240046e+02
2.245701e+03,3.119522e+02
2.248594e+03,3.211768e+02
2.251487e+03,3.314102e+02
2.254379e+03,3.266708e+02
2.257272e+03,3.210976e+02
2.260165e+03,3.185139e+02
2.263058e+03,3.144275e+02
2.265950e+03,3.190665e+02
2.268843e+03,3.132725e+02
2.271736e+03,3.206860e+02
2.274628e+03,3.062231e+02
2.277521e+03,3.133158e+02
2.280414e+03,3.089894e+02
2.283306e+03,3.102110e+02
2.286199e+03,3.029103e+02
2.289092e+03,3.040703e+02
2.291985e+03,3.051021e+02
2.294877e+03,2.984195e+02
2.297770e+03,3.065844e+02
2.300663e+03,3.032753e+02
2.303555e+03,3.019215e+02
2.306448e+03,2.939249e+02
2.309341e+03,3.045732e+02
2.312233e+03,2.887772e+02
2.315126e+03,3.061415e+02
2.318019e+03,2.902033e+02
2.320912e+03,2.993219e+02
2.323804e+03,3.056083e+02
2.326697e+03,2.956160e+02
2.329590e+03,2.986436e+02
2.332482e+03,2.927161e+02
2.335375e+03,2.932287e+02
2.338268e+03,2.883609e+02
2.341160e+03,2.951998e+02
2.344053e+03,2.901570e+02
2.346946e+03,2.883275e+02
2.349839e+03,2.848023e+02
2.352731e+03,2.893185e+02
2.355624e+03,2.840340e+02
2.358517e+03,2.847760e+02
2.361409e+03,2.878674e+02
2.364302e+03,2.817657e+02
2.367195e+03,2.829483e+02
2.370087e+03,2.849754e+02
2.372980e+03,2.814122e+02
2.375873e+03,2.843565e+02
2.378766e+03,2.841670e+02
2.381658e+03,2.828324e+02
2.384551e+03,2.792743e+02
2.387444e+03,2.805416e+02
2.390336e+03,2.788462e+02
2.393229e+03,2.753972e+02
2.396122e+03,2.808946e+02
2.399014e+03,2.889567e+02
2.401907e+03,2.805840e+02
2.404800e+03,2.843420e+02
2.407693e+03,2.807798e+02
2.410585e+03,2.709959e+02
2.413478e+03,2.709286e+02
2.416371e+03,2.787458e+02
2.419263e+03,2.721870e+02
2.422156e+03,2.761378e+02
2.425049e+03,2.753794e+02
2.427941e+03,2.655805e+02
2.430834e+03,2.671921e+02
2.433727e+03,2.712698e+02
2.436620e+03,2.719244e+02
2.439512e+03,2.790409e+02
2.442405e+03,2.659578e+02
2.445298e+03,2.764417e+02
2.448190e+03,2.683338e+02
2.451083e+03,2.723192e+02
2.453976e+03,2.645107e+02
2.456868e+03,2.660802e+02
2.459761e+03,2.718938e+02
2.462654e+03,2.666030e+02
2.465547e+03,2.549110e+02
2.468439e+03,2.610646e+02
2.471332e+03,2.575716e+02
2.474225e+03,2.570855e+02
2.477117e+03,2.560943e+02
2.480010e+03,2.729336e+02
2.482903e+03,2.588438e+02
2.485795e+03,2.536796e+02
2.488688e+03,2.644565e+02
2.491581e+03,2.593991e+02
2.494474e+03,2.582718e+02
2.497366e+03,2.548262e+02
2.500259e+03,2.584720e+02
2.503152e+03,2.541948e+02
2.506044e+03,2.471072e+02
2.508937e+03,2.514213e+02
2.511830e+03,2.548521e+02
2.514722e+03,2.660973e+02
2.517615e+03,2.504443e+02
2.520508e+03,2.477798e+02
2.523401e+03,2.445510e+02
2.526293e+03,2.407290e+02
2.529186e+03,2.476750e+02
2.532079e+03,2.512706e+02
2.534971e+03,2.487552e+02
2.537864e+03,2.490259e+02
2.540757e+03,2.517410e+02
2.543649e+03,2.534038e+02
2.546542e+03,2.607281e+02
2.549435e+03,2.556951e+02
2.552328e+03,2.569309e+02
2.555220e+03,2.535265e+02
2.558113e+03,2.545920e+02
2.561006e+03,2.527387e+02
2.563898e+03,2.550115e+02
2.566791e+03,2.507876e+02
2.569684e+03,2.406074e+02
2.572576e+03,2.428290e+02
2.575469e+03,2.562542e+02
2.578362e+03,2.497494e+02
2.581255e+03,2.394188e+02
2.584147e+03,2.376420e+02
2.587040e+03,2.341447e+02
2.589933e+03,2.482521e+02
2.592825e+03,2.422930e+02
2.595718e+03,2.446307e+02
2.598611e+03,2.340367e+02
2.601503e+03,2.419538e+02
2.604396e+03,2.420481e+02
2.607289e+03,2.326262e+02
2.610182e+03,2.401078e+02
2.613074e+03,2.325201e+02
2.615967e+03,2.349015e+02
2.618860e+03,2.362817e+02
2.621752e+03,2.358957e+02
2.624645e+03,2.512097e+02
2.627538e+03,2.298640e+02
2.630430e+03,2.266496e+02
2.633323e+03,2.337485e+02
2.636216e+03,2.341739e+02
2.639109e+03,2.286850e+02
2.642001e+03,2.287779e+02
2.644894e+03,2.289693e+02
2.647787e+03,2.337903e+02
2.650679e+03,2.365904e+02
2.653572e+03,2.319776e+02
2.656465e+03,2.399673e+02
2.659357e+03,2.157800e+02
2.662250e+03,2.310054e+02
2.665143e+03,2.311895e+02
2.668036e+03,2.289211e+02
2.670928e+03,2.369335e+02
2.673821e+03,2.292309e+02
2.676714e+03,2.216727e+02
2.679606e+03,2.267135e+02
2.682499e+03,2.200000e+02
2.685392e+03,2.226736e+02
2.688284e+03,2.239706e+02
2.691177e+03,2.301701e+02
2.694070e+03,2.362859e+02
2.696963e+03,2.278884e+02
2.699855e+03,2.369855e+02
2.702748e+03,2.266013e+02
2.705641e+03,2.248328e+02
2.708533e+03,2.206217e+02
2.711426e+03,2.314143e+02
2.714319e+03,2.206267e+02
2.717211e+03,2.225099e+02
2.720104e+03,2.315674e+02
2.722997e+03,2.310249e+02
2.725890e+03,2.264492e+02
2.728782e+03,2.139462e+02
2.731675e+03,2.294795e+02
2.734568e+03,2.258705e+02
2.737460e+03,2.215393e+02
2.740353e+03,2.169885e+02
2.743246e+03,2.149715e+02
2.746138e+03,2.193543e+02
2.749031e+03,2.235483e+02
2.751924e+03,2.304946e+02
2.754817e+03,2.162847e+02
2.757709e+03,2.196167e+02
2.760602e+03,2.150808e+02
2.763495e+03,2.227211e+02
2.766387e+03,2.058268e+02
2.769280e+03,2.180758e+02
2.772173e+03,2.246696e+02
2.775065e+03,2.267569e+02
2.777958e+03,2.174965e+02
2.780851e+03,2.135832e+02
2.783744e+03,2.115841e+02
2.786636e+03,2.101937e+02
2.789529e+03,2.227870e+02
2.792422e+03,2.151121e+02
2.795314e+03,2.144247e+02
2.798207e+03,2.174319e+02
2.801100e+03,2.227905e+02
2.803992e+03,2.164972e+02
2.806885e+03,2.257109e+02
2.809778e+03,2.210222e+02
2.812671e+03,2.083872e+02
2.815563e+03,2.185483e+02
2.818456e+03,2.178612e+02
2.821349e+03,2.176274e+02
2.824241e+03,2.225535e+02
2.827134e+03,2.102861e+02
2.830027e+03,2.170904e+02
2.832919e+03,2.239311e+02
2.835812e+03,2.186838e+02
2.838705e+03,2.312500e+02
2.841598e+03,2.263364e+02
2.844490e+03,2.230568e+02
2.847383e+03,2.213065e+02
2.850276e+03,2.299837e+02
2.853168e+03,2.277982e+02
2.856061e+03,2.284453e+02
2.858954e+03,2.448781e+02
2.861846e+03,2.355971e+02
2.864739e+03,2.399440e+02
2.867632e+03,2.435327e+02
2.870525e+03,2.557785e+02
2.873417e+03,2.393225e+02
2.876310e+03,2.363168e+02
2.879203e+03,2.606252e+02
2.882095e+03,2.543590e+02
2.884988e+03,2.525091e+02
2.887881e+03,2.525858e+02
2.890773e+03,2.440920e+02
2.893666e+03,2.749354e+02
2.896559e+03,2.578623e+02
2.899452e+03,2.604623e+02
2.902344e+03,2.619576e+02
2.905237e+03,2.634778e+02
2.908130e+03,2.597304e+02
2.911022e+03,2.560162e+02
2.913915e+03,2.475728e+02
2.916808e+03,2.447722e+02
2.919700e+03,2.422252e+02
2.922593e+03,2.447986e+02
2.925486e+03,2.282890e+02
2.928379e+03,2.428166e+02
2.931271e+03,2.347047e+02
2.934164e+03,2.386779e+02
2.937057e+03,2.530086e+02
2.939949e+03,2.374592e+02
2.942842e+03,2.321905e+02
2.945735e+03,2.338054e+02
2.948627e+03,2.233500e+02
2.951520e+03,2.327229e+02
2.954413e+03,2.495564e+02
2.957306e+03,2.867637e+02
2.960198e+03,2.363200e+02
2.963091e+03,2.292314e+02
2.965984e+03,2.314834e+02
2.968876e+03,2.158016e+02
2.971769e+03,2.251865e+02
2.974662e+03,2.140741e+02
2.977554e+03,2.153307e+02
2.980447e+03,2.232908e+02
2.983340e+03,2.094627e+02
2.986233e+03,2.016890e+02
2.989125e+03,1.990813e+02
2.992018e+03,2.146065e+02
2.994911e+03,2.122555e+02
2.997803e+03,2.188071e+02
3.000696e+03,2.051867e+02
3.003589e+03,2.076234e+02
3.006481e+03,2.152166e+02
3.009374e+03,2.136165e+02
3.012267e+03,2.246234e+02
3.015160e+03,2.273678e+02
3.018052e+03,2.125747e+02
3.020945e+03,2.070940e+02
3.023838e+03,2.096147e+02
3.026730e+03,1.960986e+02
3.029623e+03,2.101357e+02
3.032516e+03,1.909035e+02
3.035408e+03,2.250579e+02
3.038301e+03,2.219446e+02
3.041194e+03,2.114512e+02
3.044087e+03,1.998965e+02
3.046979e+03,2.114395e+02
3.049872e+03,2.179326e+02
3.052765e+03,2.172293e+02
3.055657e+03,2.020439e+02
3.058550e+03,2.290163e+02
3.061443e+03,2.112940e+02
3.064335e+03,2.102428e+02
3.067228e+03,2.250586e+02
3.070121e+03,2.159387e+02
3.073014e+03,2.219791e+02
3.075906e+03,2.160246e+02
3.078799e+03,2.032452e+02
3.081692e+03,2.039883e+02
3.084584e+03,2.221968e+02
3.087477e+03,2.200272e+02
3.090370e+03,2.399481e+02
3.093262e+03,2.023536e+02
3.096155e+03,2.236469e+02
3.099048e+03,2.171967e+02
3.101941e+03,2.128557e+02
3.104833e+03,2.247163e+02
3.107726e+03,1.908283e+02
3.110619e+03,2.178256e+02
3.113511e+03,2.205895e+02
3.116404e+03,2.231654e+02
3.119297e+03,2.286815e+02
3.122189e+03,2.250079e+02
3.125082e+03,2.193273e+02
3.127975e+03,2.160686e+02
3.130868e+03,2.354938e+02
3.133760e+03,2.296907e+02
3.136653e+03,2.561652e+02
3.139546e+03,2.420544e+02
3.142438e+03,2.414031e+02
3.145331e+03,1.926665e+02
3.148224e+03,2.163460e+02
3.151116e+03,2.328204e+02
3.154009e+03,2.199450e+02
3.156902e+03,2.214701e+02
3.159795e+03,2.307730e+02
3.162687e+03,2.168638e+02
3.165580e+03,2.301473e+02
3.168473e+03,2.338810e+02
3.171365e+03,2.242637e+02
3.174258e+03,2.238722e+02
3.177151e+03,2.408046e+02
3.180043e+03,2.191951e+02
3.182936e+03,2.485036e+02
3.185829e+03,2.339722e+02
3.188722e+03,2.561796e+02
3.191614e+03,2.560066e+02
3.194507e+03,2.227597e+02
3.197400e+03,2.444709e+02
3.200292e+03,2.732232e+02
3.203185e+03,0.000000e+00
3.206078e+03,0.000000e+00
3.208970e+03,0.000000e+00
3.211863e+03,0.000000e+00
3.214756e+03,0.000000e+00
3.217649e+03,0.000000e+00
3.220541e+03,0.000000e+00
3.223434e+03,0.000000e+00
3.226327e+03,0.000000e+00
3.229219e+03,0.000000e+00
3.232112e+03,0.000000e+00
3.235005e+03,0.000000e+00
3.237897e+03,0.000000e+00
3.240790e+03,0.000000e+00
3.243683e+03,0.000000e+00
3.246576e+03,0.000000e+00
3.249468e+03,0.000000e+00
3.252361e+03,0.000000e+00
3.255254e+03,0.000000e+00
3.258146e+03,0.000000e+00
3.261039e+03,0.000000e+00
3.263932e+03,0.000000e+00
3.266824e+03,0.000000e+00
3.269717e+03,0.000000e+00
3.272610e+03,0.000000e+00
3.275503e+03,0.000000e+00
3.278395e+03,0.000000e+00
3.281288e+03,0.000000e+00
3.284181e+03,0.000000e+00
3.287073e+03,0.000000e+00
3.289966e+03,0.000000e+00
3.292859e+03,0.000000e+00
3.295751e+03,0.000000e+00
3.298644e+03,0.000000e+00
3.301537e+03,0.000000e+00
3.304430e+03,0.000000e+00
3.307322e+03,0.000000e+00
3.310215e+03,0.000000e+00
3.313108e+03,0.000000e+00
3.316000e+03,0.000000e+00
3.318893e+03,0.000000e+00
3.321786e+03,0.000000e+00
3.324678e+03,0.000000e+00
3.327571e+03,0.000000e+00
3.330464e+03,0.000000e+00
3.333357e+03,0.000000e+00
3.336249e+03,0.000000e+00
3.339142e+03,0.000000e+00
3.342035e+03,0.000000e+00
3.344927e+03,0.000000e+00
3.347820e+03,0.000000e+00
3.350713e+03,0.000000e+00
3.353605e+03,0.000000e+00
3.356498e+03,0.000000e+00
3.359391e+03,0.000000e+00
3.362284e+03,0.000000e+00
3.365176e+03,0.000000e+00
3.368069e+03,0.000000e+00
3.370962e+03,0.000000e+00
3.373854e+03,0.000000e+00
3.376747e+03,0.000000e+00
3.379640e+03,0.000000e+00
3.382532e+03,0.000000e+00
3.385425e+03,0.000000e+00
3.388318e+03,0.000000e+00
3.391211e+03,0.000000e+00
3.394103e+03,0.000000e+00
3.396996e+03,0.000000e+00
3.399889e+03,0.000000e+00
3.402781e+03,0.000000e+00
3.405674e+03,0.000000e+00
3.408567e+03,0.000000e+00
3.411459e+03,0.000000e+00
3.414352e+03,0.000000e+00
3.417245e+03,0.000000e+00
3.420138e+03,0.000000e+00
3.423030e+03,0.000000e+00
3.425923e+03,0.000000e+00
3.428816e+03,0.000000e+00
3.431708e+03,0.000000e+00
3.434601e+03,0.000000e+00
3.437494e+03,0.000000e+00
3.440386e+03,0.000000e+00
3.443279e+03,0.000000e+00
3.446172e+03,0.000000e+00
3.449065e+03,0.000000e+00
3.451957e+03,0.000000e+00
3.454850e+03,0.000000e+00
3.457743e+03,0.000000e+00
3.460635e+03,0.000000e+00
3.463528e+03,0.000000e+00
3.466421e+03,0.000000e+00
3.469313e+03,0.000000e+00
3.472206e+03,0.000000e+00
3.475099e+03,0.000000e+00
3.477992e+03,0.000000e+00
3.480884e+03,0.000000e+00
3.483777e+03,0.000000e+00
3.486670e+03,0.000000e+00
3.489563e+03,0.000000e+00
3.492455e+03,0.000000e+00
3.495348e+03,0.000000e+00
3.498240e+03,0.000000e+00
3.500169e+03,0.000000e+00