File: RAMAN_data/23052023_r1/blue fibre1.CSV
9.931763e+01,0.000000e+00
1.022103e+02,0.000000e+00
1.051030e+02,0.000000e+00
1.079957e+02,0.000000e+00
1.108884e+02,0.000000e+00
1.137811e+02,0.000000e+00
1.166738e+02,0.000000e+00
1.195665e+02,0.000000e+00
1.224592e+02,0.000000e+00
1.253519e+02,0.000000e+00
1.282446e+02,0.000000e+00
1.311373e+02,0.000000e+00
1.340300e+02,0.000000e+00
1.369227e+02,0.000000e+00
1.398154e+02,0.000000e+00
1.427081e+02,0.000000e+00
1.456008e+02,0.000000e+00
1.484935e+02,0.000000e+00
1.513862e+02,0.000000e+00
1.542789e+02,0.000000e+00
1.571716e+02,0.000000e+00
1.600643e+02,0.000000e+00
1.629570e+02,0.000000e+00
1.658497e+02,0.000000e+00
1.687424e+02,0.000000e+00
1.716351e+02,0.000000e+00
1.745278e+02,0.000000e+00
1.774205e+02,0.000000e+00
1.803132e+02,0.000000e+00
1.832059e+02,0.000000e+00
1.860986e+02,0.000000e+00
1.889913e+02,0.000000e+00
1.918840e+02,0.000000e+00
1.947767e+02,0.000000e+00
1.976694e+02,0.000000e+00
2.005621e+02,5.192632e+03
2.034548e+02,5.211300e+03
2.063475e+02,5.218938e+03
2.092402e+02,5.233882e+03
2.121329e+02,5.246145e+03
2.150256e+02,5.238067e+03
2.179183e+02,5.264825e+03
2.208110e+02,5.291758e+03
2.237037e+02,5.298460e+03
2.265964e+02,5.312978e+03
2.294892e+02,5.324209e+03
2.323819e+02,5.354604e+03
2.352746e+02,5.394028e+03
2.381673e+02,5.417618e+03
2.410600e+02,5.422005e+03
2.439527e+02,5.469005e+03
2.468454e+02,5.514224e+03
2.497381e+02,5.529904e+03
2.526308e+02,5.523933e+03
2.555235e+02,5.528490e+03
2.584161e+02,5.540705e+03
2.613088e+02,5.567325e+03
2.642015e+02,5.596213e+03
2.670942e+02,5.636342e+03
2.699869e+02,5.671367e+03
2.728796e+02,5.694952e+03
2.757723e+02,5.732034e+03
2.786650e+02,5.755967e+03
2.815577e+02,5.728061e+03
2.844504e+02,5.731216e+03
2.873431e+02,5.697709e+03
2.902358e+02,5.682063e+03
2.931285e+02,5.675995e+03
2.960212e+02,5.676900e+03
2.989139e+02,5.702716e+03
3.018066e+02,5.718231e+03
3.046993e+02,5.728386e+03
3.075920e+02,5.712298e+03
3.104847e+02,5.736582e+03
3.133774e+02,5.748454e+03
3.162701e+02,5.756607e+03
3.191628e+02,5.755683e+03
3.220555e+02,5.758880e+03
3.249482e+02,5.757399e+03
3.278409e+02,5.789289e+03
3.307336e+02,5.796044e+03
3.336263e+02,5.793852e+03
3.365190e+02,5.795185e+03
3.394117e+02,5.787120e+03
3.423044e+02,5.842517e+03
3.451971e+02,5.825149e+03
3.480898e+02,5.863961e+03
3.509825e+02,5.845717e+03
3.538752e+02,5.854200e+03
3.567680e+02,5.850346e+03
3.596607e+02,5.876694e+03
3.625534e+02,5.913468e+03
3.654461e+02,5.878452e+03
3.683388e+02,5.888989e+03
3.712315e+02,5.905565e+03
3.741242e+02,5.902766e+03
3.770169e+02,5.946144e+03
3.799096e+02,5.954413e+03
3.828023e+02,5.926334e+03
3.856950e+02,5.926720e+03
3.885877e+02,5.946602e+03
3.914804e+02,5.981564e+03
3.943731e+02,5.971883e+03
3.972658e+02,5.966845e+03
4.001585e+02,5.936114e+03
4.030512e+02,5.958495e+03
4.059439e+02,5.972450e+03
4.088366e+02,5.993958e+03
4.117293e+02,5.978854e+03
4.146220e+02,5.994238e+03
4.175147e+02,5.994476e+03
4.204074e+02,5.991279e+03
4.233001e+02,5.986464e+03
4.261928e+02,6.021763e+03
4.290855e+02,6.009468e+03
4.319782e+02,6.007248e+03
4.348709e+02,5.992981e+03
4.377636e+02,6.024445e+03
4.406563e+02,6.023283e+03
4.435490e+02,6.011024e+03
4.464417e+02,6.008021e+03
4.493344e+02,6.026470e+03
4.522271e+02,6.063589e+03
4.551198e+02,6.044378e+03
4.580125e+02,6.020063e+03
4.609052e+02,6.016003e+03
4.637979e+02,6.037083e+03
4.666906e+02,6.049247e+03
4.695833e+02,6.035815e+03
4.724760e+02,6.069333e+03
4.753687e+02,6.031650e+03
4.782614e+02,6.032187e+03
4.811541e+02,6.053705e+03
4.840468e+02,6.068978e+03
4.869395e+02,6.054748e+03
4.898322e+02,6.054970e+03
4.927249e+02,6.037542e+03
4.956176e+02,6.036725e+03
4.985103e+02,6.069644e+03
5.014030e+02,6.046856e+03
5.042957e+02,6.064260e+03
5.071884e+02,6.055348e+03
5.100811e+02,6.080154e+03
5.129738e+02,6.081843e+03
5.158665e+02,6.096575e+03
5.187592e+02,6.055789e+03
5.216519e+02,6.074567e+03
5.245446e+02,6.113497e+03
5.274373e+02,6.097822e+03
5.303300e+02,6.108876e+03
5.332227e+02,6.110921e+03
5.361154e+02,6.161847e+03
5.390081e+02,6.233824e+03
5.419008e+02,6.240441e+03
5.447935e+02,6.233199e+03
5.476862e+02,6.213972e+03
5.505789e+02,6.248142e+03
5.534716e+02,6.273991e+03
5.563643e+02,6.244942e+03
5.592570e+02,6.199016e+03
5.621497e+02,6.207360e+03
5.650424e+02,6.140132e+03
5.679351e+02,6.078473e+03
5.708278e+02,6.070774e+03
5.737205e+02,6.054415e+03
5.766132e+02,6.034875e+03
5.795059e+02,6.079056e+03
5.823986e+02,6.022989e+03
5.852913e+02,6.074850e+03
5.881840e+02,6.045478e+03
5.910767e+02,6.065393e+03
5.939694e+02,6.113677e+03
5.968621e+02,6.095231e+03
5.997548e+02,6.089317e+03
6.026475e+02,6.059217e+03
6.055402e+02,6.112515e+03
6.084329e+02,6.164510e+03
6.113256e+02,6.150674e+03
6.142183e+02,6.058676e+03
6.171110e+02,6.032804e+03
6.200037e+02,6.021768e+03
6.228964e+02,5.987610e+03
6.257891e+02,5.991942e+03
6.286818e+02,5.982012e+03
6.315745e+02,5.999491e+03
6.344672e+02,5.995358e+03
6.373599e+02,6.001111e+03
6.402526e+02,5.960294e+03
6.431453e+02,5.946851e+03
6.460380e+02,5.939930e+03
6.489307e+02,5.955468e+03
6.518234e+02,5.947192e+03
6.547161e+02,5.933049e+03
6.576088e+02,5.923511e+03
6.605015e+02,5.892101e+03
6.633942e+02,5.903309e+03
6.662869e+02,5.892335e+03
6.691796e+02,5.926235e+03
6.720723e+02,5.897954e+03
6.749650e+02,5.894836e+03
6.778577e+02,5.867834e+03
6.807504e+02,5.872367e+03
6.836431e+02,5.854418e+03
6.865358e+02,5.842266e+03
6.894285e+02,5.797625e+03
6.923212e+02,5.819135e+03
6.952139e+02,5.831980e+03
6.981066e+02,5.799224e+03
7.009993e+02,5.805358e+03
7.038920e+02,5.791072e+03
7.067847e+02,5.765460e+03
7.096774e+02,5.758597e+03
7.125701e+02,5.774827e+03
7.154628e+02,5.770837e+03
7.183555e+02,5.762252e+03
7.212482e+02,5.751123e+03
7.241409e+02,5.727561e+03
7.270336e+02,5.725796e+03
7.299263e+02,5.696814e+03
7.328190e+02,5.712157e+03
7.357117e+02,5.686351e+03
7.386044e+02,5.682141e+03
7.414971e+02,5.676554e+03
7.443898e+02,5.695538e+03
7.472825e+02,5.694537e+03
7.501752e+02,5.673775e+03
7.530679e+02,5.656231e+03
7.559606e+02,5.659008e+03
7.588533e+02,5.659504e+03
7.617460e+02,5.653981e+03
7.646387e+02,5.623170e+03
7.675314e+02,5.614757e+03
7.704241e+02,5.617287e+03
7.733168e+02,5.619844e+03
7.762095e+02,5.641768e+03
7.791022e+02,5.631829e+03
7.819949e+02,5.619608e+03
7.848876e+02,5.608803e+03
7.877803e+02,5.600186e+03
7.906730e+02,5.589053e+03
7.935657e+02,5.552048e+03
7.964584e+02,5.544594e+03
7.993511e+02,5.500116e+03
8.022438e+02,5.491113e+03
8.051365e+02,5.480000e+03
8.080292e+02,5.484024e+03
8.109219e+02,5.467373e+03
8.138146e+02,5.450694e+03
8.167073e+02,5.438991e+03
8.196000e+02,5.431364e+03
8.224927e+02,5.432703e+03
8.253854e+02,5.419228e+03
8.282781e+02,5.417018e+03
8.311708e+02,5.405879e+03
8.340635e+02,5.389584e+03
8.369562e+02,5.399565e+03
8.398489e+02,5.376902e+03
8.427416e+02,5.353775e+03
8.456343e+02,5.342493e+03
8.485270e+02,5.341323e+03
8.514197e+02,5.323294e+03
8.543124e+02,5.326785e+03
8.572051e+02,5.308456e+03
8.600978e+02,5.303048e+03
8.629905e+02,5.300536e+03
8.658832e+02,5.296655e+03
8.687759e+02,5.271292e+03
8.716686e+02,5.280890e+03
8.745613e+02,5.268876e+03
8.774540e+02,5.246673e+03
8.803467e+02,5.233805e+03
8.832394e+02,5.237368e+03
8.861321e+02,5.226133e+03
8.890248e+02,5.225761e+03
8.919175e+02,5.205509e+03
8.948102e+02,5.184919e+03
8.977029e+02,5.183198e+03
9.005956e+02,5.168857e+03
9.034883e+02,5.149305e+03
9.063810e+02,5.134411e+03
9.092737e+02,5.105175e+03
9.121664e+02,5.109150e+03
9.150591e+02,5.113789e+03
9.179518e+02,5.067344e+03
9.208445e+02,5.053872e+03
9.237372e+02,5.043939e+03
9.266299e+02,5.036368e+03
9.295226e+02,5.019712e+03
9.324153e+02,5.014772e+03
9.353080e+02,5.016236e+03
9.382007e+02,4.983373e+03
9.410934e+02,4.979894e+03
9.439861e+02,4.992081e+03
9.468788e+02,4.973526e+03
9.497715e+02,4.960618e+03
9.526642e+02,4.940692e+03
9.555569e+02,4.920688e+03
9.584496e+02,4.913242e+03
9.613423e+02,4.887396e+03
9.642350e+02,4.905308e+03
9.671277e+02,4.901922e+03
9.700204e+02,4.859055e+03
9.729131e+02,4.863083e+03
9.758058e+02,4.837166e+03
9.786985e+02,4.825925e+03
9.815912e+02,4.818938e+03
9.844839e+02,4.807725e+03
9.873766e+02,4.763804e+03
9.902693e+02,4.796209e+03
9.931620e+02,4.784869e+03
9.960547e+02,4.767143e+03
9.989474e+02,4.750562e+03
1.001840e+03,4.738047e+03
1.004733e+03,4.738022e+03
1.007626e+03,4.732369e+03
1.010518e+03,4.727292e+03
1.013411e+03,4.724869e+03
1.016304e+03,4.685716e+03
1.019196e+03,4.683013e+03
1.022089e+03,4.648353e+03
1.024982e+03,4.667045e+03
1.027875e+03,4.660113e+03
1.030767e+03,4.628905e+03
1.033660e+03,4.637401e+03
1.036552e+03,4.621303e+03
1.039445e+03,4.612819e+03
1.042338e+03,4.592270e+03
1.045231e+03,4.581316e+03
1.048123e+03,4.583021e+03
1.051016e+03,4.563828e+03
1.053909e+03,4.560856e+03
1.056802e+03,4.549392e+03
1.059694e+03,4.521718e+03
1.062587e+03,4.515936e+03
1.065479e+03,4.527716e+03
1.068372e+03,4.544945e+03
1.071265e+03,4.556913e+03
1.074158e+03,4.571622e+03
1.077050e+03,4.537368e+03
1.079943e+03,4.532595e+03
1.082836e+03,4.536973e+03
1.085729e+03,4.518998e+03
1.088621e+03,4.497408e+03
1.091514e+03,4.485937e+03
1.094406e+03,4.440974e+03
1.097299e+03,4.428138e+03
1.100192e+03,4.423956e+03
1.103085e+03,4.398958e+03
1.105977e+03,4.401088e+03
1.108870e+03,4.381019e+03
1.111763e+03,4.355448e+03
1.114656e+03,4.344459e+03
1.117548e+03,4.363511e+03
1.120441e+03,4.333842e+03
1.123334e+03,4.326923e+03
1.126226e+03,4.295997e+03
1.129119e+03,4.286019e+03
1.132012e+03,4.291751e+03
1.134904e+03,4.290410e+03
1.137797e+03,4.274239e+03
1.140690e+03,4.269092e+03
1.143583e+03,4.263094e+03
1.146475e+03,4.253353e+03
1.149368e+03,4.248242e+03
1.152261e+03,4.239702e+03
1.155153e+03,4.197400e+03
1.158046e+03,4.186600e+03
1.160939e+03,4.189376e+03
1.163831e+03,4.196726e+03
1.166724e+03,4.176486e+03
1.169617e+03,4.175076e+03
1.172510e+03,4.135979e+03
1.175402e+03,4.146957e+03
1.178295e+03,4.143478e+03
1.181188e+03,4.121636e+03
1.184080e+03,4.111481e+03
1.186973e+03,4.111211e+03
1.189866e+03,4.114448e+03
1.192758e+03,4.109893e+03
1.195651e+03,4.083438e+03
1.198544e+03,4.075338e+03
1.201437e+03,4.056071e+03
1.204329e+03,4.055160e+03
1.207222e+03,4.034722e+03
1.210115e+03,4.028151e+03
1.213007e+03,4.037527e+03
1.215900e+03,4.019321e+03
1.218793e+03,4.023032e+03
1.221685e+03,4.023149e+03
1.224578e+03,4.024926e+03
1.227471e+03,4.006369e+03
1.230364e+03,3.995687e+03
1.233256e+03,3.967805e+03
1.236149e+03,3.950766e+03
1.239042e+03,3.936630e+03
1.241934e+03,3.946893e+03
1.244827e+03,3.929640e+03
1.247720e+03,3.902204e+03
1.250612e+03,3.900139e+03
1.253505e+03,3.897508e+03
1.256398e+03,3.864555e+03
1.259291e+03,3.870845e+03
1.262183e+03,3.846375e+03
1.265076e+03,3.846284e+03
1.267969e+03,3.807762e+03
1.270861e+03,3.818726e+03
1.273754e+03,3.820538e+03
1.276647e+03,3.806046e+03
1.279539e+03,3.782478e+03
1.282432e+03,3.777605e+03
1.285325e+03,3.788676e+03
1.288218e+03,3.784680e+03
1.291110e+03,3.771785e+03
1.294003e+03,3.750492e+03
1.296896e+03,3.743714e+03
1.299788e+03,3.739011e+03
1.302681e+03,3.740539e+03
1.305574e+03,3.748485e+03
1.308466e+03,3.768369e+03
1.311359e+03,3.724306e+03
1.314252e+03,3.721375e+03
1.317145e+03,3.705657e+03
1.320037e+03,3.705419e+03
1.322930e+03,3.699116e+03
1.325823e+03,3.697934e+03
1.328715e+03,3.687766e+03
1.331608e+03,3.679332e+03
1.334501e+03,3.687198e+03
1.337393e+03,3.657351e+03
1.340286e+03,3.624976e+03
1.343179e+03,3.619787e+03
1.346072e+03,3.619676e+03
1.348964e+03,3.629367e+03
1.351857e+03,3.614004e+03
1.354750e+03,3.616097e+03
1.357642e+03,3.613391e+03
1.360535e+03,3.602934e+03
1.363428e+03,3.599695e+03
1.366320e+03,3.601123e+03
1.369213e+03,3.562026e+03
1.372106e+03,3.549677e+03
1.374999e+03,3.536055e+03
1.377891e+03,3.536739e+03
1.380784e+03,3.514980e+03
1.383677e+03,3.527216e+03
1.386569e+03,3.506664e+03
1.389462e+03,3.487201e+03
1.392355e+03,3.493454e+03
1.395247e+03,3.489247e+03
1.398140e+03,3.487633e+03
1.401033e+03,3.477546e+03
1.403926e+03,3.460784e+03
1.406818e+03,3.464944e+03
1.409711e+03,3.462615e+03
1.412604e+03,3.439670e+03
1.415496e+03,3.436081e+03
1.418389e+03,3.410228e+03
1.421282e+03,3.411634e+03
1.424174e+03,3.403763e+03
1.427067e+03,3.404677e+03
1.429960e+03,3.399796e+03
1.432853e+03,3.383452e+03
1.435745e+03,3.378612e+03
1.438638e+03,3.396194e+03
1.441531e+03,3.382909e+03
1.444423e+03,3.403188e+03
1.447316e+03,3.375147e+03
1.450209e+03,3.396104e+03
1.453101e+03,3.386990e+03
1.455994e+03,3.387710e+03
1.458887e+03,3.381922e+03
1.461780e+03,3.349633e+03
1.464672e+03,3.351356e+03
1.467565e+03,3.312033e+03
1.470458e+03,3.303706e+03
1.473350e+03,3.321220e+03
1.476243e+03,3.313441e+03
1.479136e+03,3.304100e+03
1.482028e+03,3.305812e+03
1.484921e+03,3.289521e+03
1.487814e+03,3.277168e+03
1.490707e+03,3.288111e+03
1.493599e+03,3.262883e+03
1.496492e+03,3.252661e+03
1.499385e+03,3.253027e+03
1.502277e+03,3.250357e+03
1.505170e+03,3.233719e+03
1.508063e+03,3.259165e+03
1.510955e+03,3.241181e+03
1.513848e+03,3.227696e+03
1.516741e+03,3.226630e+03
1.519634e+03,3.220754e+03
1.522526e+03,3.204954e+03
1.525419e+03,3.192470e+03
1.528312e+03,3.174320e+03
1.531204e+03,3.164568e+03
1.534097e+03,3.168956e+03
1.536990e+03,3.175158e+03
1.539882e+03,3.153387e+03
1.542775e+03,3.147178e+03
1.545668e+03,3.140025e+03
1.548561e+03,3.146050e+03
1.551453e+03,3.152660e+03
1.554346e+03,3.161750e+03
1.557239e+03,3.167190e+03
1.560131e+03,3.202900e+03
1.563024e+03,3.243674e+03
1.565917e+03,3.348427e+03
1.568809e+03,3.423539e+03
1.571702e+03,3.398684e+03
1.574595e+03,3.324164e+03
1.577488e+03,3.270891e+03
1.580380e+03,3.246790e+03
1.583273e+03,3.228570e+03
1.586166e+03,3.141618e+03
1.589058e+03,3.104083e+03
1.591951e+03,3.088594e+03
1.594844e+03,3.062786e+03
1.597736e+03,3.057783e+03
1.600629e+03,3.060984e+03
1.603522e+03,3.038342e+03
1.606415e+03,3.022044e+03
1.609307e+03,3.018178e+03
1.612200e+03,2.994810e+03
1.615093e+03,3.008626e+03
1.617985e+03,3.005730e+03
1.620878e+03,3.002712e+03
1.623771e+03,3.010078e+03
1.626663e+03,3.015580e+03
1.629556e+03,2.992406e+03
1.632449e+03,2.994489e+03
1.635342e+03,2.964234e+03
1.638234e+03,2.951873e+03
1.641127e+03,2.936422e+03
1.644020e+03,2.947741e+03
1.646912e+03,2.937883e+03
1.649805e+03,2.914655e+03
1.652698e+03,2.899647e+03
1.655590e+03,2.907403e+03
1.658483e+03,2.890917e+03
1.661376e+03,2.883726e+03
1.664269e+03,2.868495e+03
1.667161e+03,2.880238e+03
1.670054e+03,2.884700e+03
1.672947e+03,2.899813e+03
1.675839e+03,2.901195e+03
1.678732e+03,2.898367e+03
1.681625e+03,2.867067e+03
1.684517e+03,2.855355e+03
1.687410e+03,2.851190e+03
1.690303e+03,2.829502e+03
1.693196e+03,2.825020e+03
1.696088e+03,2.807846e+03
1.698981e+03,2.823466e+03
1.701874e+03,2.817338e+03
1.704766e+03,2.812038e+03
1.707659e+03,2.788474e+03
1.710552e+03,2.797339e+03
1.713444e+03,2.791942e+03
1.716337e+03,2.767835e+03
1.719230e+03,2.758648e+03
1.722123e+03,2.746386e+03
1.725015e+03,2.761559e+03
1.727908e+03,2.748298e+03
1.730801e+03,2.743852e+03
1.733693e+03,2.735374e+03
1.736586e+03,2.745420e+03
1.739479e+03,2.701643e+03
1.742371e+03,2.706501e+03
1.745264e+03,2.700196e+03
1.748157e+03,2.709208e+03
1.751050e+03,2.700990e+03
1.753942e+03,2.673119e+03
1.756835e+03,2.687832e+03
1.759728e+03,2.676500e+03
1.762620e+03,2.652746e+03
1.765513e+03,2.658648e+03
1.768406e+03,2.687825e+03
1.771298e+03,2.673542e+03
1.774191e+03,2.665184e+03
1.777084e+03,2.626536e+03
1.779977e+03,2.631801e+03
1.782869e+03,2.635507e+03
1.785762e+03,2.627298e+03
1.788655e+03,2.628120e+03
1.791547e+03,2.595144e+03
1.794440e+03,2.596844e+03
1.797333e+03,2.624442e+03
1.800225e+03,2.615255e+03
1.803118e+03,2.604256e+03
1.806011e+03,2.574022e+03
1.808904e+03,2.569480e+03
1.811796e+03,2.572614e+03
1.814689e+03,2.567493e+03
1.817582e+03,2.567035e+03
1.820474e+03,2.546754e+03
1.823367e+03,2.542821e+03
1.826260e+03,2.537186e+03
1.829152e+03,2.543415e+03
1.832045e+03,2.530209e+03
1.834938e+03,2.508703e+03
1.837831e+03,2.505452e+03
1.840723e+03,2.514300e+03
1.843616e+03,2.522507e+03
1.846509e+03,2.509742e+03
1.849401e+03,2.501511e+03
1.852294e+03,2.487269e+03
1.855187e+03,2.462630e+03
1.858079e+03,2.490361e+03
1.860972e+03,2.447071e+03
1.863865e+03,2.460295e+03
1.866758e+03,2.445331e+03
1.869650e+03,2.449525e+03
1.872543e+03,2.453001e+03
1.875436e+03,2.466900e+03
1.878328e+03,2.421846e+03
1.881221e+03,2.418953e+03
1.884114e+03,2.404200e+03
1.887006e+03,2.400841e+03
1.889899e+03,2.390935e+03
1.892792e+03,2.395106e+03
1.895685e+03,2.388019e+03
1.898577e+03,2.368199e+03
1.901470e+03,2.380104e+03
1.904363e+03,2.365504e+03
1.907255e+03,2.383575e+03
1.910148e+03,2.365477e+03
1.913041e+03,2.347918e+03
1.915933e+03,2.331779e+03
1.918826e+03,2.330290e+03
1.921719e+03,2.345480e+03
1.924612e+03,2.342220e+03
1.927504e+03,2.345645e+03
1.930397e+03,2.308230e+03
1.933290e+03,2.312751e+03
1.936182e+03,2.310269e+03
1.939075e+03,2.311328e+03
1.941968e+03,2.298723e+03
1.944860e+03,2.293809e+03
1.947753e+03,2.296599e+03
1.950646e+03,2.271917e+03
1.953539e+03,2.272599e+03
1.956431e+03,2.265028e+03
1.959324e+03,2.240852e+03
1.962217e+03,2.267995e+03
1.965109e+03,2.242101e+03
1.968002e+03,2.248883e+03
1.970895e+03,2.246533e+03
1.973787e+03,2.244841e+03
1.976680e+03,2.218099e+03
1.979573e+03,2.214464e+03
1.982466e+03,2.223288e+03
1.985358e+03,2.203518e+03
1.988251e+03,2.186456e+03
1.991144e+03,2.207823e+03
1.994036e+03,2.180110e+03
1.996929e+03,2.180915e+03
1.999822e+03,2.173182e+03
2.002714e+03,2.160038e+03
2.005607e+03,2.166835e+03
2.008500e+03,2.137698e+03
2.011393e+03,2.137890e+03
2.014285e+03,2.165511e+03
2.017178e+03,2.144760e+03
2.020071e+03,2.151559e+03
2.022963e+03,2.117840e+03
2.025856e+03,2.130041e+03
2.028749e+03,2.123518e+03
2.031641e+03,2.099772e+03
2.034534e+03,2.090789e+03
2.037427e+03,2.104038e+03
2.040320e+03,2.087638e+03
2.043212e+03,2.096105e+03
2.046105e+03,2.082454e+03
2.048998e+03,2.090347e+03
2.051890e+03,2.110015e+03
2.054783e+03,2.055501e+03
2.057676e+03,2.036433e+03
2.060568e+03,2.055457e+03
2.063461e+03,2.047953e+03
2.066354e+03,2.030652e+03
2.069247e+03,2.028993e+03
2.072139e+03,2.033084e+03
2.075032e+03,2.027929e+03
2.077925e+03,1.994904e+03
2.080817e+03,2.008889e+03
2.083710e+03,1.966427e+03
2.086603e+03,1.987946e+03
2.089496e+03,1.983575e+03
2.092388e+03,1.974011e+03
2.095281e+03,1.980715e+03
2.098174e+03,1.973725e+03
2.101066e+03,1.967471e+03
2.103959e+03,1.942995e+03
2.106852e+03,1.962149e+03
2.109744e+03,1.938090e+03
2.112637e+03,1.926378e+03
2.115530e+03,1.927607e+03
2.118422e+03,1.916655e+03
2.121315e+03,1.932850e+03
2.124208e+03,1.903723e+03
2.127101e+03,1.902211e+03
2.129993e+03,1.882055e+03
2.132886e+03,1.897842e+03
2.135779e+03,1.901788e+03
2.138671e+03,1.894879e+03
2.141564e+03,1.879525e+03
2.144457e+03,1.862607e+03
2.147350e+03,1.865406e+03
2.150242e+03,1.872657e+03
2.153135e+03,1.869627e+03
2.156028e+03,1.827365e+03
2.158920e+03,1.839114e+03
2.161813e+03,1.853644e+03
2.164706e+03,1.822472e+03
2.167598e+03,1.820964e+03
2.170491e+03,1.843244e+03
2.173384e+03,1.822189e+03
2.176277e+03,1.812448e+03
2.179169e+03,1.785726e+03
2.182062e+03,1.773412e+03
2.184955e+03,1.779263e+03
2.187847e+03,1.798244e+03
2.190740e+03,1.775977e+03
2.193633e+03,1.772124e+03
2.196525e+03,1.768255e+03
2.199418e+03,1.746611e+03
2.202311e+03,1.768112e+03
2.205204e+03,1.765029e+03
2.208096e+03,1.737310e+03
2.210989e+03,1.718073e+03
2.213882e+03,1.716488e+03
2.216774e+03,1.750430e+03
2.219667e+03,1.728373e+03
2.222560e+03,1.701297e+03
2.225452e+03,1.691306e+03
2.228345e+03,1.701290e+03
2.231238e+03,1.713337e+03
2.234131e+03,1.696204e+03
2.237023e+03,1.681748e+03
2.239916e+03,1.693309e+03
2.242809e+03,1.670090e+03
2.245701e+03,1.658782e+03
2.248594e+03,1.668800e+03
2.251487e+03,1.669729e+03
2.254379e+03,1.645428e+03
2.257272e+03,1.651865e+03
2.260165e+03,1.626979e+03
2.263058e+03,1.650625e+03
2.265950e+03,1.642718e+03
2.268843e+03,1.626085e+03
2.271736e+03,1.611759e+03
2.274628e+03,1.608275e+03
2.277521e+03,1.602153e+03
2.280414e+03,1.617000e+03
2.283306e+03,1.585422e+03
2.286199e+03,1.602332e+03
2.289092e+03,1.583215e+03
2.291985e+03,1.586908e+03
2.294877e+03,1.579893e+03
2.297770e+03,1.592254e+03
2.300663e+03,1.561038e+03
2.303555e+03,1.552607e+03
2.306448e+03,1.558740e+03
2.309341e+03,1.560356e+03
2.312233e+03,1.543139e+03
2.315126e+03,1.540129e+03
2.318019e+03,1.533408e+03
2.320912e+03,1.540010e+03
2.323804e+03,1.502096e+03
2.326697e+03,1.527621e+03
2.329590e+03,1.515359e+03
2.332482e+03,1.507821e+03
2.335375e+03,1.502738e+03
2.338268e+03,1.504614e+03
2.341160e+03,1.491305e+03
2.344053e+03,1.507692e+03
2.346946e+03,1.499365e+03
2.349839e+03,1.472573e+03
2.352731e+03,1.473158e+03
2.355624e+03,1.468385e+03
2.358517e+03,1.464690e+03
2.361409e+03,1.458198e+03
2.364302e+03,1.445455e+03
2.367195e+03,1.444577e+03
2.370087e+03,1.451238e+03
2.372980e+03,1.439862e+03
2.375873e+03,1.442819e+03
2.378766e+03,1.430290e+03
2.381658e+03,1.419011e+03
2.384551e+03,1.407315e+03
2.387444e+03,1.427068e+03
2.390336e+03,1.416039e+03
2.393229e+03,1.404566e+03
2.396122e+03,1.396505e+03
2.399014e+03,1.377625e+03
2.401907e+03,1.401586e+03
2.404800e+03,1.395645e+03
2.407693e+03,1.389520e+03
2.410585e+03,1.382761e+03
2.413478e+03,1.354681e+03
2.416371e+03,1.363576e+03
2.419263e+03,1.366840e+03
2.422156e+03,1.362975e+03
2.425049e+03,1.348534e+03
2.427941e+03,1.352887e+03
2.430834e+03,1.351252e+03
2.433727e+03,1.354243e+03
2.436620e+03,1.339249e+03
2.439512e+03,1.341019e+03
2.442405e+03,1.318151e+03
2.445298e+03,1.341635e+03
2.448190e+03,1.306161e+03
2.451083e+03,1.321572e+03
2.453976e+03,1.320377e+03
2.456868e+03,1.319594e+03
2.459761e+03,1.300322e+03
2.462654e+03,1.290786e+03
2.465547e+03,1.290576e+03
2.468439e+03,1.308750e+03
2.471332e+03,1.286053e+03
2.474225e+03,1.266420e+03
2.477117e+03,1.273193e+03
2.480010e+03,1.275155e+03
2.482903e+03,1.277701e+03
2.485795e+03,1.274133e+03
2.488688e+03,1.266822e+03
2.491581e+03,1.269414e+03
2.494474e+03,1.238704e+03
2.497366e+03,1.260013e+03
2.500259e+03,1.256021e+03
2.503152e+03,1.224051e+03
2.506044e+03,1.241793e+03
2.508937e+03,1.236932e+03
2.511830e+03,1.234395e+03
2.514722e+03,1.215984e+03
2.517615e+03,1.235048e+03
2.520508e+03,1.216486e+03
2.523401e+03,1.215654e+03
2.526293e+03,1.211745e+03
2.529186e+03,1.210213e+03
2.532079e+03,1.191330e+03
2.534971e+03,1.187125e+03
2.537864e+03,1.196067e+03
2.540757e+03,1.192505e+03
2.543649e+03,1.199562e+03
2.546542e+03,1.175999e+03
2.549435e+03,1.189804e+03
2.552328e+03,1.173679e+03
2.555220e+03,1.166858e+03
2.558113e+03,1.162372e+03
2.561006e+03,1.192836e+03
2.563898e+03,1.176809e+03
2.566791e+03,1.161097e+03
2.569684e+03,1.176142e+03
2.572576e+03,1.161332e+03
2.575469e+03,1.149927e+03
2.578362e+03,1.139551e+03
2.581255e+03,1.129358e+03
2.584147e+03,1.126089e+03
2.587040e+03,1.127220e+03
2.589933e+03,1.141481e+03
2.592825e+03,1.125613e+03
2.595718e+03,1.129887e+03
2.598611e+03,1.115727e+03
2.601503e+03,1.119184e+03
2.604396e+03,1.125405e+03
2.607289e+03,1.100970e+03
2.610182e+03,1.115011e+03
2.613074e+03,1.095776e+03
2.615967e+03,1.093767e+03
2.618860e+03,1.104379e+03
2.621752e+03,1.078773e+03
2.624645e+03,1.112117e+03
2.627538e+03,1.094285e+03
2.630430e+03,1.092232e+03
2.633323e+03,1.085012e+03
2.636216e+03,1.062140e+03
2.639109e+03,1.089570e+03
2.642001e+03,1.054558e+03
2.644894e+03,1.069666e+03
2.647787e+03,1.070924e+03
2.650679e+03,1.071295e+03
2.653572e+03,1.048386e+03
2.656465e+03,1.072971e+03
2.659357e+03,1.061838e+03
2.662250e+03,1.061119e+03
2.665143e+03,1.043731e+03
2.668036e+03,1.063879e+03
2.670928e+03,1.035411e+03
2.673821e+03,1.053692e+03
2.676714e+03,1.044792e+03
2.679606e+03,1.050795e+03
2.682499e+03,1.048370e+03
2.685392e+03,1.037888e+03
2.688284e+03,1.030050e+03
2.691177e+03,1.026110e+03
2.694070e+03,1.016397e+03
2.696963e+03,1.022966e+03
2.699855e+03,1.015081e+03
2.702748e+03,1.012073e+03
2.705641e+03,1.009981e+03
2.708533e+03,1.008813e+03
2.711426e+03,9.972057e+02
2.714319e+03,1.000557e+03
2.717211e+03,9.919315e+02
2.720104e+03,1.009183e+03
2.722997e+03,9.979682e+02
2.725890e+03,9.803161e+02
2.728782e+03,9.870294e+02
2.731675e+03,9.853201e+02
2.734568e+03,9.826490e+02
2.737460e+03,9.793248e+02
2.740353e+03,9.745719e+02
2.743246e+03,9.723054e+02
2.746138e+03,9.562639e+02
2.749031e+03,9.725328e+02
2.751924e+03,9.741410e+02
2.754817e+03,9.695556e+02
2.757709e+03,9.574332e+02
2.760602e+03,9.726829e+02
2.763495e+03,9.540783e+02
2.766387e+03,9.377813e+02
2.769280e+03,9.490468e+02
2.772173e+03,9.560573e+02
2.775065e+03,9.541205e+02
2.777958e+03,9.492933e+02
2.780851e+03,9.394689e+02
2.783744e+03,9.274891e+02
2.786636e+03,9.210369e+02
2.789529e+03,9.324343e+02
2.792422e+03,9.416711e+02
2.795314e+03,9.418470e+02
2.798207e+03,9.252239e+02
2.801100e+03,9.274313e+02
2.803992e+03,9.161251e+02
2.806885e+03,9.324368e+02
2.809778e+03,9.096905e+02
2.812671e+03,9.012457e+02
2.815563e+03,9.243682e+02
2.818456e+03,9.138005e+02
2.821349e+03,9.102653e+02
2.824241e+03,9.182709e+02
2.827134e+03,9.025012e+02
2.830027e+03,9.013213e+02
2.832919e+03,9.137913e+02
2.835812e+03,9.086539e+02
2.838705e+03,8.805749e+02
2.841598e+03,8.943445e+02
2.844490e+03,8.855311e+02
2.847383e+03,8.789142e+02
2.850276e+03,9.006925e+02
2.853168e+03,8.991447e+02
2.856061e+03,8.932133e+02
2.858954e+03,8.942050e+02
2.861846e+03,8.862816e+02
2.864739e+03,8.938748e+02
2.867632e+03,8.988021e+02
2.870525e+03,8.822548e+02
2.873417e+03,8.786539e+02
2.876310e+03,8.739510e+02
2.879203e+03,8.850598e+02
2.882095e+03,8.880165e+02
2.884988e+03,8.673059e+02
2.887881e+03,8.552151e+02
2.890773e+03,8.560389e+02
2.893666e+03,8.830759e+02
2.896559e+03,8.617408e+02
2.899452e+03,8.682888e+02
2.902344e+03,8.595322e+02
2.905237e+03,8.946680e+02
2.908130e+03,8.695192e+02
2.911022e+03,8.835538e+02
2.913915e+03,8.724984e+02
2.916808e+03,8.557977e+02
2.919700e+03,8.406349e+02
2.922593e+03,8.538655e+02
2.925486e+03,8.458939e+02
2.928379e+03,8.349347e+02
2.931271e+03,8.655854e+02
2.934164e+03,8.478605e+02
2.937057e+03,8.511478e+02
2.939949e+03,8.462872e+02
2.942842e+03,8.552381e+02
2.945735e+03,8.327617e+02
2.948627e+03,8.451786e+02
2.951520e+03,8.323345e+02
2.954413e+03,8.622667e+02
2.957306e+03,8.477054e+02
2.960198e+03,8.551217e+02
2.963091e+03,8.292631e+02
2.965984e+03,8.107824e+02
2.968876e+03,7.983145e+02
2.971769e+03,8.329626e+02
2.974662e+03,8.031439e+02
2.977554e+03,8.212015e+02
2.980447e+03,7.995919e+02
2.983340e+03,7.969570e+02
2.986233e+03,8.245314e+02
2.989125e+03,8.203215e+02
2.992018e+03,7.978197e+02
2.994911e+03,8.114867e+02
2.997803e+03,7.986276e+02
3.000696e+03,7.772179e+02
3.003589e+03,7.635156e+02
3.006481e+03,7.900248e+02
3.009374e+03,7.923599e+02
3.012267e+03,7.972736e+02
3.015160e+03,8.176602e+02
3.018052e+03,7.825899e+02
3.020945e+03,7.987264e+02
3.023838e+03,8.190839e+02
3.026730e+03,7.936268e+02
3.029623e+03,7.945153e+02
3.032516e+03,7.889850e+02
3.035408e+03,7.952023e+02
3.038301e+03,7.856495e+02
3.041194e+03,7.880637e+02
3.044087e+03,7.719857e+02
3.046979e+03,7.772835e+02
3.049872e+03,7.573029e+02
3.052765e+03,7.965927e+02
3.055657e+03,7.930121e+02
3.058550e+03,7.982821e+02
3.061443e+03,7.830204e+02
3.064335e+03,7.546656e+02
3.067228e+03,7.738049e+02
3.070121e+03,7.590195e+02
3.073014e+03,7.568676e+02
3.075906e+03,7.744631e+02
3.078799e+03,7.698704e+02
3.081692e+03,7.790067e+02
3.084584e+03,7.428923e+02
3.087477e+03,7.697530e+02
3.090370e+03,7.739549e+02
3.093262e+03,7.960703e+02
3.096155e+03,7.578859e+02
3.099048e+03,7.674493e+02
3.101941e+03,7.739340e+02
3.104833e+03,7.507984e+02
3.107726e+03,7.282635e+02
3.110619e+03,7.597464e+02
3.113511e+03,7.190204e+02
3.116404e+03,7.854495e+02
3.119297e+03,7.927055e+02
3.122189e+03,7.765822e+02
3.125082e+03,7.656801e+02
3.127975e+03,7.600113e+02
3.130868e+03,7.900900e+02
3.133760e+03,7.953619e+02
3.136653e+03,7.801430e+02
3.139546e+03,7.753494e+02
3.142438e+03,7.903405e+02
3.145331e+03,7.693400e+02
3.148224e+03,7.573173e+02
3.151116e+03,7.559001e+02
3.154009e+03,7.493047e+02
3.156902e+03,7.601835e+02
3.159795e+03,7.487148e+02
3.162687e+03,8.251643e+02
3.165580e+03,7.785731e+02
3.168473e+03,7.969768e+02
3.171365e+03,7.700243e+02
3.174258e+03,7.749496e+02
3.177151e+03,7.847899e+02
3.180043e+03,7.602161e+02
3.182936e+03,7.717157e+02
3.185829e+03,8.313380e+02
3.188722e+03,7.839464e+02
3.191614e+03,7.847233e+02
3.194507e+03,8.161256e+02
3.197400e+03,7.747966e+02
3.200292e+03,8.166874e+02
3.203185e+03,0.000000e+00
3.206078e+03,0.000000e+00
3.208970e+03,0.000000e+00
3.211863e+03,0.000000e+00
3.214756e+03,0.000000e+00
3.217649e+03,0.000000e+00
3.220541e+03,0.000000e+00
3.223434e+03,0.000000e+00
3.226327e+03,0.000000e+00
3.229219e+03,0.000000e+00
3.232112e+03,0.000000e+00
3.235005e+03,0.000000e+00
3.237897e+03,0.000000e+00
3.240790e+03,0.000000e+00
3.243683e+03,0.000000e+00
3.246576e+03,0.000000e+00
3.249468e+03,0.000000e+00
3.252361e+03,0.000000e+00
3.255254e+03,0.000000e+00
3.258146e+03,0.000000e+00
3.261039e+03,0.000000e+00
3.263932e+03,0.000000e+00
3.266824e+03,0.000000e+00
3.269717e+03,0.000000e+00
3.272610e+03,0.000000e+00
3.275503e+03,0.000000e+00
3.278395e+03,0.000000e+00
3.281288e+03,0.000000e+00
3.284181e+03,0.000000e+00
3.287073e+03,0.000000e+00
3.289966e+03,0.000000e+00
3.292859e+03,0.000000e+00
3.295751e+03,0.000000e+00
3.298644e+03,0.000000e+00
3.301537e+03,0.000000e+00
3.304430e+03,0.000000e+00
3.307322e+03,0.000000e+00
3.310215e+03,0.000000e+00
3.313108e+03,0.000000e+00
3.316000e+03,0.000000e+00
3.318893e+03,0.000000e+00
3.321786e+03,0.000000e+00
3.324678e+03,0.000000e+00
3.327571e+03,0.000000e+00
3.330464e+03,0.000000e+00
3.333357e+03,0.000000e+00
3.336249e+03,0.000000e+00
3.339142e+03,0.000000e+00
3.342035e+03,0.000000e+00
3.344927e+03,0.000000e+00
3.347820e+03,0.000000e+00
3.350713e+03,0.000000e+00
3.353605e+03,0.000000e+00
3.356498e+03,0.000000e+00
3.359391e+03,0.000000e+00
3.362284e+03,0.000000e+00
3.365176e+03,0.000000e+00
3.368069e+03,0.000000e+00
3.370962e+03,0.000000e+00
3.373854e+03,0.000000e+00
3.376747e+03,0.000000e+00
3.379640e+03,0.000000e+00
3.382532e+03,0.000000e+00
3.385425e+03,0.000000e+00
3.388318e+03,0.000000e+00
3.391211e+03,0.000000e+00
3.394103e+03,0.000000e+00
3.396996e+03,0.000000e+00
3.399889e+03,0.000000e+00
3.402781e+03,0.000000e+00
3.405674e+03,0.000000e+00
3.408567e+03,0.000000e+00
3.411459e+03,0.000000e+00
3.414352e+03,0.000000e+00
3.417245e+03,0.000000e+00
3.420138e+03,0.000000e+00
3.423030e+03,0.000000e+00
3.425923e+03,0.000000e+00
3.428816e+03,0.000000e+00
3.431708e+03,0.000000e+00
3.434601e+03,0.000000e+00
3.437494e+03,0.000000e+00
3.440386e+03,0.000000e+00
3.443279e+03,0.000000e+00
3.446172e+03,0.000000e+00
3.449065e+03,0.000000e+00
3.451957e+03,0.000000e+00
3.454850e+03,0.000000e+00
3.457743e+03,0.000000e+00
3.460635e+03,0.000000e+00
3.463528e+03,0.000000e+00
3.466421e+03,0.000000e+00
3.469313e+03,0.000000e+00
3.472206e+03,0.000000e+00
3.475099e+03,0.000000e+00
3.477992e+03,0.000000e+00
3.480884e+03,0.000000e+00
3.483777e+03,0.000000e+00
3.486670e+03,0.000000e+00
3.489563e+03,0.000000e+00
3.492455e+03,0.000000e+00
3.495348e+03,0.000000e+00
3.498240e+03,0.000000e+00
3.500169e+03,0.000000e+00