File: RAMAN_data/06022023_r2/bhlack fibre.CSV
9.931763e+01,0.000000e+00
1.022103e+02,0.000000e+00
1.051030e+02,0.000000e+00
1.079957e+02,0.000000e+00
1.108884e+02,0.000000e+00
1.137811e+02,0.000000e+00
1.166738e+02,0.000000e+00
1.195665e+02,0.000000e+00
1.224592e+02,0.000000e+00
1.253519e+02,0.000000e+00
1.282446e+02,0.000000e+00
1.311373e+02,0.000000e+00
1.340300e+02,0.000000e+00
1.369227e+02,0.000000e+00
1.398154e+02,0.000000e+00
1.427081e+02,0.000000e+00
1.456008e+02,0.000000e+00
1.484935e+02,0.000000e+00
1.513862e+02,0.000000e+00
1.542789e+02,0.000000e+00
1.571716e+02,0.000000e+00
1.600643e+02,0.000000e+00
1.629570e+02,0.000000e+00
1.658497e+02,0.000000e+00
1.687424e+02,0.000000e+00
1.716351e+02,0.000000e+00
1.745278e+02,0.000000e+00
1.774205e+02,0.000000e+00
1.803132e+02,0.000000e+00
1.832059e+02,0.000000e+00
1.860986e+02,0.000000e+00
1.889913e+02,0.000000e+00
1.918840e+02,0.000000e+00
1.947767e+02,0.000000e+00
1.976694e+02,0.000000e+00
2.005621e+02,1.657874e+03
2.034548e+02,1.663877e+03
2.063475e+02,1.676061e+03
2.092402e+02,1.664843e+03
2.121329e+02,1.675125e+03
2.150256e+02,1.670123e+03
2.179183e+02,1.676019e+03
2.208110e+02,1.684106e+03
2.237037e+02,1.684302e+03
2.265964e+02,1.685191e+03
2.294892e+02,1.680573e+03
2.323819e+02,1.685538e+03
2.352746e+02,1.698124e+03
2.381673e+02,1.699074e+03
2.410600e+02,1.681060e+03
2.439527e+02,1.692729e+03
2.468454e+02,1.697450e+03
2.497381e+02,1.701495e+03
2.526308e+02,1.711386e+03
2.555235e+02,1.706972e+03
2.584161e+02,1.705106e+03
2.613088e+02,1.722005e+03
2.642015e+02,1.724269e+03
2.670942e+02,1.722418e+03
2.699869e+02,1.725575e+03
2.728796e+02,1.726308e+03
2.757723e+02,1.726344e+03
2.786650e+02,1.733122e+03
2.815577e+02,1.751096e+03
2.844504e+02,1.743518e+03
2.873431e+02,1.745469e+03
2.902358e+02,1.751203e+03
2.931285e+02,1.749822e+03
2.960212e+02,1.748445e+03
2.989139e+02,1.748457e+03
3.018066e+02,1.750559e+03
3.046993e+02,1.755659e+03
3.075920e+02,1.758941e+03
3.104847e+02,1.755035e+03
3.133774e+02,1.760046e+03
3.162701e+02,1.771391e+03
3.191628e+02,1.764613e+03
3.220555e+02,1.775045e+03
3.249482e+02,1.785773e+03
3.278409e+02,1.786199e+03
3.307336e+02,1.777058e+03
3.336263e+02,1.776720e+03
3.365190e+02,1.780134e+03
3.394117e+02,1.789806e+03
3.423044e+02,1.792589e+03
3.451971e+02,1.789592e+03
3.480898e+02,1.789034e+03
3.509825e+02,1.790922e+03
3.538752e+02,1.792555e+03
3.567680e+02,1.796135e+03
3.596607e+02,1.804153e+03
3.625534e+02,1.805279e+03
3.654461e+02,1.802544e+03
3.683388e+02,1.798284e+03
3.712315e+02,1.810096e+03
3.741242e+02,1.825419e+03
3.770169e+02,1.825740e+03
3.799096e+02,1.836325e+03
3.828023e+02,1.823037e+03
3.856950e+02,1.799179e+03
3.885877e+02,1.808796e+03
3.914804e+02,1.799546e+03
3.943731e+02,1.800151e+03
3.972658e+02,1.799812e+03
4.001585e+02,1.801989e+03
4.030512e+02,1.820499e+03
4.059439e+02,1.805598e+03
4.088366e+02,1.819003e+03
4.117293e+02,1.814527e+03
4.146220e+02,1.805364e+03
4.175147e+02,1.798820e+03
4.204074e+02,1.827801e+03
4.233001e+02,1.817003e+03
4.261928e+02,1.802941e+03
4.290855e+02,1.814368e+03
4.319782e+02,1.831108e+03
4.348709e+02,1.843852e+03
4.377636e+02,1.844303e+03
4.406563e+02,1.842045e+03
4.435490e+02,1.828305e+03
4.464417e+02,1.833526e+03
4.493344e+02,1.836008e+03
4.522271e+02,1.836958e+03
4.551198e+02,1.831049e+03
4.580125e+02,1.832968e+03
4.609052e+02,1.829653e+03
4.637979e+02,1.820249e+03
4.666906e+02,1.826505e+03
4.695833e+02,1.821202e+03
4.724760e+02,1.816643e+03
4.753687e+02,1.825595e+03
4.782614e+02,1.820559e+03
4.811541e+02,1.813995e+03
4.840468e+02,1.824633e+03
4.869395e+02,1.818360e+03
4.898322e+02,1.827010e+03
4.927249e+02,1.827105e+03
4.956176e+02,1.831664e+03
4.985103e+02,1.829006e+03
5.014030e+02,1.834574e+03
5.042957e+02,1.831462e+03
5.071884e+02,1.831815e+03
5.100811e+02,1.829872e+03
5.129738e+02,1.834481e+03
5.158665e+02,1.846051e+03
5.187592e+02,1.858836e+03
5.216519e+02,1.839998e+03
5.245446e+02,1.841324e+03
5.274373e+02,1.849194e+03
5.303300e+02,1.841970e+03
5.332227e+02,1.826374e+03
5.361154e+02,1.826845e+03
5.390081e+02,1.831635e+03
5.419008e+02,1.845387e+03
5.447935e+02,1.830953e+03
5.476862e+02,1.828430e+03
5.505789e+02,1.826001e+03
5.534716e+02,1.818117e+03
5.563643e+02,1.811887e+03
5.592570e+02,1.821396e+03
5.621497e+02,1.845521e+03
5.650424e+02,1.833102e+03
5.679351e+02,1.821538e+03
5.708278e+02,1.825901e+03
5.737205e+02,1.830699e+03
5.766132e+02,1.824426e+03
5.795059e+02,1.828505e+03
5.823986e+02,1.823946e+03
5.852913e+02,1.808299e+03
5.881840e+02,1.822654e+03
5.910767e+02,1.833051e+03
5.939694e+02,1.827478e+03
5.968621e+02,1.818603e+03
5.997548e+02,1.809477e+03
6.026475e+02,1.815244e+03
6.055402e+02,1.831583e+03
6.084329e+02,1.832879e+03
6.113256e+02,1.830453e+03
6.142183e+02,1.832037e+03
6.171110e+02,1.813623e+03
6.200037e+02,1.824681e+03
6.228964e+02,1.823255e+03
6.257891e+02,1.818418e+03
6.286818e+02,1.816685e+03
6.315745e+02,1.822288e+03
6.344672e+02,1.819416e+03
6.373599e+02,1.803385e+03
6.402526e+02,1.817500e+03
6.431453e+02,1.820980e+03
6.460380e+02,1.820340e+03
6.489307e+02,1.829850e+03
6.518234e+02,1.815526e+03
6.547161e+02,1.817403e+03
6.576088e+02,1.819520e+03
6.605015e+02,1.803588e+03
6.633942e+02,1.803309e+03
6.662869e+02,1.813242e+03
6.691796e+02,1.816243e+03
6.720723e+02,1.810990e+03
6.749650e+02,1.809130e+03
6.778577e+02,1.788707e+03
6.807504e+02,1.815179e+03
6.836431e+02,1.810113e+03
6.865358e+02,1.799773e+03
6.894285e+02,1.803880e+03
6.923212e+02,1.808787e+03
6.952139e+02,1.802746e+03
6.981066e+02,1.797444e+03
7.009993e+02,1.801370e+03
7.038920e+02,1.799273e+03
7.067847e+02,1.791105e+03
7.096774e+02,1.803413e+03
7.125701e+02,1.813574e+03
7.154628e+02,1.797095e+03
7.183555e+02,1.798148e+03
7.212482e+02,1.793351e+03
7.241409e+02,1.788028e+03
7.270336e+02,1.785725e+03
7.299263e+02,1.778353e+03
7.328190e+02,1.779787e+03
7.357117e+02,1.776342e+03
7.386044e+02,1.784818e+03
7.414971e+02,1.774530e+03
7.443898e+02,1.778174e+03
7.472825e+02,1.786869e+03
7.501752e+02,1.791047e+03
7.530679e+02,1.780899e+03
7.559606e+02,1.773037e+03
7.588533e+02,1.765803e+03
7.617460e+02,1.774256e+03
7.646387e+02,1.774186e+03
7.675314e+02,1.772474e+03
7.704241e+02,1.768244e+03
7.733168e+02,1.770691e+03
7.762095e+02,1.775295e+03
7.791022e+02,1.762837e+03
7.819949e+02,1.780656e+03
7.848876e+02,1.764604e+03
7.877803e+02,1.765965e+03
7.906730e+02,1.765605e+03
7.935657e+02,1.771222e+03
7.964584e+02,1.768631e+03
7.993511e+02,1.768053e+03
8.022438e+02,1.763674e+03
8.051365e+02,1.763668e+03
8.080292e+02,1.759011e+03
8.109219e+02,1.758469e+03
8.138146e+02,1.762690e+03
8.167073e+02,1.759435e+03
8.196000e+02,1.759430e+03
8.224927e+02,1.761168e+03
8.253854e+02,1.745629e+03
8.282781e+02,1.750238e+03
8.311708e+02,1.755453e+03
8.340635e+02,1.749678e+03
8.369562e+02,1.751680e+03
8.398489e+02,1.760739e+03
8.427416e+02,1.754464e+03
8.456343e+02,1.752039e+03
8.485270e+02,1.746838e+03
8.514197e+02,1.746925e+03
8.543124e+02,1.744530e+03
8.572051e+02,1.745140e+03
8.600978e+02,1.737193e+03
8.629905e+02,1.747019e+03
8.658832e+02,1.732052e+03
8.687759e+02,1.732485e+03
8.716686e+02,1.734678e+03
8.745613e+02,1.747202e+03
8.774540e+02,1.745882e+03
8.803467e+02,1.752586e+03
8.832394e+02,1.748857e+03
8.861321e+02,1.751013e+03
8.890248e+02,1.741664e+03
8.919175e+02,1.721771e+03
8.948102e+02,1.743236e+03
8.977029e+02,1.729647e+03
9.005956e+02,1.735398e+03
9.034883e+02,1.721668e+03
9.063810e+02,1.726403e+03
9.092737e+02,1.726716e+03
9.121664e+02,1.727715e+03
9.150591e+02,1.720889e+03
9.179518e+02,1.716898e+03
9.208445e+02,1.722462e+03
9.237372e+02,1.710492e+03
9.266299e+02,1.708498e+03
9.295226e+02,1.715704e+03
9.324153e+02,1.708198e+03
9.353080e+02,1.705115e+03
9.382007e+02,1.709227e+03
9.410934e+02,1.708751e+03
9.439861e+02,1.698774e+03
9.468788e+02,1.703173e+03
9.497715e+02,1.708771e+03
9.526642e+02,1.692357e+03
9.555569e+02,1.706556e+03
9.584496e+02,1.705343e+03
9.613423e+02,1.706662e+03
9.642350e+02,1.702809e+03
9.671277e+02,1.692878e+03
9.700204e+02,1.686633e+03
9.729131e+02,1.684221e+03
9.758058e+02,1.695501e+03
9.786985e+02,1.691370e+03
9.815912e+02,1.695682e+03
9.844839e+02,1.683461e+03
9.873766e+02,1.688609e+03
9.902693e+02,1.688563e+03
9.931620e+02,1.685841e+03
9.960547e+02,1.692734e+03
9.989474e+02,1.690541e+03
1.001840e+03,1.675023e+03
1.004733e+03,1.674203e+03
1.007626e+03,1.679411e+03
1.010518e+03,1.673333e+03
1.013411e+03,1.670808e+03
1.016304e+03,1.667939e+03
1.019196e+03,1.672819e+03
1.022089e+03,1.679436e+03
1.024982e+03,1.668101e+03
1.027875e+03,1.668588e+03
1.030767e+03,1.659705e+03
1.033660e+03,1.674646e+03
1.036552e+03,1.668078e+03
1.039445e+03,1.680998e+03
1.042338e+03,1.659936e+03
1.045231e+03,1.670094e+03
1.048123e+03,1.664221e+03
1.051016e+03,1.669132e+03
1.053909e+03,1.657879e+03
1.056802e+03,1.660005e+03
1.059694e+03,1.659616e+03
1.062587e+03,1.657494e+03
1.065479e+03,1.651945e+03
1.068372e+03,1.662079e+03
1.071265e+03,1.669193e+03
1.074158e+03,1.668002e+03
1.077050e+03,1.664795e+03
1.079943e+03,1.662674e+03
1.082836e+03,1.669000e+03
1.085729e+03,1.671036e+03
1.088621e+03,1.688374e+03
1.091514e+03,1.696887e+03
1.094406e+03,1.701832e+03
1.097299e+03,1.682777e+03
1.100192e+03,1.675439e+03
1.103085e+03,1.666373e+03
1.105977e+03,1.656370e+03
1.108870e+03,1.658040e+03
1.111763e+03,1.666084e+03
1.114656e+03,1.663822e+03
1.117548e+03,1.668291e+03
1.120441e+03,1.668451e+03
1.123334e+03,1.662111e+03
1.126226e+03,1.652809e+03
1.129119e+03,1.638314e+03
1.132012e+03,1.641638e+03
1.134904e+03,1.629121e+03
1.137797e+03,1.628463e+03
1.140690e+03,1.624892e+03
1.143583e+03,1.619838e+03
1.146475e+03,1.629698e+03
1.149368e+03,1.629944e+03
1.152261e+03,1.632406e+03
1.155153e+03,1.615232e+03
1.158046e+03,1.601416e+03
1.160939e+03,1.615380e+03
1.163831e+03,1.619701e+03
1.166724e+03,1.610099e+03
1.169617e+03,1.594660e+03
1.172510e+03,1.606499e+03
1.175402e+03,1.589453e+03
1.178295e+03,1.604995e+03
1.181188e+03,1.602474e+03
1.184080e+03,1.590875e+03
1.186973e+03,1.597633e+03
1.189866e+03,1.587282e+03
1.192758e+03,1.604339e+03
1.195651e+03,1.591203e+03
1.198544e+03,1.594681e+03
1.201437e+03,1.594868e+03
1.204329e+03,1.591563e+03
1.207222e+03,1.593707e+03
1.210115e+03,1.595665e+03
1.213007e+03,1.591793e+03
1.215900e+03,1.593271e+03
1.218793e+03,1.595532e+03
1.221685e+03,1.589493e+03
1.224578e+03,1.588054e+03
1.227471e+03,1.606462e+03
1.230364e+03,1.598013e+03
1.233256e+03,1.589940e+03
1.236149e+03,1.592449e+03
1.239042e+03,1.595835e+03
1.241934e+03,1.586785e+03
1.244827e+03,1.585249e+03
1.247720e+03,1.597572e+03
1.250612e+03,1.581595e+03
1.253505e+03,1.591883e+03
1.256398e+03,1.590060e+03
1.259291e+03,1.593205e+03
1.262183e+03,1.587558e+03
1.265076e+03,1.581541e+03
1.267969e+03,1.587134e+03
1.270861e+03,1.584453e+03
1.273754e+03,1.578884e+03
1.276647e+03,1.584938e+03
1.279539e+03,1.589962e+03
1.282432e+03,1.586158e+03
1.285325e+03,1.584506e+03
1.288218e+03,1.589585e+03
1.291110e+03,1.593852e+03
1.294003e+03,1.580372e+03
1.296896e+03,1.582619e+03
1.299788e+03,1.577636e+03
1.302681e+03,1.582117e+03
1.305574e+03,1.575298e+03
1.308466e+03,1.587138e+03
1.311359e+03,1.582071e+03
1.314252e+03,1.573038e+03
1.317145e+03,1.579097e+03
1.320037e+03,1.586406e+03
1.322930e+03,1.586339e+03
1.325823e+03,1.587708e+03
1.328715e+03,1.602842e+03
1.331608e+03,1.602525e+03
1.334501e+03,1.608770e+03
1.337393e+03,1.600380e+03
1.340286e+03,1.614820e+03
1.343179e+03,1.598127e+03
1.346072e+03,1.601736e+03
1.348964e+03,1.597303e+03
1.351857e+03,1.598989e+03
1.354750e+03,1.595374e+03
1.357642e+03,1.596792e+03
1.360535e+03,1.611255e+03
1.363428e+03,1.602557e+03
1.366320e+03,1.622499e+03
1.369213e+03,1.621086e+03
1.372106e+03,1.615217e+03
1.374999e+03,1.622355e+03
1.377891e+03,1.622119e+03
1.380784e+03,1.617267e+03
1.383677e+03,1.610552e+03
1.386569e+03,1.600390e+03
1.389462e+03,1.587938e+03
1.392355e+03,1.583128e+03
1.395247e+03,1.579135e+03
1.398140e+03,1.597839e+03
1.401033e+03,1.582577e+03
1.403926e+03,1.581579e+03
1.406818e+03,1.580418e+03
1.409711e+03,1.583781e+03
1.412604e+03,1.576833e+03
1.415496e+03,1.573840e+03
1.418389e+03,1.566397e+03
1.421282e+03,1.554941e+03
1.424174e+03,1.564320e+03
1.427067e+03,1.566429e+03
1.429960e+03,1.552058e+03
1.432853e+03,1.552271e+03
1.435745e+03,1.555604e+03
1.438638e+03,1.549667e+03
1.441531e+03,1.547224e+03
1.444423e+03,1.545175e+03
1.447316e+03,1.559596e+03
1.450209e+03,1.545281e+03
1.453101e+03,1.547464e+03
1.455994e+03,1.535591e+03
1.458887e+03,1.530952e+03
1.461780e+03,1.543129e+03
1.464672e+03,1.528621e+03
1.467565e+03,1.531320e+03
1.470458e+03,1.525147e+03
1.473350e+03,1.524948e+03
1.476243e+03,1.527265e+03
1.479136e+03,1.515138e+03
1.482028e+03,1.516184e+03
1.484921e+03,1.498249e+03
1.487814e+03,1.505906e+03
1.490707e+03,1.496486e+03
1.493599e+03,1.504740e+03
1.496492e+03,1.507019e+03
1.499385e+03,1.502655e+03
1.502277e+03,1.491873e+03
1.505170e+03,1.502688e+03
1.508063e+03,1.501569e+03
1.510955e+03,1.498881e+03
1.513848e+03,1.488126e+03
1.516741e+03,1.497483e+03
1.519634e+03,1.489908e+03
1.522526e+03,1.484129e+03
1.525419e+03,1.490347e+03
1.528312e+03,1.478462e+03
1.531204e+03,1.469454e+03
1.534097e+03,1.479902e+03
1.536990e+03,1.484181e+03
1.539882e+03,1.482531e+03
1.542775e+03,1.483210e+03
1.545668e+03,1.473851e+03
1.548561e+03,1.468467e+03
1.551453e+03,1.475188e+03
1.554346e+03,1.476410e+03
1.557239e+03,1.467820e+03
1.560131e+03,1.471884e+03
1.563024e+03,1.468424e+03
1.565917e+03,1.456597e+03
1.568809e+03,1.471626e+03
1.571702e+03,1.455980e+03
1.574595e+03,1.453996e+03
1.577488e+03,1.464666e+03
1.580380e+03,1.453443e+03
1.583273e+03,1.450561e+03
1.586166e+03,1.459032e+03
1.589058e+03,1.443531e+03
1.591951e+03,1.445167e+03
1.594844e+03,1.448381e+03
1.597736e+03,1.446671e+03
1.600629e+03,1.439415e+03
1.603522e+03,1.438939e+03
1.606415e+03,1.426227e+03
1.609307e+03,1.440045e+03
1.612200e+03,1.426382e+03
1.615093e+03,1.430122e+03
1.617985e+03,1.435583e+03
1.620878e+03,1.427930e+03
1.623771e+03,1.420387e+03
1.626663e+03,1.425301e+03
1.629556e+03,1.411925e+03
1.632449e+03,1.412785e+03
1.635342e+03,1.425743e+03
1.638234e+03,1.407464e+03
1.641127e+03,1.407967e+03
1.644020e+03,1.407765e+03
1.646912e+03,1.409107e+03
1.649805e+03,1.408271e+03
1.652698e+03,1.419618e+03
1.655590e+03,1.402069e+03
1.658483e+03,1.394197e+03
1.661376e+03,1.395953e+03
1.664269e+03,1.391329e+03
1.667161e+03,1.397344e+03
1.670054e+03,1.390972e+03
1.672947e+03,1.389566e+03
1.675839e+03,1.389858e+03
1.678732e+03,1.389696e+03
1.681625e+03,1.383108e+03
1.684517e+03,1.398086e+03
1.687410e+03,1.375602e+03
1.690303e+03,1.387766e+03
1.693196e+03,1.380561e+03
1.696088e+03,1.373813e+03
1.698981e+03,1.372903e+03
1.701874e+03,1.374515e+03
1.704766e+03,1.370218e+03
1.707659e+03,1.372694e+03
1.710552e+03,1.378738e+03
1.713444e+03,1.372186e+03
1.716337e+03,1.364305e+03
1.719230e+03,1.361777e+03
1.722123e+03,1.378741e+03
1.725015e+03,1.366400e+03
1.727908e+03,1.374094e+03
1.730801e+03,1.360910e+03
1.733693e+03,1.362501e+03
1.736586e+03,1.361225e+03
1.739479e+03,1.355867e+03
1.742371e+03,1.346860e+03
1.745264e+03,1.348034e+03
1.748157e+03,1.337998e+03
1.751050e+03,1.340141e+03
1.753942e+03,1.354712e+03
1.756835e+03,1.349370e+03
1.759728e+03,1.338248e+03
1.762620e+03,1.342228e+03
1.765513e+03,1.343941e+03
1.768406e+03,1.343306e+03
1.771298e+03,1.328314e+03
1.774191e+03,1.327815e+03
1.777084e+03,1.332644e+03
1.779977e+03,1.339033e+03
1.782869e+03,1.321235e+03
1.785762e+03,1.325570e+03
1.788655e+03,1.323167e+03
1.791547e+03,1.310689e+03
1.794440e+03,1.327601e+03
1.797333e+03,1.312515e+03
1.800225e+03,1.319143e+03
1.803118e+03,1.312786e+03
1.806011e+03,1.312074e+03
1.808904e+03,1.312605e+03
1.811796e+03,1.325358e+03
1.814689e+03,1.315460e+03
1.817582e+03,1.306303e+03
1.820474e+03,1.307037e+03
1.823367e+03,1.297797e+03
1.826260e+03,1.320541e+03
1.829152e+03,1.308450e+03
1.832045e+03,1.305065e+03
1.834938e+03,1.299852e+03
1.837831e+03,1.288499e+03
1.840723e+03,1.299642e+03
1.843616e+03,1.287504e+03
1.846509e+03,1.286783e+03
1.849401e+03,1.286263e+03
1.852294e+03,1.278739e+03
1.855187e+03,1.292764e+03
1.858079e+03,1.282811e+03
1.860972e+03,1.290652e+03
1.863865e+03,1.278733e+03
1.866758e+03,1.278030e+03
1.869650e+03,1.265900e+03
1.872543e+03,1.277958e+03
1.875436e+03,1.275312e+03
1.878328e+03,1.267191e+03
1.881221e+03,1.258427e+03
1.884114e+03,1.271887e+03
1.887006e+03,1.262531e+03
1.889899e+03,1.272399e+03
1.892792e+03,1.250076e+03
1.895685e+03,1.268047e+03
1.898577e+03,1.250209e+03
1.901470e+03,1.251105e+03
1.904363e+03,1.253038e+03
1.907255e+03,1.257056e+03
1.910148e+03,1.243312e+03
1.913041e+03,1.248157e+03
1.915933e+03,1.242815e+03
1.918826e+03,1.231466e+03
1.921719e+03,1.254371e+03
1.924612e+03,1.231483e+03
1.927504e+03,1.229629e+03
1.930397e+03,1.245633e+03
1.933290e+03,1.228209e+03
1.936182e+03,1.230336e+03
1.939075e+03,1.234184e+03
1.941968e+03,1.229479e+03
1.944860e+03,1.213861e+03
1.947753e+03,1.215865e+03
1.950646e+03,1.225631e+03
1.953539e+03,1.218299e+03
1.956431e+03,1.208781e+03
1.959324e+03,1.222960e+03
1.962217e+03,1.209386e+03
1.965109e+03,1.211026e+03
1.968002e+03,1.213543e+03
1.970895e+03,1.212368e+03
1.973787e+03,1.204649e+03
1.976680e+03,1.215187e+03
1.979573e+03,1.195297e+03
1.982466e+03,1.198128e+03
1.985358e+03,1.203199e+03
1.988251e+03,1.201215e+03
1.991144e+03,1.182719e+03
1.994036e+03,1.186220e+03
1.996929e+03,1.192020e+03
1.999822e+03,1.174999e+03
2.002714e+03,1.209902e+03
2.005607e+03,1.189235e+03
2.008500e+03,1.174276e+03
2.011393e+03,1.174970e+03
2.014285e+03,1.174218e+03
2.017178e+03,1.185838e+03
2.020071e+03,1.170211e+03
2.022963e+03,1.177143e+03
2.025856e+03,1.168407e+03
2.028749e+03,1.158808e+03
2.031641e+03,1.160685e+03
2.034534e+03,1.165716e+03
2.037427e+03,1.145681e+03
2.040320e+03,1.156465e+03
2.043212e+03,1.147927e+03
2.046105e+03,1.159506e+03
2.048998e+03,1.146577e+03
2.051890e+03,1.145332e+03
2.054783e+03,1.138163e+03
2.057676e+03,1.148186e+03
2.060568e+03,1.145585e+03
2.063461e+03,1.142012e+03
2.066354e+03,1.147733e+03
2.069247e+03,1.135124e+03
2.072139e+03,1.114102e+03
2.075032e+03,1.141909e+03
2.077925e+03,1.137518e+03
2.080817e+03,1.122915e+03
2.083710e+03,1.112385e+03
2.086603e+03,1.104827e+03
2.089496e+03,1.138533e+03
2.092388e+03,1.100780e+03
2.095281e+03,1.126186e+03
2.098174e+03,1.119970e+03
2.101066e+03,1.125790e+03
2.103959e+03,1.099576e+03
2.106852e+03,1.115735e+03
2.109744e+03,1.090664e+03
2.112637e+03,1.093680e+03
2.115530e+03,1.100964e+03
2.118422e+03,1.092405e+03
2.121315e+03,1.087862e+03
2.124208e+03,1.097158e+03
2.127101e+03,1.092994e+03
2.129993e+03,1.092383e+03
2.132886e+03,1.094093e+03
2.135779e+03,1.089183e+03
2.138671e+03,1.082678e+03
2.141564e+03,1.096560e+03
2.144457e+03,1.077225e+03
2.147350e+03,1.062001e+03
2.150242e+03,1.082307e+03
2.153135e+03,1.084787e+03
2.156028e+03,1.072986e+03
2.158920e+03,1.066306e+03
2.161813e+03,1.061314e+03
2.164706e+03,1.064736e+03
2.167598e+03,1.065854e+03
2.170491e+03,1.072971e+03
2.173384e+03,1.057737e+03
2.176277e+03,1.057821e+03
2.179169e+03,1.057831e+03
2.182062e+03,1.061881e+03
2.184955e+03,1.056743e+03
2.187847e+03,1.035977e+03
2.190740e+03,1.045898e+03
2.193633e+03,1.036485e+03
2.196525e+03,1.049412e+03
2.199418e+03,1.035866e+03
2.202311e+03,1.024781e+03
2.205204e+03,1.027559e+03
2.208096e+03,1.034802e+03
2.210989e+03,1.022138e+03
2.213882e+03,1.032573e+03
2.216774e+03,1.033261e+03
2.219667e+03,1.027918e+03
2.222560e+03,1.016485e+03
2.225452e+03,1.006828e+03
2.228345e+03,1.010800e+03
2.231238e+03,1.023439e+03
2.234131e+03,1.007601e+03
2.237023e+03,1.012702e+03
2.239916e+03,1.003717e+03
2.242809e+03,1.002691e+03
2.245701e+03,1.012249e+03
2.248594e+03,9.952998e+02
2.251487e+03,9.974915e+02
2.254379e+03,1.001814e+03
2.257272e+03,9.903463e+02
2.260165e+03,9.827609e+02
2.263058e+03,9.973307e+02
2.265950e+03,9.796005e+02
2.268843e+03,9.819254e+02
2.271736e+03,9.760125e+02
2.274628e+03,9.781224e+02
2.277521e+03,9.814435e+02
2.280414e+03,9.757041e+02
2.283306e+03,9.768951e+02
2.286199e+03,9.755782e+02
2.289092e+03,9.770746e+02
2.291985e+03,9.646788e+02
2.294877e+03,9.564734e+02
2.297770e+03,9.760560e+02
2.300663e+03,9.630173e+02
2.303555e+03,9.670935e+02
2.306448e+03,9.695242e+02
2.309341e+03,9.623594e+02
2.312233e+03,9.501710e+02
2.315126e+03,9.537810e+02
2.318019e+03,9.436457e+02
2.320912e+03,9.498175e+02
2.323804e+03,9.481035e+02
2.326697e+03,9.697357e+02
2.329590e+03,9.485207e+02
2.332482e+03,9.434647e+02
2.335375e+03,9.446717e+02
2.338268e+03,9.353586e+02
2.341160e+03,9.297208e+02
2.344053e+03,9.392389e+02
2.346946e+03,9.374910e+02
2.349839e+03,9.346790e+02
2.352731e+03,9.346744e+02
2.355624e+03,9.181758e+02
2.358517e+03,9.324900e+02
2.361409e+03,9.360461e+02
2.364302e+03,9.275016e+02
2.367195e+03,9.054580e+02
2.370087e+03,9.247493e+02
2.372980e+03,9.142000e+02
2.375873e+03,9.271702e+02
2.378766e+03,9.143102e+02
2.381658e+03,9.000209e+02
2.384551e+03,9.230343e+02
2.387444e+03,9.132832e+02
2.390336e+03,9.155081e+02
2.393229e+03,9.092338e+02
2.396122e+03,9.137896e+02
2.399014e+03,8.957612e+02
2.401907e+03,8.970258e+02
2.404800e+03,9.081601e+02
2.407693e+03,8.867162e+02
2.410585e+03,8.975486e+02
2.413478e+03,8.796195e+02
2.416371e+03,8.872227e+02
2.419263e+03,8.791517e+02
2.422156e+03,8.928954e+02
2.425049e+03,8.735637e+02
2.427941e+03,8.924432e+02
2.430834e+03,8.703126e+02
2.433727e+03,8.811271e+02
2.436620e+03,8.798718e+02
2.439512e+03,8.680289e+02
2.442405e+03,8.681170e+02
2.445298e+03,8.771631e+02
2.448190e+03,8.746440e+02
2.451083e+03,8.740154e+02
2.453976e+03,8.652584e+02
2.456868e+03,8.675978e+02
2.459761e+03,8.634778e+02
2.462654e+03,8.575750e+02
2.465547e+03,8.535801e+02
2.468439e+03,8.633405e+02
2.471332e+03,8.613552e+02
2.474225e+03,8.567173e+02
2.477117e+03,8.533856e+02
2.480010e+03,8.613809e+02
2.482903e+03,8.681500e+02
2.485795e+03,8.639028e+02
2.488688e+03,8.478610e+02
2.491581e+03,8.497452e+02
2.494474e+03,8.481611e+02
2.497366e+03,8.493215e+02
2.500259e+03,8.529715e+02
2.503152e+03,8.384418e+02
2.506044e+03,8.380735e+02
2.508937e+03,8.355395e+02
2.511830e+03,8.497902e+02
2.514722e+03,8.190804e+02
2.517615e+03,8.373292e+02
2.520508e+03,8.326507e+02
2.523401e+03,8.335284e+02
2.526293e+03,8.316783e+02
2.529186e+03,8.174223e+02
2.532079e+03,8.370887e+02
2.534971e+03,8.213618e+02
2.537864e+03,8.325997e+02
2.540757e+03,8.181332e+02
2.543649e+03,8.179318e+02
2.546542e+03,8.248665e+02
2.549435e+03,8.289243e+02
2.552328e+03,8.255425e+02
2.555220e+03,8.201425e+02
2.558113e+03,8.274025e+02
2.561006e+03,8.225771e+02
2.563898e+03,8.171024e+02
2.566791e+03,8.026819e+02
2.569684e+03,8.161376e+02
2.572576e+03,8.023978e+02
2.575469e+03,8.118625e+02
2.578362e+03,7.959968e+02
2.581255e+03,8.084072e+02
2.584147e+03,7.902111e+02
2.587040e+03,7.973473e+02
2.589933e+03,8.051134e+02
2.592825e+03,8.007678e+02
2.595718e+03,8.081017e+02
2.598611e+03,7.851035e+02
2.601503e+03,8.007888e+02
2.604396e+03,7.957500e+02
2.607289e+03,7.953487e+02
2.610182e+03,8.001732e+02
2.613074e+03,7.900024e+02
2.615967e+03,7.911583e+02
2.618860e+03,7.746590e+02
2.621752e+03,7.926893e+02
2.624645e+03,7.959444e+02
2.627538e+03,7.967761e+02
2.630430e+03,7.716131e+02
2.633323e+03,7.867268e+02
2.636216e+03,7.770616e+02
2.639109e+03,7.805381e+02
2.642001e+03,7.863160e+02
2.644894e+03,7.665240e+02
2.647787e+03,7.614696e+02
2.650679e+03,7.745922e+02
2.653572e+03,7.798576e+02
2.656465e+03,7.811019e+02
2.659357e+03,7.702728e+02
2.662250e+03,7.689955e+02
2.665143e+03,7.745069e+02
2.668036e+03,7.666763e+02
2.670928e+03,7.829407e+02
2.673821e+03,7.593291e+02
2.676714e+03,7.638201e+02
2.679606e+03,7.644860e+02
2.682499e+03,7.684725e+02
2.685392e+03,7.591299e+02
2.688284e+03,7.607784e+02
2.691177e+03,7.571053e+02
2.694070e+03,7.658937e+02
2.696963e+03,7.482320e+02
2.699855e+03,7.557324e+02
2.702748e+03,7.539885e+02
2.705641e+03,7.613744e+02
2.708533e+03,7.540505e+02
2.711426e+03,7.486505e+02
2.714319e+03,7.527418e+02
2.717211e+03,7.541200e+02
2.720104e+03,7.665486e+02
2.722997e+03,7.496756e+02
2.725890e+03,7.502405e+02
2.728782e+03,7.466461e+02
2.731675e+03,7.358091e+02
2.734568e+03,7.366322e+02
2.737460e+03,7.521968e+02
2.740353e+03,7.256512e+02
2.743246e+03,7.417680e+02
2.746138e+03,7.506862e+02
2.749031e+03,7.319579e+02
2.751924e+03,7.485826e+02
2.754817e+03,7.315634e+02
2.757709e+03,7.348485e+02
2.760602e+03,7.278275e+02
2.763495e+03,7.416271e+02
2.766387e+03,7.160740e+02
2.769280e+03,7.077084e+02
2.772173e+03,7.278695e+02
2.775065e+03,7.403585e+02
2.777958e+03,7.288528e+02
2.780851e+03,7.104158e+02
2.783744e+03,7.360207e+02
2.786636e+03,7.064268e+02
2.789529e+03,7.094631e+02
2.792422e+03,7.150372e+02
2.795314e+03,7.260901e+02
2.798207e+03,7.212638e+02
2.801100e+03,7.365560e+02
2.803992e+03,7.342610e+02
2.806885e+03,7.300012e+02
2.809778e+03,7.193928e+02
2.812671e+03,7.108028e+02
2.815563e+03,7.137055e+02
2.818456e+03,7.076823e+02
2.821349e+03,7.133753e+02
2.824241e+03,6.908138e+02
2.827134e+03,7.212248e+02
2.830027e+03,7.189154e+02
2.832919e+03,7.139508e+02
2.835812e+03,7.077052e+02
2.838705e+03,7.086102e+02
2.841598e+03,7.083414e+02
2.844490e+03,7.132125e+02
2.847383e+03,7.224440e+02
2.850276e+03,7.243278e+02
2.853168e+03,7.201505e+02
2.856061e+03,7.261027e+02
2.858954e+03,7.139562e+02
2.861846e+03,7.168034e+02
2.864739e+03,7.187165e+02
2.867632e+03,7.262712e+02
2.870525e+03,7.168741e+02
2.873417e+03,7.180004e+02
2.876310e+03,7.208326e+02
2.879203e+03,7.197157e+02
2.882095e+03,7.142169e+02
2.884988e+03,7.087845e+02
2.887881e+03,7.334166e+02
2.890773e+03,7.238480e+02
2.893666e+03,7.220248e+02
2.896559e+03,7.244616e+02
2.899452e+03,7.207075e+02
2.902344e+03,7.193503e+02
2.905237e+03,7.030463e+02
2.908130e+03,7.185372e+02
2.911022e+03,7.336768e+02
2.913915e+03,7.165028e+02
2.916808e+03,6.964114e+02
2.919700e+03,7.105500e+02
2.922593e+03,6.914869e+02
2.925486e+03,6.978340e+02
2.928379e+03,6.795391e+02
2.931271e+03,7.003264e+02
2.934164e+03,6.944024e+02
2.937057e+03,6.999598e+02
2.939949e+03,6.889641e+02
2.942842e+03,6.939078e+02
2.945735e+03,7.223514e+02
2.948627e+03,6.882914e+02
2.951520e+03,6.968826e+02
2.954413e+03,6.518333e+02
2.957306e+03,7.113454e+02
2.960198e+03,6.905943e+02
2.963091e+03,6.860194e+02
2.965984e+03,6.700021e+02
2.968876e+03,6.863201e+02
2.971769e+03,6.817031e+02
2.974662e+03,6.586561e+02
2.977554e+03,6.492242e+02
2.980447e+03,6.550480e+02
2.983340e+03,6.560352e+02
2.986233e+03,6.530263e+02
2.989125e+03,6.323688e+02
2.992018e+03,6.521078e+02
2.994911e+03,6.155842e+02
2.997803e+03,6.354594e+02
3.000696e+03,6.423112e+02
3.003589e+03,6.370090e+02
3.006481e+03,6.372688e+02
3.009374e+03,6.334426e+02
3.012267e+03,6.589473e+02
3.015160e+03,6.244205e+02
3.018052e+03,6.047078e+02
3.020945e+03,6.513108e+02
3.023838e+03,6.338217e+02
3.026730e+03,6.351817e+02
3.029623e+03,6.223063e+02
3.032516e+03,6.165201e+02
3.035408e+03,6.150318e+02
3.038301e+03,6.362302e+02
3.041194e+03,6.171951e+02
3.044087e+03,6.157535e+02
3.046979e+03,6.370458e+02
3.049872e+03,6.235828e+02
3.052765e+03,6.091480e+02
3.055657e+03,5.941383e+02
3.058550e+03,6.282018e+02
3.061443e+03,6.411005e+02
3.064335e+03,6.201525e+02
3.067228e+03,6.131666e+02
3.070121e+03,6.299564e+02
3.073014e+03,6.164404e+02
3.075906e+03,6.137855e+02
3.078799e+03,6.175856e+02
3.081692e+03,5.799565e+02
3.084584e+03,6.312921e+02
3.087477e+03,6.023074e+02
3.090370e+03,6.154211e+02
3.093262e+03,6.084681e+02
3.096155e+03,6.333232e+02
3.099048e+03,5.968013e+02
3.101941e+03,6.437747e+02
3.104833e+03,6.308245e+02
3.107726e+03,6.039340e+02
3.110619e+03,6.046279e+02
3.113511e+03,6.053622e+02
3.116404e+03,6.216239e+02
3.119297e+03,5.925061e+02
3.122189e+03,6.191573e+02
3.125082e+03,6.293547e+02
3.127975e+03,6.200585e+02
3.130868e+03,6.363887e+02
3.133760e+03,6.176818e+02
3.136653e+03,5.839948e+02
3.139546e+03,6.190586e+02
3.142438e+03,6.229564e+02
3.145331e+03,5.742331e+02
3.148224e+03,6.246439e+02
3.151116e+03,6.048333e+02
3.154009e+03,6.300869e+02
3.156902e+03,6.216062e+02
3.159795e+03,5.799866e+02
3.162687e+03,6.295099e+02
3.165580e+03,6.028542e+02
3.168473e+03,6.214699e+02
3.171365e+03,5.895837e+02
3.174258e+03,5.801042e+02
3.177151e+03,5.852701e+02
3.180043e+03,5.936514e+02
3.182936e+03,6.172415e+02
3.185829e+03,5.954434e+02
3.188722e+03,6.317745e+02
3.191614e+03,5.952712e+02
3.194507e+03,6.106031e+02
3.197400e+03,5.581937e+02
3.200292e+03,6.087726e+02
3.203185e+03,0.000000e+00
3.206078e+03,0.000000e+00
3.208970e+03,0.000000e+00
3.211863e+03,0.000000e+00
3.214756e+03,0.000000e+00
3.217649e+03,0.000000e+00
3.220541e+03,0.000000e+00
3.223434e+03,0.000000e+00
3.226327e+03,0.000000e+00
3.229219e+03,0.000000e+00
3.232112e+03,0.000000e+00
3.235005e+03,0.000000e+00
3.237897e+03,0.000000e+00
3.240790e+03,0.000000e+00
3.243683e+03,0.000000e+00
3.246576e+03,0.000000e+00
3.249468e+03,0.000000e+00
3.252361e+03,0.000000e+00
3.255254e+03,0.000000e+00
3.258146e+03,0.000000e+00
3.261039e+03,0.000000e+00
3.263932e+03,0.000000e+00
3.266824e+03,0.000000e+00
3.269717e+03,0.000000e+00
3.272610e+03,0.000000e+00
3.275503e+03,0.000000e+00
3.278395e+03,0.000000e+00
3.281288e+03,0.000000e+00
3.284181e+03,0.000000e+00
3.287073e+03,0.000000e+00
3.289966e+03,0.000000e+00
3.292859e+03,0.000000e+00
3.295751e+03,0.000000e+00
3.298644e+03,0.000000e+00
3.301537e+03,0.000000e+00
3.304430e+03,0.000000e+00
3.307322e+03,0.000000e+00
3.310215e+03,0.000000e+00
3.313108e+03,0.000000e+00
3.316000e+03,0.000000e+00
3.318893e+03,0.000000e+00
3.321786e+03,0.000000e+00
3.324678e+03,0.000000e+00
3.327571e+03,0.000000e+00
3.330464e+03,0.000000e+00
3.333357e+03,0.000000e+00
3.336249e+03,0.000000e+00
3.339142e+03,0.000000e+00
3.342035e+03,0.000000e+00
3.344927e+03,0.000000e+00
3.347820e+03,0.000000e+00
3.350713e+03,0.000000e+00
3.353605e+03,0.000000e+00
3.356498e+03,0.000000e+00
3.359391e+03,0.000000e+00
3.362284e+03,0.000000e+00
3.365176e+03,0.000000e+00
3.368069e+03,0.000000e+00
3.370962e+03,0.000000e+00
3.373854e+03,0.000000e+00
3.376747e+03,0.000000e+00
3.379640e+03,0.000000e+00
3.382532e+03,0.000000e+00
3.385425e+03,0.000000e+00
3.388318e+03,0.000000e+00
3.391211e+03,0.000000e+00
3.394103e+03,0.000000e+00
3.396996e+03,0.000000e+00
3.399889e+03,0.000000e+00
3.402781e+03,0.000000e+00
3.405674e+03,0.000000e+00
3.408567e+03,0.000000e+00
3.411459e+03,0.000000e+00
3.414352e+03,0.000000e+00
3.417245e+03,0.000000e+00
3.420138e+03,0.000000e+00
3.423030e+03,0.000000e+00
3.425923e+03,0.000000e+00
3.428816e+03,0.000000e+00
3.431708e+03,0.000000e+00
3.434601e+03,0.000000e+00
3.437494e+03,0.000000e+00
3.440386e+03,0.000000e+00
3.443279e+03,0.000000e+00
3.446172e+03,0.000000e+00
3.449065e+03,0.000000e+00
3.451957e+03,0.000000e+00
3.454850e+03,0.000000e+00
3.457743e+03,0.000000e+00
3.460635e+03,0.000000e+00
3.463528e+03,0.000000e+00
3.466421e+03,0.000000e+00
3.469313e+03,0.000000e+00
3.472206e+03,0.000000e+00
3.475099e+03,0.000000e+00
3.477992e+03,0.000000e+00
3.480884e+03,0.000000e+00
3.483777e+03,0.000000e+00
3.486670e+03,0.000000e+00
3.489563e+03,0.000000e+00
3.492455e+03,0.000000e+00
3.495348e+03,0.000000e+00
3.498240e+03,0.000000e+00
3.500169e+03,0.000000e+00