File: RAMAN_data/06022023_r2/black fibre7.CSV
9.931763e+01,0.000000e+00
1.022103e+02,0.000000e+00
1.051030e+02,0.000000e+00
1.079957e+02,0.000000e+00
1.108884e+02,0.000000e+00
1.137811e+02,0.000000e+00
1.166738e+02,0.000000e+00
1.195665e+02,0.000000e+00
1.224592e+02,0.000000e+00
1.253519e+02,0.000000e+00
1.282446e+02,0.000000e+00
1.311373e+02,0.000000e+00
1.340300e+02,0.000000e+00
1.369227e+02,0.000000e+00
1.398154e+02,0.000000e+00
1.427081e+02,0.000000e+00
1.456008e+02,0.000000e+00
1.484935e+02,0.000000e+00
1.513862e+02,0.000000e+00
1.542789e+02,0.000000e+00
1.571716e+02,0.000000e+00
1.600643e+02,0.000000e+00
1.629570e+02,0.000000e+00
1.658497e+02,0.000000e+00
1.687424e+02,0.000000e+00
1.716351e+02,0.000000e+00
1.745278e+02,0.000000e+00
1.774205e+02,0.000000e+00
1.803132e+02,0.000000e+00
1.832059e+02,0.000000e+00
1.860986e+02,0.000000e+00
1.889913e+02,0.000000e+00
1.918840e+02,0.000000e+00
1.947767e+02,0.000000e+00
1.976694e+02,0.000000e+00
2.005621e+02,3.361920e+03
2.034548e+02,3.387028e+03
2.063475e+02,3.395514e+03
2.092402e+02,3.401484e+03
2.121329e+02,3.388676e+03
2.150256e+02,3.396789e+03
2.179183e+02,3.401153e+03
2.208110e+02,3.422539e+03
2.237037e+02,3.400699e+03
2.265964e+02,3.396284e+03
2.294892e+02,3.420244e+03
2.323819e+02,3.431083e+03
2.352746e+02,3.441927e+03
2.381673e+02,3.446529e+03
2.410600e+02,3.445782e+03
2.439527e+02,3.428150e+03
2.468454e+02,3.458198e+03
2.497381e+02,3.475593e+03
2.526308e+02,3.472113e+03
2.555235e+02,3.490465e+03
2.584161e+02,3.495266e+03
2.613088e+02,3.484233e+03
2.642015e+02,3.489462e+03
2.670942e+02,3.501575e+03
2.699869e+02,3.507515e+03
2.728796e+02,3.500662e+03
2.757723e+02,3.504245e+03
2.786650e+02,3.531688e+03
2.815577e+02,3.522597e+03
2.844504e+02,3.523020e+03
2.873431e+02,3.507778e+03
2.902358e+02,3.521150e+03
2.931285e+02,3.530381e+03
2.960212e+02,3.536569e+03
2.989139e+02,3.550845e+03
3.018066e+02,3.552482e+03
3.046993e+02,3.542659e+03
3.075920e+02,3.536069e+03
3.104847e+02,3.557756e+03
3.133774e+02,3.545970e+03
3.162701e+02,3.556299e+03
3.191628e+02,3.560218e+03
3.220555e+02,3.578040e+03
3.249482e+02,3.580289e+03
3.278409e+02,3.596904e+03
3.307336e+02,3.581186e+03
3.336263e+02,3.582523e+03
3.365190e+02,3.589499e+03
3.394117e+02,3.563573e+03
3.423044e+02,3.591109e+03
3.451971e+02,3.608215e+03
3.480898e+02,3.592570e+03
3.509825e+02,3.585845e+03
3.538752e+02,3.604301e+03
3.567680e+02,3.591324e+03
3.596607e+02,3.607910e+03
3.625534e+02,3.620250e+03
3.654461e+02,3.601280e+03
3.683388e+02,3.606675e+03
3.712315e+02,3.622865e+03
3.741242e+02,3.624824e+03
3.770169e+02,3.642219e+03
3.799096e+02,3.642214e+03
3.828023e+02,3.644703e+03
3.856950e+02,3.631055e+03
3.885877e+02,3.628330e+03
3.914804e+02,3.622364e+03
3.943731e+02,3.634991e+03
3.972658e+02,3.626406e+03
4.001585e+02,3.643091e+03
4.030512e+02,3.636894e+03
4.059439e+02,3.635240e+03
4.088366e+02,3.629086e+03
4.117293e+02,3.623509e+03
4.146220e+02,3.614177e+03
4.175147e+02,3.627571e+03
4.204074e+02,3.622241e+03
4.233001e+02,3.639970e+03
4.261928e+02,3.634352e+03
4.290855e+02,3.634111e+03
4.319782e+02,3.642249e+03
4.348709e+02,3.650449e+03
4.377636e+02,3.649717e+03
4.406563e+02,3.643790e+03
4.435490e+02,3.631792e+03
4.464417e+02,3.618823e+03
4.493344e+02,3.646705e+03
4.522271e+02,3.646950e+03
4.551198e+02,3.633471e+03
4.580125e+02,3.635289e+03
4.609052e+02,3.622594e+03
4.637979e+02,3.635412e+03
4.666906e+02,3.615004e+03
4.695833e+02,3.612664e+03
4.724760e+02,3.614901e+03
4.753687e+02,3.626039e+03
4.782614e+02,3.625942e+03
4.811541e+02,3.666380e+03
4.840468e+02,3.700054e+03
4.869395e+02,3.712124e+03
4.898322e+02,3.732418e+03
4.927249e+02,3.701037e+03
4.956176e+02,3.655382e+03
4.985103e+02,3.657599e+03
5.014030e+02,3.639886e+03
5.042957e+02,3.627172e+03
5.071884e+02,3.618332e+03
5.100811e+02,3.632280e+03
5.129738e+02,3.618200e+03
5.158665e+02,3.629460e+03
5.187592e+02,3.620320e+03
5.216519e+02,3.592176e+03
5.245446e+02,3.598984e+03
5.274373e+02,3.602147e+03
5.303300e+02,3.622266e+03
5.332227e+02,3.610395e+03
5.361154e+02,3.596922e+03
5.390081e+02,3.608961e+03
5.419008e+02,3.571397e+03
5.447935e+02,3.590183e+03
5.476862e+02,3.608344e+03
5.505789e+02,3.603755e+03
5.534716e+02,3.581019e+03
5.563643e+02,3.581712e+03
5.592570e+02,3.583952e+03
5.621497e+02,3.582406e+03
5.650424e+02,3.588325e+03
5.679351e+02,3.567011e+03
5.708278e+02,3.549548e+03
5.737205e+02,3.572366e+03
5.766132e+02,3.566225e+03
5.795059e+02,3.591703e+03
5.823986e+02,3.551926e+03
5.852913e+02,3.554348e+03
5.881840e+02,3.574956e+03
5.910767e+02,3.583571e+03
5.939694e+02,3.575847e+03
5.968621e+02,3.576824e+03
5.997548e+02,3.555651e+03
6.026475e+02,3.574181e+03
6.055402e+02,3.571360e+03
6.084329e+02,3.570747e+03
6.113256e+02,3.568885e+03
6.142183e+02,3.548508e+03
6.171110e+02,3.544573e+03
6.200037e+02,3.552108e+03
6.228964e+02,3.546858e+03
6.257891e+02,3.543221e+03
6.286818e+02,3.542610e+03
6.315745e+02,3.542408e+03
6.344672e+02,3.515176e+03
6.373599e+02,3.532582e+03
6.402526e+02,3.518223e+03
6.431453e+02,3.529242e+03
6.460380e+02,3.520762e+03
6.489307e+02,3.534330e+03
6.518234e+02,3.521737e+03
6.547161e+02,3.513157e+03
6.576088e+02,3.504046e+03
6.605015e+02,3.481306e+03
6.633942e+02,3.491116e+03
6.662869e+02,3.502357e+03
6.691796e+02,3.482978e+03
6.720723e+02,3.485637e+03
6.749650e+02,3.478712e+03
6.778577e+02,3.465018e+03
6.807504e+02,3.480652e+03
6.836431e+02,3.469646e+03
6.865358e+02,3.470902e+03
6.894285e+02,3.463807e+03
6.923212e+02,3.460179e+03
6.952139e+02,3.466383e+03
6.981066e+02,3.466741e+03
7.009993e+02,3.470735e+03
7.038920e+02,3.463807e+03
7.067847e+02,3.434689e+03
7.096774e+02,3.466519e+03
7.125701e+02,3.442363e+03
7.154628e+02,3.432625e+03
7.183555e+02,3.446115e+03
7.212482e+02,3.448085e+03
7.241409e+02,3.447618e+03
7.270336e+02,3.411606e+03
7.299263e+02,3.424956e+03
7.328190e+02,3.395443e+03
7.357117e+02,3.419736e+03
7.386044e+02,3.413261e+03
7.414971e+02,3.390743e+03
7.443898e+02,3.397792e+03
7.472825e+02,3.388529e+03
7.501752e+02,3.387466e+03
7.530679e+02,3.383672e+03
7.559606e+02,3.367021e+03
7.588533e+02,3.379526e+03
7.617460e+02,3.368886e+03
7.646387e+02,3.351972e+03
7.675314e+02,3.368890e+03
7.704241e+02,3.361153e+03
7.733168e+02,3.345482e+03
7.762095e+02,3.371018e+03
7.791022e+02,3.365691e+03
7.819949e+02,3.348220e+03
7.848876e+02,3.340017e+03
7.877803e+02,3.357265e+03
7.906730e+02,3.333656e+03
7.935657e+02,3.338788e+03
7.964584e+02,3.322942e+03
7.993511e+02,3.319589e+03
8.022438e+02,3.315055e+03
8.051365e+02,3.316346e+03
8.080292e+02,3.311836e+03
8.109219e+02,3.290748e+03
8.138146e+02,3.303185e+03
8.167073e+02,3.287325e+03
8.196000e+02,3.293196e+03
8.224927e+02,3.309741e+03
8.253854e+02,3.299915e+03
8.282781e+02,3.284805e+03
8.311708e+02,3.287351e+03
8.340635e+02,3.285974e+03
8.369562e+02,3.263621e+03
8.398489e+02,3.272350e+03
8.427416e+02,3.284649e+03
8.456343e+02,3.257399e+03
8.485270e+02,3.260076e+03
8.514197e+02,3.262437e+03
8.543124e+02,3.247420e+03
8.572051e+02,3.251012e+03
8.600978e+02,3.245366e+03
8.629905e+02,3.236349e+03
8.658832e+02,3.227329e+03
8.687759e+02,3.236965e+03
8.716686e+02,3.225146e+03
8.745613e+02,3.222193e+03
8.774540e+02,3.211261e+03
8.803467e+02,3.217167e+03
8.832394e+02,3.213354e+03
8.861321e+02,3.202105e+03
8.890248e+02,3.212638e+03
8.919175e+02,3.209497e+03
8.948102e+02,3.165313e+03
8.977029e+02,3.184969e+03
9.005956e+02,3.190883e+03
9.034883e+02,3.177725e+03
9.063810e+02,3.176089e+03
9.092737e+02,3.187137e+03
9.121664e+02,3.167863e+03
9.150591e+02,3.177879e+03
9.179518e+02,3.179282e+03
9.208445e+02,3.138883e+03
9.237372e+02,3.141491e+03
9.266299e+02,3.138008e+03
9.295226e+02,3.142161e+03
9.324153e+02,3.127500e+03
9.353080e+02,3.130944e+03
9.382007e+02,3.134758e+03
9.410934e+02,3.116960e+03
9.439861e+02,3.107927e+03
9.468788e+02,3.104969e+03
9.497715e+02,3.101005e+03
9.526642e+02,3.090493e+03
9.555569e+02,3.079603e+03
9.584496e+02,3.077701e+03
9.613423e+02,3.079644e+03
9.642350e+02,3.085602e+03
9.671277e+02,3.052672e+03
9.700204e+02,3.085927e+03
9.729131e+02,3.062266e+03
9.758058e+02,3.069441e+03
9.786985e+02,3.066734e+03
9.815912e+02,3.041963e+03
9.844839e+02,3.034363e+03
9.873766e+02,3.031125e+03
9.902693e+02,3.023372e+03
9.931620e+02,3.048866e+03
9.960547e+02,3.038478e+03
9.989474e+02,3.026033e+03
1.001840e+03,3.019263e+03
1.004733e+03,3.025755e+03
1.007626e+03,3.042987e+03
1.010518e+03,3.030881e+03
1.013411e+03,3.010694e+03
1.016304e+03,3.011953e+03
1.019196e+03,2.997147e+03
1.022089e+03,2.998510e+03
1.024982e+03,2.996236e+03
1.027875e+03,3.002290e+03
1.030767e+03,2.984249e+03
1.033660e+03,2.975289e+03
1.036552e+03,2.981125e+03
1.039445e+03,2.991569e+03
1.042338e+03,2.974874e+03
1.045231e+03,2.976814e+03
1.048123e+03,2.946694e+03
1.051016e+03,2.971141e+03
1.053909e+03,2.967493e+03
1.056802e+03,2.963069e+03
1.059694e+03,2.949643e+03
1.062587e+03,2.942675e+03
1.065479e+03,2.935236e+03
1.068372e+03,2.947642e+03
1.071265e+03,2.953415e+03
1.074158e+03,2.940373e+03
1.077050e+03,2.928081e+03
1.079943e+03,2.935191e+03
1.082836e+03,2.951315e+03
1.085729e+03,2.959233e+03
1.088621e+03,2.961765e+03
1.091514e+03,2.950377e+03
1.094406e+03,2.948088e+03
1.097299e+03,2.953007e+03
1.100192e+03,2.940468e+03
1.103085e+03,2.927908e+03
1.105977e+03,2.918254e+03
1.108870e+03,2.907267e+03
1.111763e+03,2.913334e+03
1.114656e+03,2.925297e+03
1.117548e+03,2.947434e+03
1.120441e+03,2.957811e+03
1.123334e+03,2.959804e+03
1.126226e+03,2.960371e+03
1.129119e+03,2.964476e+03
1.132012e+03,2.957436e+03
1.134904e+03,2.936724e+03
1.137797e+03,2.946031e+03
1.140690e+03,2.926184e+03
1.143583e+03,2.931948e+03
1.146475e+03,2.934221e+03
1.149368e+03,2.945907e+03
1.152261e+03,2.978374e+03
1.155153e+03,2.961196e+03
1.158046e+03,2.902982e+03
1.160939e+03,2.898559e+03
1.163831e+03,2.881479e+03
1.166724e+03,2.854360e+03
1.169617e+03,2.841775e+03
1.172510e+03,2.854387e+03
1.175402e+03,2.861725e+03
1.178295e+03,2.894761e+03
1.181188e+03,2.875386e+03
1.184080e+03,2.866086e+03
1.186973e+03,2.848758e+03
1.189866e+03,2.854368e+03
1.192758e+03,2.851810e+03
1.195651e+03,2.836122e+03
1.198544e+03,2.838971e+03
1.201437e+03,2.826678e+03
1.204329e+03,2.795359e+03
1.207222e+03,2.809532e+03
1.210115e+03,2.834750e+03
1.213007e+03,2.813452e+03
1.215900e+03,2.824028e+03
1.218793e+03,2.810308e+03
1.221685e+03,2.802470e+03
1.224578e+03,2.799245e+03
1.227471e+03,2.790779e+03
1.230364e+03,2.791074e+03
1.233256e+03,2.772839e+03
1.236149e+03,2.779691e+03
1.239042e+03,2.769858e+03
1.241934e+03,2.767813e+03
1.244827e+03,2.760727e+03
1.247720e+03,2.752764e+03
1.250612e+03,2.748669e+03
1.253505e+03,2.749612e+03
1.256398e+03,2.737406e+03
1.259291e+03,2.745479e+03
1.262183e+03,2.742212e+03
1.265076e+03,2.747110e+03
1.267969e+03,2.743540e+03
1.270861e+03,2.746232e+03
1.273754e+03,2.765625e+03
1.276647e+03,2.781767e+03
1.279539e+03,2.777510e+03
1.282432e+03,2.795332e+03
1.285325e+03,2.796305e+03
1.288218e+03,2.783675e+03
1.291110e+03,2.773629e+03
1.294003e+03,2.731810e+03
1.296896e+03,2.716634e+03
1.299788e+03,2.706191e+03
1.302681e+03,2.717657e+03
1.305574e+03,2.710288e+03
1.308466e+03,2.690740e+03
1.311359e+03,2.696217e+03
1.314252e+03,2.683585e+03
1.317145e+03,2.690835e+03
1.320037e+03,2.703254e+03
1.322930e+03,2.692006e+03
1.325823e+03,2.676779e+03
1.328715e+03,2.688438e+03
1.331608e+03,2.680274e+03
1.334501e+03,2.702046e+03
1.337393e+03,2.716593e+03
1.340286e+03,2.726706e+03
1.343179e+03,2.707133e+03
1.346072e+03,2.706228e+03
1.348964e+03,2.703460e+03
1.351857e+03,2.692830e+03
1.354750e+03,2.683763e+03
1.357642e+03,2.670127e+03
1.360535e+03,2.663337e+03
1.363428e+03,2.656923e+03
1.366320e+03,2.656176e+03
1.369213e+03,2.644862e+03
1.372106e+03,2.636583e+03
1.374999e+03,2.619779e+03
1.377891e+03,2.630443e+03
1.380784e+03,2.628500e+03
1.383677e+03,2.629263e+03
1.386569e+03,2.601551e+03
1.389462e+03,2.593117e+03
1.392355e+03,2.572525e+03
1.395247e+03,2.559313e+03
1.398140e+03,2.586307e+03
1.401033e+03,2.576369e+03
1.403926e+03,2.573795e+03
1.406818e+03,2.552698e+03
1.409711e+03,2.578943e+03
1.412604e+03,2.579327e+03
1.415496e+03,2.577147e+03
1.418389e+03,2.557744e+03
1.421282e+03,2.560115e+03
1.424174e+03,2.554365e+03
1.427067e+03,2.543233e+03
1.429960e+03,2.540191e+03
1.432853e+03,2.522883e+03
1.435745e+03,2.524608e+03
1.438638e+03,2.510067e+03
1.441531e+03,2.503912e+03
1.444423e+03,2.508776e+03
1.447316e+03,2.494410e+03
1.450209e+03,2.491554e+03
1.453101e+03,2.487148e+03
1.455994e+03,2.490917e+03
1.458887e+03,2.493919e+03
1.461780e+03,2.494714e+03
1.464672e+03,2.474297e+03
1.467565e+03,2.467757e+03
1.470458e+03,2.472456e+03
1.473350e+03,2.476392e+03
1.476243e+03,2.471322e+03
1.479136e+03,2.466712e+03
1.482028e+03,2.464781e+03
1.484921e+03,2.450427e+03
1.487814e+03,2.455783e+03
1.490707e+03,2.473680e+03
1.493599e+03,2.450856e+03
1.496492e+03,2.454352e+03
1.499385e+03,2.439198e+03
1.502277e+03,2.439641e+03
1.505170e+03,2.421985e+03
1.508063e+03,2.424225e+03
1.510955e+03,2.421899e+03
1.513848e+03,2.429091e+03
1.516741e+03,2.394578e+03
1.519634e+03,2.408853e+03
1.522526e+03,2.401507e+03
1.525419e+03,2.403210e+03
1.528312e+03,2.398127e+03
1.531204e+03,2.390604e+03
1.534097e+03,2.403742e+03
1.536990e+03,2.373060e+03
1.539882e+03,2.399417e+03
1.542775e+03,2.374426e+03
1.545668e+03,2.390527e+03
1.548561e+03,2.379829e+03
1.551453e+03,2.396043e+03
1.554346e+03,2.387659e+03
1.557239e+03,2.390518e+03
1.560131e+03,2.381356e+03
1.563024e+03,2.398090e+03
1.565917e+03,2.407978e+03
1.568809e+03,2.409395e+03
1.571702e+03,2.411417e+03
1.574595e+03,2.406294e+03
1.577488e+03,2.419583e+03
1.580380e+03,2.410894e+03
1.583273e+03,2.405742e+03
1.586166e+03,2.424201e+03
1.589058e+03,2.398159e+03
1.591951e+03,2.393447e+03
1.594844e+03,2.384755e+03
1.597736e+03,2.353732e+03
1.600629e+03,2.344979e+03
1.603522e+03,2.319832e+03
1.606415e+03,2.335885e+03
1.609307e+03,2.324859e+03
1.612200e+03,2.326444e+03
1.615093e+03,2.321877e+03
1.617985e+03,2.314794e+03
1.620878e+03,2.294176e+03
1.623771e+03,2.279926e+03
1.626663e+03,2.276805e+03
1.629556e+03,2.281298e+03
1.632449e+03,2.271460e+03
1.635342e+03,2.281354e+03
1.638234e+03,2.266028e+03
1.641127e+03,2.236184e+03
1.644020e+03,2.259591e+03
1.646912e+03,2.265343e+03
1.649805e+03,2.246683e+03
1.652698e+03,2.257182e+03
1.655590e+03,2.234802e+03
1.658483e+03,2.231935e+03
1.661376e+03,2.236107e+03
1.664269e+03,2.209337e+03
1.667161e+03,2.237177e+03
1.670054e+03,2.219081e+03
1.672947e+03,2.210583e+03
1.675839e+03,2.215184e+03
1.678732e+03,2.212825e+03
1.681625e+03,2.193085e+03
1.684517e+03,2.204007e+03
1.687410e+03,2.193001e+03
1.690303e+03,2.195995e+03
1.693196e+03,2.192295e+03
1.696088e+03,2.186197e+03
1.698981e+03,2.186061e+03
1.701874e+03,2.168350e+03
1.704766e+03,2.179013e+03
1.707659e+03,2.168304e+03
1.710552e+03,2.169430e+03
1.713444e+03,2.168483e+03
1.716337e+03,2.163077e+03
1.719230e+03,2.152750e+03
1.722123e+03,2.146509e+03
1.725015e+03,2.159108e+03
1.727908e+03,2.139095e+03
1.730801e+03,2.141980e+03
1.733693e+03,2.131262e+03
1.736586e+03,2.115172e+03
1.739479e+03,2.133395e+03
1.742371e+03,2.113887e+03
1.745264e+03,2.122591e+03
1.748157e+03,2.111286e+03
1.751050e+03,2.097387e+03
1.753942e+03,2.083281e+03
1.756835e+03,2.106433e+03
1.759728e+03,2.084842e+03
1.762620e+03,2.089927e+03
1.765513e+03,2.084778e+03
1.768406e+03,2.073906e+03
1.771298e+03,2.068004e+03
1.774191e+03,2.081423e+03
1.777084e+03,2.057294e+03
1.779977e+03,2.042606e+03
1.782869e+03,2.058947e+03
1.785762e+03,2.056941e+03
1.788655e+03,2.059890e+03
1.791547e+03,2.057093e+03
1.794440e+03,2.037934e+03
1.797333e+03,2.040767e+03
1.800225e+03,2.023487e+03
1.803118e+03,2.030741e+03
1.806011e+03,2.020706e+03
1.808904e+03,2.016156e+03
1.811796e+03,2.021954e+03
1.814689e+03,2.015188e+03
1.817582e+03,2.036219e+03
1.820474e+03,1.993480e+03
1.823367e+03,1.998666e+03
1.826260e+03,1.995975e+03
1.829152e+03,1.997172e+03
1.832045e+03,1.980045e+03
1.834938e+03,1.998746e+03
1.837831e+03,1.985024e+03
1.840723e+03,1.978113e+03
1.843616e+03,1.965808e+03
1.846509e+03,1.970547e+03
1.849401e+03,1.943383e+03
1.852294e+03,1.962283e+03
1.855187e+03,1.945703e+03
1.858079e+03,1.944038e+03
1.860972e+03,1.940982e+03
1.863865e+03,1.952195e+03
1.866758e+03,1.932437e+03
1.869650e+03,1.913252e+03
1.872543e+03,1.931688e+03
1.875436e+03,1.938327e+03
1.878328e+03,1.912720e+03
1.881221e+03,1.919970e+03
1.884114e+03,1.894178e+03
1.887006e+03,1.903241e+03
1.889899e+03,1.913616e+03
1.892792e+03,1.901832e+03
1.895685e+03,1.886850e+03
1.898577e+03,1.888345e+03
1.901470e+03,1.881863e+03
1.904363e+03,1.868522e+03
1.907255e+03,1.870387e+03
1.910148e+03,1.872688e+03
1.913041e+03,1.856990e+03
1.915933e+03,1.859362e+03
1.918826e+03,1.853729e+03
1.921719e+03,1.859265e+03
1.924612e+03,1.847643e+03
1.927504e+03,1.845247e+03
1.930397e+03,1.839671e+03
1.933290e+03,1.832200e+03
1.936182e+03,1.833767e+03
1.939075e+03,1.816691e+03
1.941968e+03,1.810436e+03
1.944860e+03,1.805323e+03
1.947753e+03,1.806099e+03
1.950646e+03,1.810420e+03
1.953539e+03,1.801147e+03
1.956431e+03,1.807823e+03
1.959324e+03,1.786901e+03
1.962217e+03,1.762988e+03
1.965109e+03,1.787467e+03
1.968002e+03,1.787488e+03
1.970895e+03,1.774555e+03
1.973787e+03,1.760067e+03
1.976680e+03,1.774065e+03
1.979573e+03,1.753031e+03
1.982466e+03,1.764105e+03
1.985358e+03,1.743015e+03
1.988251e+03,1.756820e+03
1.991144e+03,1.739705e+03
1.994036e+03,1.741057e+03
1.996929e+03,1.742572e+03
1.999822e+03,1.719812e+03
2.002714e+03,1.718194e+03
2.005607e+03,1.736548e+03
2.008500e+03,1.728570e+03
2.011393e+03,1.708326e+03
2.014285e+03,1.708452e+03
2.017178e+03,1.709832e+03
2.020071e+03,1.700516e+03
2.022963e+03,1.700203e+03
2.025856e+03,1.669454e+03
2.028749e+03,1.685391e+03
2.031641e+03,1.684503e+03
2.034534e+03,1.694372e+03
2.037427e+03,1.674263e+03
2.040320e+03,1.659307e+03
2.043212e+03,1.656214e+03
2.046105e+03,1.666192e+03
2.048998e+03,1.657615e+03
2.051890e+03,1.650875e+03
2.054783e+03,1.650322e+03
2.057676e+03,1.635950e+03
2.060568e+03,1.621236e+03
2.063461e+03,1.625617e+03
2.066354e+03,1.620175e+03
2.069247e+03,1.619742e+03
2.072139e+03,1.614941e+03
2.075032e+03,1.623996e+03
2.077925e+03,1.621180e+03
2.080817e+03,1.589518e+03
2.083710e+03,1.599206e+03
2.086603e+03,1.569650e+03
2.089496e+03,1.597606e+03
2.092388e+03,1.587230e+03
2.095281e+03,1.568400e+03
2.098174e+03,1.581154e+03
2.101066e+03,1.557851e+03
2.103959e+03,1.543657e+03
2.106852e+03,1.557969e+03
2.109744e+03,1.561395e+03
2.112637e+03,1.553000e+03
2.115530e+03,1.544866e+03
2.118422e+03,1.524684e+03
2.121315e+03,1.539526e+03
2.124208e+03,1.557803e+03
2.127101e+03,1.532198e+03
2.129993e+03,1.515810e+03
2.132886e+03,1.516975e+03
2.135779e+03,1.529579e+03
2.138671e+03,1.524697e+03
2.141564e+03,1.516743e+03
2.144457e+03,1.513411e+03
2.147350e+03,1.503779e+03
2.150242e+03,1.511137e+03
2.153135e+03,1.511627e+03
2.156028e+03,1.484901e+03
2.158920e+03,1.482256e+03
2.161813e+03,1.483661e+03
2.164706e+03,1.479700e+03
2.167598e+03,1.467257e+03
2.170491e+03,1.469753e+03
2.173384e+03,1.464163e+03
2.176277e+03,1.450424e+03
2.179169e+03,1.451744e+03
2.182062e+03,1.441657e+03
2.184955e+03,1.442785e+03
2.187847e+03,1.445356e+03
2.190740e+03,1.449098e+03
2.193633e+03,1.427301e+03
2.196525e+03,1.434905e+03
2.199418e+03,1.421669e+03
2.202311e+03,1.424807e+03
2.205204e+03,1.411560e+03
2.208096e+03,1.410643e+03
2.210989e+03,1.407569e+03
2.213882e+03,1.394504e+03
2.216774e+03,1.415908e+03
2.219667e+03,1.401382e+03
2.222560e+03,1.395009e+03
2.225452e+03,1.402329e+03
2.228345e+03,1.366665e+03
2.231238e+03,1.385303e+03
2.234131e+03,1.377957e+03
2.237023e+03,1.384203e+03
2.239916e+03,1.377457e+03
2.242809e+03,1.356927e+03
2.245701e+03,1.377015e+03
2.248594e+03,1.360234e+03
2.251487e+03,1.349661e+03
2.254379e+03,1.352194e+03
2.257272e+03,1.341259e+03
2.260165e+03,1.339497e+03
2.263058e+03,1.342208e+03
2.265950e+03,1.336278e+03
2.268843e+03,1.314245e+03
2.271736e+03,1.314710e+03
2.274628e+03,1.319833e+03
2.277521e+03,1.328823e+03
2.280414e+03,1.305933e+03
2.283306e+03,1.313040e+03
2.286199e+03,1.307351e+03
2.289092e+03,1.308492e+03
2.291985e+03,1.309971e+03
2.294877e+03,1.282311e+03
2.297770e+03,1.286206e+03
2.300663e+03,1.289826e+03
2.303555e+03,1.272854e+03
2.306448e+03,1.270862e+03
2.309341e+03,1.287672e+03
2.312233e+03,1.285387e+03
2.315126e+03,1.276158e+03
2.318019e+03,1.258322e+03
2.320912e+03,1.263493e+03
2.323804e+03,1.248015e+03
2.326697e+03,1.255635e+03
2.329590e+03,1.247740e+03
2.332482e+03,1.261027e+03
2.335375e+03,1.234722e+03
2.338268e+03,1.227174e+03
2.341160e+03,1.239006e+03
2.344053e+03,1.235784e+03
2.346946e+03,1.245230e+03
2.349839e+03,1.233934e+03
2.352731e+03,1.216646e+03
2.355624e+03,1.217109e+03
2.358517e+03,1.221653e+03
2.361409e+03,1.214689e+03
2.364302e+03,1.207606e+03
2.367195e+03,1.198683e+03
2.370087e+03,1.198392e+03
2.372980e+03,1.188493e+03
2.375873e+03,1.185885e+03
2.378766e+03,1.183854e+03
2.381658e+03,1.174725e+03
2.384551e+03,1.166987e+03
2.387444e+03,1.183179e+03
2.390336e+03,1.184158e+03
2.393229e+03,1.171265e+03
2.396122e+03,1.156410e+03
2.399014e+03,1.169493e+03
2.401907e+03,1.168693e+03
2.404800e+03,1.161975e+03
2.407693e+03,1.141652e+03
2.410585e+03,1.153794e+03
2.413478e+03,1.148864e+03
2.416371e+03,1.140333e+03
2.419263e+03,1.146904e+03
2.422156e+03,1.140348e+03
2.425049e+03,1.118938e+03
2.427941e+03,1.124088e+03
2.430834e+03,1.135629e+03
2.433727e+03,1.121410e+03
2.436620e+03,1.121095e+03
2.439512e+03,1.125090e+03
2.442405e+03,1.114363e+03
2.445298e+03,1.099759e+03
2.448190e+03,1.104997e+03
2.451083e+03,1.103026e+03
2.453976e+03,1.114592e+03
2.456868e+03,1.098722e+03
2.459761e+03,1.078893e+03
2.462654e+03,1.107670e+03
2.465547e+03,1.083959e+03
2.468439e+03,1.080930e+03
2.471332e+03,1.095303e+03
2.474225e+03,1.082919e+03
2.477117e+03,1.070275e+03
2.480010e+03,1.102662e+03
2.482903e+03,1.076120e+03
2.485795e+03,1.083167e+03
2.488688e+03,1.065764e+03
2.491581e+03,1.056440e+03
2.494474e+03,1.058794e+03
2.497366e+03,1.059710e+03
2.500259e+03,1.064169e+03
2.503152e+03,1.073716e+03
2.506044e+03,1.038457e+03
2.508937e+03,1.059896e+03
2.511830e+03,1.044288e+03
2.514722e+03,1.033878e+03
2.517615e+03,1.038728e+03
2.520508e+03,1.049043e+03
2.523401e+03,1.026093e+03
2.526293e+03,1.047684e+03
2.529186e+03,1.027589e+03
2.532079e+03,1.033744e+03
2.534971e+03,1.027947e+03
2.537864e+03,1.017392e+03
2.540757e+03,1.019765e+03
2.543649e+03,1.019129e+03
2.546542e+03,1.030822e+03
2.549435e+03,1.017554e+03
2.552328e+03,1.006301e+03
2.555220e+03,1.025366e+03
2.558113e+03,1.007577e+03
2.561006e+03,1.019322e+03
2.563898e+03,9.978659e+02
2.566791e+03,9.933741e+02
2.569684e+03,1.005944e+03
2.572576e+03,9.913410e+02
2.575469e+03,9.893580e+02
2.578362e+03,1.000700e+03
2.581255e+03,9.684672e+02
2.584147e+03,9.832763e+02
2.587040e+03,9.705504e+02
2.589933e+03,9.621881e+02
2.592825e+03,9.725589e+02
2.595718e+03,9.830422e+02
2.598611e+03,9.674864e+02
2.601503e+03,9.522043e+02
2.604396e+03,9.669153e+02
2.607289e+03,9.560833e+02
2.610182e+03,9.521077e+02
2.613074e+03,9.543885e+02
2.615967e+03,9.623087e+02
2.618860e+03,9.525214e+02
2.621752e+03,9.597568e+02
2.624645e+03,9.589336e+02
2.627538e+03,9.529146e+02
2.630430e+03,9.457228e+02
2.633323e+03,9.319412e+02
2.636216e+03,9.485449e+02
2.639109e+03,9.413676e+02
2.642001e+03,9.311402e+02
2.644894e+03,9.337509e+02
2.647787e+03,9.246976e+02
2.650679e+03,9.143631e+02
2.653572e+03,9.415674e+02
2.656465e+03,9.300005e+02
2.659357e+03,9.121192e+02
2.662250e+03,9.156299e+02
2.665143e+03,9.085471e+02
2.668036e+03,9.113444e+02
2.670928e+03,9.245325e+02
2.673821e+03,9.166424e+02
2.676714e+03,8.975023e+02
2.679606e+03,9.052811e+02
2.682499e+03,9.018990e+02
2.685392e+03,9.023092e+02
2.688284e+03,9.017871e+02
2.691177e+03,8.925098e+02
2.694070e+03,9.100499e+02
2.696963e+03,8.771038e+02
2.699855e+03,9.026226e+02
2.702748e+03,8.820557e+02
2.705641e+03,8.879669e+02
2.708533e+03,8.812675e+02
2.711426e+03,8.811412e+02
2.714319e+03,8.839711e+02
2.717211e+03,8.787741e+02
2.720104e+03,8.727841e+02
2.722997e+03,8.813197e+02
2.725890e+03,8.645946e+02
2.728782e+03,8.819249e+02
2.731675e+03,8.639614e+02
2.734568e+03,8.483799e+02
2.737460e+03,8.594781e+02
2.740353e+03,8.724728e+02
2.743246e+03,8.397343e+02
2.746138e+03,8.633728e+02
2.749031e+03,8.445808e+02
2.751924e+03,8.585594e+02
2.754817e+03,8.610586e+02
2.757709e+03,8.415791e+02
2.760602e+03,8.514884e+02
2.763495e+03,8.454812e+02
2.766387e+03,8.460164e+02
2.769280e+03,8.385245e+02
2.772173e+03,8.452842e+02
2.775065e+03,8.394267e+02
2.777958e+03,8.152520e+02
2.780851e+03,8.235388e+02
2.783744e+03,8.454871e+02
2.786636e+03,8.189810e+02
2.789529e+03,8.342285e+02
2.792422e+03,8.365170e+02
2.795314e+03,8.064232e+02
2.798207e+03,8.337400e+02
2.801100e+03,8.240330e+02
2.803992e+03,8.046778e+02
2.806885e+03,7.910290e+02
2.809778e+03,8.422298e+02
2.812671e+03,8.214420e+02
2.815563e+03,7.929515e+02
2.818456e+03,8.094267e+02
2.821349e+03,8.163923e+02
2.824241e+03,7.948907e+02
2.827134e+03,8.048744e+02
2.830027e+03,8.177645e+02
2.832919e+03,8.017949e+02
2.835812e+03,8.109328e+02
2.838705e+03,8.007822e+02
2.841598e+03,8.004953e+02
2.844490e+03,7.980606e+02
2.847383e+03,8.237809e+02
2.850276e+03,8.186416e+02
2.853168e+03,8.077597e+02
2.856061e+03,8.103300e+02
2.858954e+03,7.950685e+02
2.861846e+03,8.149774e+02
2.864739e+03,8.119951e+02
2.867632e+03,7.854877e+02
2.870525e+03,8.034414e+02
2.873417e+03,8.023078e+02
2.876310e+03,7.856984e+02
2.879203e+03,8.065275e+02
2.882095e+03,8.013002e+02
2.884988e+03,8.136979e+02
2.887881e+03,8.037501e+02
2.890773e+03,8.140289e+02
2.893666e+03,8.034933e+02
2.896559e+03,8.259425e+02
2.899452e+03,8.109936e+02
2.902344e+03,8.072344e+02
2.905237e+03,7.930797e+02
2.908130e+03,7.964316e+02
2.911022e+03,8.068066e+02
2.913915e+03,7.643529e+02
2.916808e+03,7.697375e+02
2.919700e+03,7.702521e+02
2.922593e+03,7.852055e+02
2.925486e+03,7.890948e+02
2.928379e+03,7.622234e+02
2.931271e+03,7.678127e+02
2.934164e+03,7.885372e+02
2.937057e+03,7.426998e+02
2.939949e+03,7.733045e+02
2.942842e+03,7.333852e+02
2.945735e+03,7.511533e+02
2.948627e+03,7.768199e+02
2.951520e+03,7.380296e+02
2.954413e+03,7.301675e+02
2.957306e+03,7.724196e+02
2.960198e+03,7.672148e+02
2.963091e+03,7.497822e+02
2.965984e+03,7.171316e+02
2.968876e+03,7.405811e+02
2.971769e+03,7.321274e+02
2.974662e+03,7.459843e+02
2.977554e+03,7.176198e+02
2.980447e+03,7.307886e+02
2.983340e+03,7.131283e+02
2.986233e+03,6.941363e+02
2.989125e+03,7.085974e+02
2.992018e+03,7.142396e+02
2.994911e+03,7.012980e+02
2.997803e+03,7.251588e+02
3.000696e+03,6.836754e+02
3.003589e+03,7.006597e+02
3.006481e+03,7.175882e+02
3.009374e+03,7.057579e+02
3.012267e+03,6.941584e+02
3.015160e+03,6.966877e+02
3.018052e+03,7.009862e+02
3.020945e+03,7.046492e+02
3.023838e+03,6.746977e+02
3.026730e+03,7.012792e+02
3.029623e+03,6.750153e+02
3.032516e+03,6.699523e+02
3.035408e+03,6.807989e+02
3.038301e+03,7.097814e+02
3.041194e+03,6.928311e+02
3.044087e+03,7.183381e+02
3.046979e+03,7.209857e+02
3.049872e+03,7.038127e+02
3.052765e+03,7.058245e+02
3.055657e+03,7.083336e+02
3.058550e+03,6.833590e+02
3.061443e+03,7.074804e+02
3.064335e+03,6.699091e+02
3.067228e+03,6.979027e+02
3.070121e+03,6.990549e+02
3.073014e+03,6.694554e+02
3.075906e+03,6.873449e+02
3.078799e+03,6.819210e+02
3.081692e+03,6.878332e+02
3.084584e+03,6.770043e+02
3.087477e+03,6.724132e+02
3.090370e+03,6.836437e+02
3.093262e+03,6.382804e+02
3.096155e+03,6.708792e+02
3.099048e+03,6.776658e+02
3.101941e+03,6.568493e+02
3.104833e+03,6.788994e+02
3.107726e+03,6.840638e+02
3.110619e+03,6.546491e+02
3.113511e+03,6.642476e+02
3.116404e+03,6.852615e+02
3.119297e+03,6.554959e+02
3.122189e+03,6.671212e+02
3.125082e+03,6.795328e+02
3.127975e+03,6.927052e+02
3.130868e+03,6.504443e+02
3.133760e+03,6.642285e+02
3.136653e+03,6.559904e+02
3.139546e+03,6.851293e+02
3.142438e+03,6.658910e+02
3.145331e+03,6.213203e+02
3.148224e+03,6.745243e+02
3.151116e+03,6.529591e+02
3.154009e+03,6.856893e+02
3.156902e+03,6.792700e+02
3.159795e+03,6.250848e+02
3.162687e+03,6.763551e+02
3.165580e+03,6.958214e+02
3.168473e+03,6.871364e+02
3.171365e+03,6.614275e+02
3.174258e+03,6.868267e+02
3.177151e+03,6.546044e+02
3.180043e+03,6.694831e+02
3.182936e+03,6.933170e+02
3.185829e+03,6.856354e+02
3.188722e+03,6.966846e+02
3.191614e+03,6.728743e+02
3.194507e+03,6.579479e+02
3.197400e+03,6.608158e+02
3.200292e+03,7.027979e+02
3.203185e+03,0.000000e+00
3.206078e+03,0.000000e+00
3.208970e+03,0.000000e+00
3.211863e+03,0.000000e+00
3.214756e+03,0.000000e+00
3.217649e+03,0.000000e+00
3.220541e+03,0.000000e+00
3.223434e+03,0.000000e+00
3.226327e+03,0.000000e+00
3.229219e+03,0.000000e+00
3.232112e+03,0.000000e+00
3.235005e+03,0.000000e+00
3.237897e+03,0.000000e+00
3.240790e+03,0.000000e+00
3.243683e+03,0.000000e+00
3.246576e+03,0.000000e+00
3.249468e+03,0.000000e+00
3.252361e+03,0.000000e+00
3.255254e+03,0.000000e+00
3.258146e+03,0.000000e+00
3.261039e+03,0.000000e+00
3.263932e+03,0.000000e+00
3.266824e+03,0.000000e+00
3.269717e+03,0.000000e+00
3.272610e+03,0.000000e+00
3.275503e+03,0.000000e+00
3.278395e+03,0.000000e+00
3.281288e+03,0.000000e+00
3.284181e+03,0.000000e+00
3.287073e+03,0.000000e+00
3.289966e+03,0.000000e+00
3.292859e+03,0.000000e+00
3.295751e+03,0.000000e+00
3.298644e+03,0.000000e+00
3.301537e+03,0.000000e+00
3.304430e+03,0.000000e+00
3.307322e+03,0.000000e+00
3.310215e+03,0.000000e+00
3.313108e+03,0.000000e+00
3.316000e+03,0.000000e+00
3.318893e+03,0.000000e+00
3.321786e+03,0.000000e+00
3.324678e+03,0.000000e+00
3.327571e+03,0.000000e+00
3.330464e+03,0.000000e+00
3.333357e+03,0.000000e+00
3.336249e+03,0.000000e+00
3.339142e+03,0.000000e+00
3.342035e+03,0.000000e+00
3.344927e+03,0.000000e+00
3.347820e+03,0.000000e+00
3.350713e+03,0.000000e+00
3.353605e+03,0.000000e+00
3.356498e+03,0.000000e+00
3.359391e+03,0.000000e+00
3.362284e+03,0.000000e+00
3.365176e+03,0.000000e+00
3.368069e+03,0.000000e+00
3.370962e+03,0.000000e+00
3.373854e+03,0.000000e+00
3.376747e+03,0.000000e+00
3.379640e+03,0.000000e+00
3.382532e+03,0.000000e+00
3.385425e+03,0.000000e+00
3.388318e+03,0.000000e+00
3.391211e+03,0.000000e+00
3.394103e+03,0.000000e+00
3.396996e+03,0.000000e+00
3.399889e+03,0.000000e+00
3.402781e+03,0.000000e+00
3.405674e+03,0.000000e+00
3.408567e+03,0.000000e+00
3.411459e+03,0.000000e+00
3.414352e+03,0.000000e+00
3.417245e+03,0.000000e+00
3.420138e+03,0.000000e+00
3.423030e+03,0.000000e+00
3.425923e+03,0.000000e+00
3.428816e+03,0.000000e+00
3.431708e+03,0.000000e+00
3.434601e+03,0.000000e+00
3.437494e+03,0.000000e+00
3.440386e+03,0.000000e+00
3.443279e+03,0.000000e+00
3.446172e+03,0.000000e+00
3.449065e+03,0.000000e+00
3.451957e+03,0.000000e+00
3.454850e+03,0.000000e+00
3.457743e+03,0.000000e+00
3.460635e+03,0.000000e+00
3.463528e+03,0.000000e+00
3.466421e+03,0.000000e+00
3.469313e+03,0.000000e+00
3.472206e+03,0.000000e+00
3.475099e+03,0.000000e+00
3.477992e+03,0.000000e+00
3.480884e+03,0.000000e+00
3.483777e+03,0.000000e+00
3.486670e+03,0.000000e+00
3.489563e+03,0.000000e+00
3.492455e+03,0.000000e+00
3.495348e+03,0.000000e+00
3.498240e+03,0.000000e+00
3.500169e+03,0.000000e+00