File: RAMAN_data/06022023_r2/black fibre3.CSV
9.931763e+01,0.000000e+00
1.022103e+02,0.000000e+00
1.051030e+02,0.000000e+00
1.079957e+02,0.000000e+00
1.108884e+02,0.000000e+00
1.137811e+02,0.000000e+00
1.166738e+02,0.000000e+00
1.195665e+02,0.000000e+00
1.224592e+02,0.000000e+00
1.253519e+02,0.000000e+00
1.282446e+02,0.000000e+00
1.311373e+02,0.000000e+00
1.340300e+02,0.000000e+00
1.369227e+02,0.000000e+00
1.398154e+02,0.000000e+00
1.427081e+02,0.000000e+00
1.456008e+02,0.000000e+00
1.484935e+02,0.000000e+00
1.513862e+02,0.000000e+00
1.542789e+02,0.000000e+00
1.571716e+02,0.000000e+00
1.600643e+02,0.000000e+00
1.629570e+02,0.000000e+00
1.658497e+02,0.000000e+00
1.687424e+02,0.000000e+00
1.716351e+02,0.000000e+00
1.745278e+02,0.000000e+00
1.774205e+02,0.000000e+00
1.803132e+02,0.000000e+00
1.832059e+02,0.000000e+00
1.860986e+02,0.000000e+00
1.889913e+02,0.000000e+00
1.918840e+02,0.000000e+00
1.947767e+02,0.000000e+00
1.976694e+02,0.000000e+00
2.005621e+02,2.864029e+03
2.034548e+02,2.872941e+03
2.063475e+02,2.882308e+03
2.092402e+02,2.869651e+03
2.121329e+02,2.860841e+03
2.150256e+02,2.874555e+03
2.179183e+02,2.885888e+03
2.208110e+02,2.887782e+03
2.237037e+02,2.909598e+03
2.265964e+02,2.903710e+03
2.294892e+02,2.905580e+03
2.323819e+02,2.915398e+03
2.352746e+02,2.916772e+03
2.381673e+02,2.923238e+03
2.410600e+02,2.907796e+03
2.439527e+02,2.906601e+03
2.468454e+02,2.916644e+03
2.497381e+02,2.927409e+03
2.526308e+02,2.931584e+03
2.555235e+02,2.947778e+03
2.584161e+02,2.949448e+03
2.613088e+02,2.942935e+03
2.642015e+02,2.968636e+03
2.670942e+02,2.965473e+03
2.699869e+02,2.964397e+03
2.728796e+02,2.947629e+03
2.757723e+02,2.955945e+03
2.786650e+02,2.959540e+03
2.815577e+02,2.973805e+03
2.844504e+02,2.969290e+03
2.873431e+02,2.980653e+03
2.902358e+02,2.974043e+03
2.931285e+02,2.972684e+03
2.960212e+02,2.976238e+03
2.989139e+02,2.991343e+03
3.018066e+02,2.977817e+03
3.046993e+02,2.984516e+03
3.075920e+02,2.984936e+03
3.104847e+02,2.986319e+03
3.133774e+02,2.981467e+03
3.162701e+02,2.976711e+03
3.191628e+02,3.002677e+03
3.220555e+02,2.995385e+03
3.249482e+02,2.990524e+03
3.278409e+02,2.999878e+03
3.307336e+02,3.003634e+03
3.336263e+02,3.001662e+03
3.365190e+02,2.997997e+03
3.394117e+02,3.008228e+03
3.423044e+02,3.023929e+03
3.451971e+02,3.011339e+03
3.480898e+02,3.018539e+03
3.509825e+02,2.998347e+03
3.538752e+02,3.008494e+03
3.567680e+02,3.022030e+03
3.596607e+02,3.024094e+03
3.625534e+02,3.021435e+03
3.654461e+02,3.016258e+03
3.683388e+02,3.032151e+03
3.712315e+02,3.030115e+03
3.741242e+02,3.017340e+03
3.770169e+02,3.039415e+03
3.799096e+02,3.043689e+03
3.828023e+02,3.009448e+03
3.856950e+02,3.009287e+03
3.885877e+02,3.019622e+03
3.914804e+02,3.021012e+03
3.943731e+02,3.024297e+03
3.972658e+02,3.028469e+03
4.001585e+02,3.027094e+03
4.030512e+02,3.026937e+03
4.059439e+02,3.036949e+03
4.088366e+02,3.034567e+03
4.117293e+02,3.015457e+03
4.146220e+02,3.027110e+03
4.175147e+02,3.021381e+03
4.204074e+02,3.027369e+03
4.233001e+02,3.026810e+03
4.261928e+02,3.035256e+03
4.290855e+02,3.032158e+03
4.319782e+02,3.024896e+03
4.348709e+02,3.033465e+03
4.377636e+02,3.025425e+03
4.406563e+02,3.029622e+03
4.435490e+02,3.024156e+03
4.464417e+02,3.013310e+03
4.493344e+02,3.033980e+03
4.522271e+02,3.018667e+03
4.551198e+02,3.021043e+03
4.580125e+02,3.035431e+03
4.609052e+02,3.031579e+03
4.637979e+02,3.014930e+03
4.666906e+02,3.021061e+03
4.695833e+02,3.025240e+03
4.724760e+02,3.008710e+03
4.753687e+02,3.025082e+03
4.782614e+02,3.024662e+03
4.811541e+02,3.047061e+03
4.840468e+02,3.065591e+03
4.869395e+02,3.084443e+03
4.898322e+02,3.094076e+03
4.927249e+02,3.080135e+03
4.956176e+02,3.052749e+03
4.985103e+02,3.022954e+03
5.014030e+02,3.032406e+03
5.042957e+02,3.013770e+03
5.071884e+02,3.013714e+03
5.100811e+02,3.021921e+03
5.129738e+02,3.021390e+03
5.158665e+02,3.037074e+03
5.187592e+02,3.012570e+03
5.216519e+02,3.002189e+03
5.245446e+02,3.004593e+03
5.274373e+02,3.008095e+03
5.303300e+02,3.004201e+03
5.332227e+02,2.992903e+03
5.361154e+02,2.979041e+03
5.390081e+02,3.008588e+03
5.419008e+02,2.996656e+03
5.447935e+02,2.986758e+03
5.476862e+02,2.996678e+03
5.505789e+02,2.982278e+03
5.534716e+02,2.986019e+03
5.563643e+02,2.992043e+03
5.592570e+02,2.998542e+03
5.621497e+02,2.995819e+03
5.650424e+02,2.982083e+03
5.679351e+02,2.986021e+03
5.708278e+02,2.976705e+03
5.737205e+02,2.986285e+03
5.766132e+02,2.990467e+03
5.795059e+02,2.983225e+03
5.823986e+02,2.984290e+03
5.852913e+02,2.977503e+03
5.881840e+02,2.986561e+03
5.910767e+02,2.969155e+03
5.939694e+02,2.965154e+03
5.968621e+02,2.983246e+03
5.997548e+02,2.965065e+03
6.026475e+02,2.971871e+03
6.055402e+02,2.985177e+03
6.084329e+02,2.967777e+03
6.113256e+02,2.963201e+03
6.142183e+02,2.959343e+03
6.171110e+02,2.954930e+03
6.200037e+02,2.954643e+03
6.228964e+02,2.963349e+03
6.257891e+02,2.953191e+03
6.286818e+02,2.951017e+03
6.315745e+02,2.950823e+03
6.344672e+02,2.957448e+03
6.373599e+02,2.945617e+03
6.402526e+02,2.932726e+03
6.431453e+02,2.936045e+03
6.460380e+02,2.926305e+03
6.489307e+02,2.940048e+03
6.518234e+02,2.944555e+03
6.547161e+02,2.945840e+03
6.576088e+02,2.909085e+03
6.605015e+02,2.903776e+03
6.633942e+02,2.912877e+03
6.662869e+02,2.909399e+03
6.691796e+02,2.902591e+03
6.720723e+02,2.903241e+03
6.749650e+02,2.910766e+03
6.778577e+02,2.910225e+03
6.807504e+02,2.900832e+03
6.836431e+02,2.903360e+03
6.865358e+02,2.883043e+03
6.894285e+02,2.862864e+03
6.923212e+02,2.877625e+03
6.952139e+02,2.879059e+03
6.981066e+02,2.876434e+03
7.009993e+02,2.890289e+03
7.038920e+02,2.878060e+03
7.067847e+02,2.866279e+03
7.096774e+02,2.863665e+03
7.125701e+02,2.865909e+03
7.154628e+02,2.873994e+03
7.183555e+02,2.855122e+03
7.212482e+02,2.871001e+03
7.241409e+02,2.859174e+03
7.270336e+02,2.860458e+03
7.299263e+02,2.852147e+03
7.328190e+02,2.846489e+03
7.357117e+02,2.834752e+03
7.386044e+02,2.837396e+03
7.414971e+02,2.833812e+03
7.443898e+02,2.815987e+03
7.472825e+02,2.837066e+03
7.501752e+02,2.836214e+03
7.530679e+02,2.824564e+03
7.559606e+02,2.803072e+03
7.588533e+02,2.816622e+03
7.617460e+02,2.827270e+03
7.646387e+02,2.795758e+03
7.675314e+02,2.818990e+03
7.704241e+02,2.796544e+03
7.733168e+02,2.793820e+03
7.762095e+02,2.810644e+03
7.791022e+02,2.781676e+03
7.819949e+02,2.788929e+03
7.848876e+02,2.792700e+03
7.877803e+02,2.794081e+03
7.906730e+02,2.775640e+03
7.935657e+02,2.796254e+03
7.964584e+02,2.754867e+03
7.993511e+02,2.771709e+03
8.022438e+02,2.750804e+03
8.051365e+02,2.759150e+03
8.080292e+02,2.754037e+03
8.109219e+02,2.753144e+03
8.138146e+02,2.748017e+03
8.167073e+02,2.744740e+03
8.196000e+02,2.749799e+03
8.224927e+02,2.753906e+03
8.253854e+02,2.741264e+03
8.282781e+02,2.734257e+03
8.311708e+02,2.744424e+03
8.340635e+02,2.729393e+03
8.369562e+02,2.738167e+03
8.398489e+02,2.733581e+03
8.427416e+02,2.720323e+03
8.456343e+02,2.711704e+03
8.485270e+02,2.712018e+03
8.514197e+02,2.717572e+03
8.543124e+02,2.700342e+03
8.572051e+02,2.695237e+03
8.600978e+02,2.696665e+03
8.629905e+02,2.708241e+03
8.658832e+02,2.691065e+03
8.687759e+02,2.691023e+03
8.716686e+02,2.693923e+03
8.745613e+02,2.704786e+03
8.774540e+02,2.673972e+03
8.803467e+02,2.679738e+03
8.832394e+02,2.684642e+03
8.861321e+02,2.671768e+03
8.890248e+02,2.685190e+03
8.919175e+02,2.678649e+03
8.948102e+02,2.661381e+03
8.977029e+02,2.661800e+03
9.005956e+02,2.658417e+03
9.034883e+02,2.645907e+03
9.063810e+02,2.646634e+03
9.092737e+02,2.648806e+03
9.121664e+02,2.646328e+03
9.150591e+02,2.635656e+03
9.179518e+02,2.652507e+03
9.208445e+02,2.628145e+03
9.237372e+02,2.618049e+03
9.266299e+02,2.613000e+03
9.295226e+02,2.595914e+03
9.324153e+02,2.613124e+03
9.353080e+02,2.617874e+03
9.382007e+02,2.598572e+03
9.410934e+02,2.584843e+03
9.439861e+02,2.581396e+03
9.468788e+02,2.584838e+03
9.497715e+02,2.595615e+03
9.526642e+02,2.566410e+03
9.555569e+02,2.556139e+03
9.584496e+02,2.566022e+03
9.613423e+02,2.573252e+03
9.642350e+02,2.567876e+03
9.671277e+02,2.550339e+03
9.700204e+02,2.554650e+03
9.729131e+02,2.553182e+03
9.758058e+02,2.553288e+03
9.786985e+02,2.548065e+03
9.815912e+02,2.542731e+03
9.844839e+02,2.535888e+03
9.873766e+02,2.530803e+03
9.902693e+02,2.515573e+03
9.931620e+02,2.534515e+03
9.960547e+02,2.532275e+03
9.989474e+02,2.524662e+03
1.001840e+03,2.500414e+03
1.004733e+03,2.519358e+03
1.007626e+03,2.526940e+03
1.010518e+03,2.536503e+03
1.013411e+03,2.500564e+03
1.016304e+03,2.495937e+03
1.019196e+03,2.498485e+03
1.022089e+03,2.486191e+03
1.024982e+03,2.476582e+03
1.027875e+03,2.488255e+03
1.030767e+03,2.478069e+03
1.033660e+03,2.478920e+03
1.036552e+03,2.483740e+03
1.039445e+03,2.479587e+03
1.042338e+03,2.472952e+03
1.045231e+03,2.467974e+03
1.048123e+03,2.455773e+03
1.051016e+03,2.461286e+03
1.053909e+03,2.460576e+03
1.056802e+03,2.459350e+03
1.059694e+03,2.455569e+03
1.062587e+03,2.456076e+03
1.065479e+03,2.452079e+03
1.068372e+03,2.454191e+03
1.071265e+03,2.452237e+03
1.074158e+03,2.442344e+03
1.077050e+03,2.440633e+03
1.079943e+03,2.421783e+03
1.082836e+03,2.434851e+03
1.085729e+03,2.444250e+03
1.088621e+03,2.441419e+03
1.091514e+03,2.442887e+03
1.094406e+03,2.448375e+03
1.097299e+03,2.426510e+03
1.100192e+03,2.422508e+03
1.103085e+03,2.425307e+03
1.105977e+03,2.413067e+03
1.108870e+03,2.406049e+03
1.111763e+03,2.404607e+03
1.114656e+03,2.431351e+03
1.117548e+03,2.424323e+03
1.120441e+03,2.416736e+03
1.123334e+03,2.414058e+03
1.126226e+03,2.426652e+03
1.129119e+03,2.422730e+03
1.132012e+03,2.430028e+03
1.134904e+03,2.424160e+03
1.137797e+03,2.406562e+03
1.140690e+03,2.411185e+03
1.143583e+03,2.391324e+03
1.146475e+03,2.393448e+03
1.149368e+03,2.401946e+03
1.152261e+03,2.407520e+03
1.155153e+03,2.406542e+03
1.158046e+03,2.392523e+03
1.160939e+03,2.373623e+03
1.163831e+03,2.354122e+03
1.166724e+03,2.341661e+03
1.169617e+03,2.334047e+03
1.172510e+03,2.333249e+03
1.175402e+03,2.345429e+03
1.178295e+03,2.348610e+03
1.181188e+03,2.354508e+03
1.184080e+03,2.344679e+03
1.186973e+03,2.343506e+03
1.189866e+03,2.325880e+03
1.192758e+03,2.313787e+03
1.195651e+03,2.323036e+03
1.198544e+03,2.317264e+03
1.201437e+03,2.289979e+03
1.204329e+03,2.289173e+03
1.207222e+03,2.304089e+03
1.210115e+03,2.303201e+03
1.213007e+03,2.306480e+03
1.215900e+03,2.301654e+03
1.218793e+03,2.284163e+03
1.221685e+03,2.287835e+03
1.224578e+03,2.304596e+03
1.227471e+03,2.286589e+03
1.230364e+03,2.272909e+03
1.233256e+03,2.258245e+03
1.236149e+03,2.266479e+03
1.239042e+03,2.251624e+03
1.241934e+03,2.261699e+03
1.244827e+03,2.240345e+03
1.247720e+03,2.233639e+03
1.250612e+03,2.242916e+03
1.253505e+03,2.243740e+03
1.256398e+03,2.232017e+03
1.259291e+03,2.238261e+03
1.262183e+03,2.234070e+03
1.265076e+03,2.221462e+03
1.267969e+03,2.236444e+03
1.270861e+03,2.246364e+03
1.273754e+03,2.233112e+03
1.276647e+03,2.249533e+03
1.279539e+03,2.261363e+03
1.282432e+03,2.263036e+03
1.285325e+03,2.260687e+03
1.288218e+03,2.243040e+03
1.291110e+03,2.239392e+03
1.294003e+03,2.229646e+03
1.296896e+03,2.210460e+03
1.299788e+03,2.198023e+03
1.302681e+03,2.193673e+03
1.305574e+03,2.195363e+03
1.308466e+03,2.193245e+03
1.311359e+03,2.191187e+03
1.314252e+03,2.183523e+03
1.317145e+03,2.186058e+03
1.320037e+03,2.175565e+03
1.322930e+03,2.181696e+03
1.325823e+03,2.174130e+03
1.328715e+03,2.186232e+03
1.331608e+03,2.180649e+03
1.334501e+03,2.193915e+03
1.337393e+03,2.199173e+03
1.340286e+03,2.189285e+03
1.343179e+03,2.188037e+03
1.346072e+03,2.189789e+03
1.348964e+03,2.155424e+03
1.351857e+03,2.175854e+03
1.354750e+03,2.164887e+03
1.357642e+03,2.161733e+03
1.360535e+03,2.149898e+03
1.363428e+03,2.140710e+03
1.366320e+03,2.149606e+03
1.369213e+03,2.137755e+03
1.372106e+03,2.131009e+03
1.374999e+03,2.128651e+03
1.377891e+03,2.135962e+03
1.380784e+03,2.107258e+03
1.383677e+03,2.118426e+03
1.386569e+03,2.101005e+03
1.389462e+03,2.086017e+03
1.392355e+03,2.086559e+03
1.395247e+03,2.066109e+03
1.398140e+03,2.072421e+03
1.401033e+03,2.064419e+03
1.403926e+03,2.057805e+03
1.406818e+03,2.075020e+03
1.409711e+03,2.077359e+03
1.412604e+03,2.072050e+03
1.415496e+03,2.063918e+03
1.418389e+03,2.061751e+03
1.421282e+03,2.052322e+03
1.424174e+03,2.053582e+03
1.427067e+03,2.037588e+03
1.429960e+03,2.050275e+03
1.432853e+03,2.040927e+03
1.435745e+03,2.020758e+03
1.438638e+03,2.004477e+03
1.441531e+03,2.021332e+03
1.444423e+03,2.009625e+03
1.447316e+03,2.007490e+03
1.450209e+03,1.988335e+03
1.453101e+03,2.001627e+03
1.455994e+03,1.992566e+03
1.458887e+03,1.990054e+03
1.461780e+03,1.984729e+03
1.464672e+03,1.993003e+03
1.467565e+03,1.974347e+03
1.470458e+03,1.987054e+03
1.473350e+03,1.967463e+03
1.476243e+03,1.983198e+03
1.479136e+03,1.973462e+03
1.482028e+03,1.967859e+03
1.484921e+03,1.958807e+03
1.487814e+03,1.973641e+03
1.490707e+03,1.970965e+03
1.493599e+03,1.960935e+03
1.496492e+03,1.966764e+03
1.499385e+03,1.961312e+03
1.502277e+03,1.950190e+03
1.505170e+03,1.942665e+03
1.508063e+03,1.938639e+03
1.510955e+03,1.942350e+03
1.513848e+03,1.944979e+03
1.516741e+03,1.931085e+03
1.519634e+03,1.924711e+03
1.522526e+03,1.923862e+03
1.525419e+03,1.913609e+03
1.528312e+03,1.910616e+03
1.531204e+03,1.905310e+03
1.534097e+03,1.908888e+03
1.536990e+03,1.891198e+03
1.539882e+03,1.893381e+03
1.542775e+03,1.905431e+03
1.545668e+03,1.893791e+03
1.548561e+03,1.890052e+03
1.551453e+03,1.887449e+03
1.554346e+03,1.893986e+03
1.557239e+03,1.894430e+03
1.560131e+03,1.900864e+03
1.563024e+03,1.884709e+03
1.565917e+03,1.897006e+03
1.568809e+03,1.908122e+03
1.571702e+03,1.892331e+03
1.574595e+03,1.897211e+03
1.577488e+03,1.902404e+03
1.580380e+03,1.895650e+03
1.583273e+03,1.919733e+03
1.586166e+03,1.889942e+03
1.589058e+03,1.893865e+03
1.591951e+03,1.881745e+03
1.594844e+03,1.880183e+03
1.597736e+03,1.846092e+03
1.600629e+03,1.863786e+03
1.603522e+03,1.843088e+03
1.606415e+03,1.831725e+03
1.609307e+03,1.844344e+03
1.612200e+03,1.829365e+03
1.615093e+03,1.834138e+03
1.617985e+03,1.825879e+03
1.620878e+03,1.812747e+03
1.623771e+03,1.812334e+03
1.626663e+03,1.811794e+03
1.629556e+03,1.795880e+03
1.632449e+03,1.785683e+03
1.635342e+03,1.794756e+03
1.638234e+03,1.787307e+03
1.641127e+03,1.777633e+03
1.644020e+03,1.791468e+03
1.646912e+03,1.784127e+03
1.649805e+03,1.775609e+03
1.652698e+03,1.765948e+03
1.655590e+03,1.768161e+03
1.658483e+03,1.759070e+03
1.661376e+03,1.757214e+03
1.664269e+03,1.754547e+03
1.667161e+03,1.747419e+03
1.670054e+03,1.741436e+03
1.672947e+03,1.740078e+03
1.675839e+03,1.751573e+03
1.678732e+03,1.731370e+03
1.681625e+03,1.726470e+03
1.684517e+03,1.723178e+03
1.687410e+03,1.728975e+03
1.690303e+03,1.727442e+03
1.693196e+03,1.725554e+03
1.696088e+03,1.722307e+03
1.698981e+03,1.693528e+03
1.701874e+03,1.720163e+03
1.704766e+03,1.707152e+03
1.707659e+03,1.691108e+03
1.710552e+03,1.697388e+03
1.713444e+03,1.706063e+03
1.716337e+03,1.705978e+03
1.719230e+03,1.703683e+03
1.722123e+03,1.680728e+03
1.725015e+03,1.681281e+03
1.727908e+03,1.678230e+03
1.730801e+03,1.676343e+03
1.733693e+03,1.679075e+03
1.736586e+03,1.657721e+03
1.739479e+03,1.663051e+03
1.742371e+03,1.661093e+03
1.745264e+03,1.664010e+03
1.748157e+03,1.658805e+03
1.751050e+03,1.656898e+03
1.753942e+03,1.655110e+03
1.756835e+03,1.650569e+03
1.759728e+03,1.655359e+03
1.762620e+03,1.647392e+03
1.765513e+03,1.651188e+03
1.768406e+03,1.637847e+03
1.771298e+03,1.639157e+03
1.774191e+03,1.608839e+03
1.777084e+03,1.627974e+03
1.779977e+03,1.616782e+03
1.782869e+03,1.610010e+03
1.785762e+03,1.612635e+03
1.788655e+03,1.607464e+03
1.791547e+03,1.604522e+03
1.794440e+03,1.599314e+03
1.797333e+03,1.590821e+03
1.800225e+03,1.595844e+03
1.803118e+03,1.592433e+03
1.806011e+03,1.574400e+03
1.808904e+03,1.594562e+03
1.811796e+03,1.573288e+03
1.814689e+03,1.582455e+03
1.817582e+03,1.575338e+03
1.820474e+03,1.574949e+03
1.823367e+03,1.572223e+03
1.826260e+03,1.556859e+03
1.829152e+03,1.546840e+03
1.832045e+03,1.554194e+03
1.834938e+03,1.558962e+03
1.837831e+03,1.555160e+03
1.840723e+03,1.544221e+03
1.843616e+03,1.547453e+03
1.846509e+03,1.543471e+03
1.849401e+03,1.537471e+03
1.852294e+03,1.533292e+03
1.855187e+03,1.511103e+03
1.858079e+03,1.514964e+03
1.860972e+03,1.541314e+03
1.863865e+03,1.518371e+03
1.866758e+03,1.509085e+03
1.869650e+03,1.516538e+03
1.872543e+03,1.499033e+03
1.875436e+03,1.496552e+03
1.878328e+03,1.491986e+03
1.881221e+03,1.491923e+03
1.884114e+03,1.483737e+03
1.887006e+03,1.486070e+03
1.889899e+03,1.465430e+03
1.892792e+03,1.482082e+03
1.895685e+03,1.461604e+03
1.898577e+03,1.484203e+03
1.901470e+03,1.463168e+03
1.904363e+03,1.470282e+03
1.907255e+03,1.473149e+03
1.910148e+03,1.462516e+03
1.913041e+03,1.451903e+03
1.915933e+03,1.451159e+03
1.918826e+03,1.463469e+03
1.921719e+03,1.453614e+03
1.924612e+03,1.437496e+03
1.927504e+03,1.449034e+03
1.930397e+03,1.439448e+03
1.933290e+03,1.431408e+03
1.936182e+03,1.418617e+03
1.939075e+03,1.433280e+03
1.941968e+03,1.421069e+03
1.944860e+03,1.430073e+03
1.947753e+03,1.419034e+03
1.950646e+03,1.421566e+03
1.953539e+03,1.398129e+03
1.956431e+03,1.414385e+03
1.959324e+03,1.395337e+03
1.962217e+03,1.394838e+03
1.965109e+03,1.406968e+03
1.968002e+03,1.403467e+03
1.970895e+03,1.385744e+03
1.973787e+03,1.379308e+03
1.976680e+03,1.371953e+03
1.979573e+03,1.367285e+03
1.982466e+03,1.367820e+03
1.985358e+03,1.373569e+03
1.988251e+03,1.368958e+03
1.991144e+03,1.363620e+03
1.994036e+03,1.344286e+03
1.996929e+03,1.357707e+03
1.999822e+03,1.355541e+03
2.002714e+03,1.349988e+03
2.005607e+03,1.341209e+03
2.008500e+03,1.333830e+03
2.011393e+03,1.323915e+03
2.014285e+03,1.321799e+03
2.017178e+03,1.327729e+03
2.020071e+03,1.330205e+03
2.022963e+03,1.312024e+03
2.025856e+03,1.305427e+03
2.028749e+03,1.318435e+03
2.031641e+03,1.317310e+03
2.034534e+03,1.301578e+03
2.037427e+03,1.315654e+03
2.040320e+03,1.304227e+03
2.043212e+03,1.280929e+03
2.046105e+03,1.308078e+03
2.048998e+03,1.296993e+03
2.051890e+03,1.270262e+03
2.054783e+03,1.271372e+03
2.057676e+03,1.271927e+03
2.060568e+03,1.285229e+03
2.063461e+03,1.270507e+03
2.066354e+03,1.255502e+03
2.069247e+03,1.273949e+03
2.072139e+03,1.253118e+03
2.075032e+03,1.257018e+03
2.077925e+03,1.254867e+03
2.080817e+03,1.235676e+03
2.083710e+03,1.239478e+03
2.086603e+03,1.238687e+03
2.089496e+03,1.236820e+03
2.092388e+03,1.238273e+03
2.095281e+03,1.245284e+03
2.098174e+03,1.234792e+03
2.101066e+03,1.225483e+03
2.103959e+03,1.230974e+03
2.106852e+03,1.217150e+03
2.109744e+03,1.229946e+03
2.112637e+03,1.205189e+03
2.115530e+03,1.202478e+03
2.118422e+03,1.203557e+03
2.121315e+03,1.216179e+03
2.124208e+03,1.203713e+03
2.127101e+03,1.189418e+03
2.129993e+03,1.196280e+03
2.132886e+03,1.199687e+03
2.135779e+03,1.172035e+03
2.138671e+03,1.172325e+03
2.141564e+03,1.176291e+03
2.144457e+03,1.160625e+03
2.147350e+03,1.158691e+03
2.150242e+03,1.169164e+03
2.153135e+03,1.161765e+03
2.156028e+03,1.155133e+03
2.158920e+03,1.145031e+03
2.161813e+03,1.149038e+03
2.164706e+03,1.143605e+03
2.167598e+03,1.144438e+03
2.170491e+03,1.145287e+03
2.173384e+03,1.145816e+03
2.176277e+03,1.135966e+03
2.179169e+03,1.121501e+03
2.182062e+03,1.135323e+03
2.184955e+03,1.125787e+03
2.187847e+03,1.146410e+03
2.190740e+03,1.131537e+03
2.193633e+03,1.131367e+03
2.196525e+03,1.111678e+03
2.199418e+03,1.120203e+03
2.202311e+03,1.123215e+03
2.205204e+03,1.110477e+03
2.208096e+03,1.099334e+03
2.210989e+03,1.092458e+03
2.213882e+03,1.078473e+03
2.216774e+03,1.096185e+03
2.219667e+03,1.100068e+03
2.222560e+03,1.086334e+03
2.225452e+03,1.076932e+03
2.228345e+03,1.066309e+03
2.231238e+03,1.082415e+03
2.234131e+03,1.078622e+03
2.237023e+03,1.075044e+03
2.239916e+03,1.048320e+03
2.242809e+03,1.057008e+03
2.245701e+03,1.071499e+03
2.248594e+03,1.042752e+03
2.251487e+03,1.039093e+03
2.254379e+03,1.041625e+03
2.257272e+03,1.057770e+03
2.260165e+03,1.034177e+03
2.263058e+03,1.042634e+03
2.265950e+03,1.036835e+03
2.268843e+03,1.029201e+03
2.271736e+03,1.021717e+03
2.274628e+03,1.010833e+03
2.277521e+03,1.017448e+03
2.280414e+03,1.023160e+03
2.283306e+03,1.023931e+03
2.286199e+03,1.006872e+03
2.289092e+03,1.004925e+03
2.291985e+03,9.998065e+02
2.294877e+03,1.006219e+03
2.297770e+03,1.014097e+03
2.300663e+03,9.981357e+02
2.303555e+03,1.005218e+03
2.306448e+03,9.767254e+02
2.309341e+03,9.879017e+02
2.312233e+03,9.846459e+02
2.315126e+03,9.878984e+02
2.318019e+03,9.803515e+02
2.320912e+03,9.765912e+02
2.323804e+03,9.780754e+02
2.326697e+03,9.797593e+02
2.329590e+03,9.722762e+02
2.332482e+03,9.688046e+02
2.335375e+03,9.568046e+02
2.338268e+03,9.613174e+02
2.341160e+03,9.508757e+02
2.344053e+03,9.746113e+02
2.346946e+03,9.593324e+02
2.349839e+03,9.525560e+02
2.352731e+03,9.554209e+02
2.355624e+03,9.442614e+02
2.358517e+03,9.560204e+02
2.361409e+03,9.423534e+02
2.364302e+03,9.458771e+02
2.367195e+03,9.225319e+02
2.370087e+03,9.402626e+02
2.372980e+03,9.303065e+02
2.375873e+03,9.225308e+02
2.378766e+03,9.333930e+02
2.381658e+03,9.203488e+02
2.384551e+03,9.192031e+02
2.387444e+03,9.218477e+02
2.390336e+03,9.187252e+02
2.393229e+03,9.109319e+02
2.396122e+03,9.173460e+02
2.399014e+03,9.189789e+02
2.401907e+03,9.083195e+02
2.404800e+03,9.040490e+02
2.407693e+03,9.108243e+02
2.410585e+03,8.904763e+02
2.413478e+03,8.950280e+02
2.416371e+03,8.980512e+02
2.419263e+03,8.834538e+02
2.422156e+03,8.940590e+02
2.425049e+03,8.825577e+02
2.427941e+03,8.842106e+02
2.430834e+03,8.742558e+02
2.433727e+03,8.761254e+02
2.436620e+03,8.693294e+02
2.439512e+03,8.607096e+02
2.442405e+03,8.606193e+02
2.445298e+03,8.681675e+02
2.448190e+03,8.650438e+02
2.451083e+03,8.744138e+02
2.453976e+03,8.582810e+02
2.456868e+03,8.748622e+02
2.459761e+03,8.556025e+02
2.462654e+03,8.590184e+02
2.465547e+03,8.472552e+02
2.468439e+03,8.362404e+02
2.471332e+03,8.430186e+02
2.474225e+03,8.541097e+02
2.477117e+03,8.275780e+02
2.480010e+03,8.502472e+02
2.482903e+03,8.318974e+02
2.485795e+03,8.472186e+02
2.488688e+03,8.440822e+02
2.491581e+03,8.152718e+02
2.494474e+03,8.313305e+02
2.497366e+03,8.263613e+02
2.500259e+03,8.197813e+02
2.503152e+03,8.253613e+02
2.506044e+03,8.192882e+02
2.508937e+03,8.215084e+02
2.511830e+03,8.146322e+02
2.514722e+03,8.178224e+02
2.517615e+03,8.120159e+02
2.520508e+03,8.085629e+02
2.523401e+03,8.068459e+02
2.526293e+03,7.997261e+02
2.529186e+03,7.815405e+02
2.532079e+03,8.079904e+02
2.534971e+03,8.032557e+02
2.537864e+03,7.929891e+02
2.540757e+03,8.030204e+02
2.543649e+03,8.035541e+02
2.546542e+03,7.908539e+02
2.549435e+03,7.926205e+02
2.552328e+03,8.014423e+02
2.555220e+03,8.044561e+02
2.558113e+03,7.795479e+02
2.561006e+03,7.875026e+02
2.563898e+03,7.766508e+02
2.566791e+03,7.758933e+02
2.569684e+03,7.777479e+02
2.572576e+03,7.882315e+02
2.575469e+03,7.744178e+02
2.578362e+03,7.693474e+02
2.581255e+03,7.723918e+02
2.584147e+03,7.464697e+02
2.587040e+03,7.567780e+02
2.589933e+03,7.605276e+02
2.592825e+03,7.464749e+02
2.595718e+03,7.516582e+02
2.598611e+03,7.505992e+02
2.601503e+03,7.604612e+02
2.604396e+03,7.473426e+02
2.607289e+03,7.375547e+02
2.610182e+03,7.426037e+02
2.613074e+03,7.249306e+02
2.615967e+03,7.456418e+02
2.618860e+03,7.353097e+02
2.621752e+03,7.271315e+02
2.624645e+03,7.283480e+02
2.627538e+03,7.405136e+02
2.630430e+03,7.409233e+02
2.633323e+03,7.333285e+02
2.636216e+03,7.298643e+02
2.639109e+03,7.336881e+02
2.642001e+03,7.297639e+02
2.644894e+03,7.193810e+02
2.647787e+03,7.321678e+02
2.650679e+03,7.155082e+02
2.653572e+03,7.041305e+02
2.656465e+03,7.166516e+02
2.659357e+03,7.125742e+02
2.662250e+03,7.177292e+02
2.665143e+03,7.077314e+02
2.668036e+03,7.099587e+02
2.670928e+03,7.038110e+02
2.673821e+03,7.105661e+02
2.676714e+03,7.030250e+02
2.679606e+03,6.979403e+02
2.682499e+03,7.058895e+02
2.685392e+03,6.954591e+02
2.688284e+03,6.920816e+02
2.691177e+03,6.822220e+02
2.694070e+03,6.945639e+02
2.696963e+03,6.799388e+02
2.699855e+03,7.067208e+02
2.702748e+03,6.906959e+02
2.705641e+03,6.909365e+02
2.708533e+03,6.883821e+02
2.711426e+03,6.863873e+02
2.714319e+03,6.807714e+02
2.717211e+03,6.766442e+02
2.720104e+03,6.725778e+02
2.722997e+03,6.912618e+02
2.725890e+03,6.685861e+02
2.728782e+03,6.740684e+02
2.731675e+03,6.768759e+02
2.734568e+03,6.902812e+02
2.737460e+03,6.655399e+02
2.740353e+03,6.732080e+02
2.743246e+03,6.691026e+02
2.746138e+03,6.750091e+02
2.749031e+03,6.563947e+02
2.751924e+03,6.644050e+02
2.754817e+03,6.631077e+02
2.757709e+03,6.549222e+02
2.760602e+03,6.631386e+02
2.763495e+03,6.529202e+02
2.766387e+03,6.720488e+02
2.769280e+03,6.556530e+02
2.772173e+03,6.508556e+02
2.775065e+03,6.541297e+02
2.777958e+03,6.382548e+02
2.780851e+03,6.501778e+02
2.783744e+03,6.579280e+02
2.786636e+03,6.430745e+02
2.789529e+03,6.414587e+02
2.792422e+03,6.495515e+02
2.795314e+03,6.332078e+02
2.798207e+03,6.465558e+02
2.801100e+03,6.463759e+02
2.803992e+03,6.277277e+02
2.806885e+03,6.330241e+02
2.809778e+03,6.434201e+02
2.812671e+03,6.339853e+02
2.815563e+03,6.253912e+02
2.818456e+03,6.062548e+02
2.821349e+03,6.248094e+02
2.824241e+03,6.220817e+02
2.827134e+03,6.210615e+02
2.830027e+03,6.269905e+02
2.832919e+03,6.173851e+02
2.835812e+03,6.349495e+02
2.838705e+03,6.099912e+02
2.841598e+03,6.330623e+02
2.844490e+03,6.335773e+02
2.847383e+03,6.276908e+02
2.850276e+03,6.312383e+02
2.853168e+03,6.373223e+02
2.856061e+03,6.196308e+02
2.858954e+03,6.207236e+02
2.861846e+03,6.331185e+02
2.864739e+03,6.375336e+02
2.867632e+03,6.234805e+02
2.870525e+03,6.304387e+02
2.873417e+03,6.294143e+02
2.876310e+03,6.426631e+02
2.879203e+03,6.135908e+02
2.882095e+03,6.248900e+02
2.884988e+03,6.243184e+02
2.887881e+03,6.254452e+02
2.890773e+03,6.235455e+02
2.893666e+03,6.412670e+02
2.896559e+03,6.388234e+02
2.899452e+03,6.289874e+02
2.902344e+03,6.196390e+02
2.905237e+03,6.244327e+02
2.908130e+03,6.230800e+02
2.911022e+03,6.170290e+02
2.913915e+03,6.110370e+02
2.916808e+03,5.841926e+02
2.919700e+03,6.123854e+02
2.922593e+03,6.133220e+02
2.925486e+03,5.985941e+02
2.928379e+03,5.796413e+02
2.931271e+03,5.828077e+02
2.934164e+03,5.985732e+02
2.937057e+03,5.806751e+02
2.939949e+03,5.750231e+02
2.942842e+03,5.749352e+02
2.945735e+03,5.899643e+02
2.948627e+03,5.906716e+02
2.951520e+03,5.949687e+02
2.954413e+03,5.938096e+02
2.957306e+03,6.015151e+02
2.960198e+03,6.132109e+02
2.963091e+03,5.859831e+02
2.965984e+03,5.970071e+02
2.968876e+03,5.790126e+02
2.971769e+03,5.708779e+02
2.974662e+03,5.259213e+02
2.977554e+03,5.549768e+02
2.980447e+03,5.431839e+02
2.983340e+03,5.848349e+02
2.986233e+03,5.490740e+02
2.989125e+03,5.463259e+02
2.992018e+03,5.624661e+02
2.994911e+03,5.534612e+02
2.997803e+03,5.592169e+02
3.000696e+03,5.431531e+02
3.003589e+03,5.423953e+02
3.006481e+03,5.505668e+02
3.009374e+03,5.536840e+02
3.012267e+03,5.628320e+02
3.015160e+03,5.388071e+02
3.018052e+03,5.520631e+02
3.020945e+03,5.375012e+02
3.023838e+03,5.532546e+02
3.026730e+03,5.324453e+02
3.029623e+03,5.500494e+02
3.032516e+03,5.659137e+02
3.035408e+03,4.958271e+02
3.038301e+03,5.482764e+02
3.041194e+03,5.538400e+02
3.044087e+03,5.019490e+02
3.046979e+03,5.422158e+02
3.049872e+03,5.420981e+02
3.052765e+03,5.453857e+02
3.055657e+03,5.295354e+02
3.058550e+03,5.419472e+02
3.061443e+03,5.336954e+02
3.064335e+03,5.340048e+02
3.067228e+03,5.236263e+02
3.070121e+03,5.091754e+02
3.073014e+03,5.370768e+02
3.075906e+03,5.410094e+02
3.078799e+03,5.107024e+02
3.081692e+03,5.553408e+02
3.084584e+03,5.216042e+02
3.087477e+03,5.294698e+02
3.090370e+03,5.352791e+02
3.093262e+03,5.303438e+02
3.096155e+03,5.396076e+02
3.099048e+03,5.045322e+02
3.101941e+03,5.374154e+02
3.104833e+03,5.371796e+02
3.107726e+03,5.327832e+02
3.110619e+03,5.403389e+02
3.113511e+03,5.135656e+02
3.116404e+03,4.911551e+02
3.119297e+03,5.101772e+02
3.122189e+03,5.404287e+02
3.125082e+03,5.375203e+02
3.127975e+03,5.446396e+02
3.130868e+03,5.458147e+02
3.133760e+03,5.373358e+02
3.136653e+03,5.020938e+02
3.139546e+03,5.327806e+02
3.142438e+03,5.017021e+02
3.145331e+03,5.188476e+02
3.148224e+03,5.238314e+02
3.151116e+03,5.478956e+02
3.154009e+03,5.628727e+02
3.156902e+03,5.219955e+02
3.159795e+03,4.960755e+02
3.162687e+03,5.064391e+02
3.165580e+03,5.143639e+02
3.168473e+03,5.039492e+02
3.171365e+03,5.031979e+02
3.174258e+03,5.125720e+02
3.177151e+03,5.152082e+02
3.180043e+03,5.212265e+02
3.182936e+03,5.436887e+02
3.185829e+03,5.459479e+02
3.188722e+03,4.957577e+02
3.191614e+03,5.073485e+02
3.194507e+03,5.343618e+02
3.197400e+03,5.018267e+02
3.200292e+03,5.313133e+02
3.203185e+03,0.000000e+00
3.206078e+03,0.000000e+00
3.208970e+03,0.000000e+00
3.211863e+03,0.000000e+00
3.214756e+03,0.000000e+00
3.217649e+03,0.000000e+00
3.220541e+03,0.000000e+00
3.223434e+03,0.000000e+00
3.226327e+03,0.000000e+00
3.229219e+03,0.000000e+00
3.232112e+03,0.000000e+00
3.235005e+03,0.000000e+00
3.237897e+03,0.000000e+00
3.240790e+03,0.000000e+00
3.243683e+03,0.000000e+00
3.246576e+03,0.000000e+00
3.249468e+03,0.000000e+00
3.252361e+03,0.000000e+00
3.255254e+03,0.000000e+00
3.258146e+03,0.000000e+00
3.261039e+03,0.000000e+00
3.263932e+03,0.000000e+00
3.266824e+03,0.000000e+00
3.269717e+03,0.000000e+00
3.272610e+03,0.000000e+00
3.275503e+03,0.000000e+00
3.278395e+03,0.000000e+00
3.281288e+03,0.000000e+00
3.284181e+03,0.000000e+00
3.287073e+03,0.000000e+00
3.289966e+03,0.000000e+00
3.292859e+03,0.000000e+00
3.295751e+03,0.000000e+00
3.298644e+03,0.000000e+00
3.301537e+03,0.000000e+00
3.304430e+03,0.000000e+00
3.307322e+03,0.000000e+00
3.310215e+03,0.000000e+00
3.313108e+03,0.000000e+00
3.316000e+03,0.000000e+00
3.318893e+03,0.000000e+00
3.321786e+03,0.000000e+00
3.324678e+03,0.000000e+00
3.327571e+03,0.000000e+00
3.330464e+03,0.000000e+00
3.333357e+03,0.000000e+00
3.336249e+03,0.000000e+00
3.339142e+03,0.000000e+00
3.342035e+03,0.000000e+00
3.344927e+03,0.000000e+00
3.347820e+03,0.000000e+00
3.350713e+03,0.000000e+00
3.353605e+03,0.000000e+00
3.356498e+03,0.000000e+00
3.359391e+03,0.000000e+00
3.362284e+03,0.000000e+00
3.365176e+03,0.000000e+00
3.368069e+03,0.000000e+00
3.370962e+03,0.000000e+00
3.373854e+03,0.000000e+00
3.376747e+03,0.000000e+00
3.379640e+03,0.000000e+00
3.382532e+03,0.000000e+00
3.385425e+03,0.000000e+00
3.388318e+03,0.000000e+00
3.391211e+03,0.000000e+00
3.394103e+03,0.000000e+00
3.396996e+03,0.000000e+00
3.399889e+03,0.000000e+00
3.402781e+03,0.000000e+00
3.405674e+03,0.000000e+00
3.408567e+03,0.000000e+00
3.411459e+03,0.000000e+00
3.414352e+03,0.000000e+00
3.417245e+03,0.000000e+00
3.420138e+03,0.000000e+00
3.423030e+03,0.000000e+00
3.425923e+03,0.000000e+00
3.428816e+03,0.000000e+00
3.431708e+03,0.000000e+00
3.434601e+03,0.000000e+00
3.437494e+03,0.000000e+00
3.440386e+03,0.000000e+00
3.443279e+03,0.000000e+00
3.446172e+03,0.000000e+00
3.449065e+03,0.000000e+00
3.451957e+03,0.000000e+00
3.454850e+03,0.000000e+00
3.457743e+03,0.000000e+00
3.460635e+03,0.000000e+00
3.463528e+03,0.000000e+00
3.466421e+03,0.000000e+00
3.469313e+03,0.000000e+00
3.472206e+03,0.000000e+00
3.475099e+03,0.000000e+00
3.477992e+03,0.000000e+00
3.480884e+03,0.000000e+00
3.483777e+03,0.000000e+00
3.486670e+03,0.000000e+00
3.489563e+03,0.000000e+00
3.492455e+03,0.000000e+00
3.495348e+03,0.000000e+00
3.498240e+03,0.000000e+00
3.500169e+03,0.000000e+00