File: RAMAN_data/06022023_r2/black fibre2.CSV
9.931763e+01,0.000000e+00
1.022103e+02,0.000000e+00
1.051030e+02,0.000000e+00
1.079957e+02,0.000000e+00
1.108884e+02,0.000000e+00
1.137811e+02,0.000000e+00
1.166738e+02,0.000000e+00
1.195665e+02,0.000000e+00
1.224592e+02,0.000000e+00
1.253519e+02,0.000000e+00
1.282446e+02,0.000000e+00
1.311373e+02,0.000000e+00
1.340300e+02,0.000000e+00
1.369227e+02,0.000000e+00
1.398154e+02,0.000000e+00
1.427081e+02,0.000000e+00
1.456008e+02,0.000000e+00
1.484935e+02,0.000000e+00
1.513862e+02,0.000000e+00
1.542789e+02,0.000000e+00
1.571716e+02,0.000000e+00
1.600643e+02,0.000000e+00
1.629570e+02,0.000000e+00
1.658497e+02,0.000000e+00
1.687424e+02,0.000000e+00
1.716351e+02,0.000000e+00
1.745278e+02,0.000000e+00
1.774205e+02,0.000000e+00
1.803132e+02,0.000000e+00
1.832059e+02,0.000000e+00
1.860986e+02,0.000000e+00
1.889913e+02,0.000000e+00
1.918840e+02,0.000000e+00
1.947767e+02,0.000000e+00
1.976694e+02,0.000000e+00
2.005621e+02,1.026916e+03
2.034548e+02,1.017672e+03
2.063475e+02,1.017547e+03
2.092402e+02,1.010225e+03
2.121329e+02,1.018150e+03
2.150256e+02,1.017709e+03
2.179183e+02,1.018138e+03
2.208110e+02,1.026203e+03
2.237037e+02,1.020874e+03
2.265964e+02,1.015235e+03
2.294892e+02,1.015822e+03
2.323819e+02,1.017435e+03
2.352746e+02,1.017864e+03
2.381673e+02,1.016693e+03
2.410600e+02,1.013446e+03
2.439527e+02,1.018166e+03
2.468454e+02,1.020652e+03
2.497381e+02,1.018694e+03
2.526308e+02,1.012801e+03
2.555235e+02,1.021270e+03
2.584161e+02,1.024600e+03
2.613088e+02,1.019395e+03
2.642015e+02,1.017914e+03
2.670942e+02,1.025340e+03
2.699869e+02,1.027702e+03
2.728796e+02,1.022363e+03
2.757723e+02,1.018827e+03
2.786650e+02,1.023199e+03
2.815577e+02,1.028613e+03
2.844504e+02,1.025422e+03
2.873431e+02,1.019907e+03
2.902358e+02,1.022075e+03
2.931285e+02,1.023758e+03
2.960212e+02,1.018945e+03
2.989139e+02,1.024246e+03
3.018066e+02,1.028220e+03
3.046993e+02,1.026307e+03
3.075920e+02,1.011493e+03
3.104847e+02,1.018294e+03
3.133774e+02,1.016131e+03
3.162701e+02,1.018549e+03
3.191628e+02,1.013938e+03
3.220555e+02,1.020777e+03
3.249482e+02,1.024556e+03
3.278409e+02,1.030467e+03
3.307336e+02,1.023146e+03
3.336263e+02,1.020481e+03
3.365190e+02,1.023008e+03
3.394117e+02,1.024380e+03
3.423044e+02,1.027470e+03
3.451971e+02,1.015485e+03
3.480898e+02,1.028404e+03
3.509825e+02,1.016892e+03
3.538752e+02,1.017685e+03
3.567680e+02,1.015816e+03
3.596607e+02,1.018437e+03
3.625534e+02,1.022807e+03
3.654461e+02,1.011677e+03
3.683388e+02,1.018613e+03
3.712315e+02,1.029637e+03
3.741242e+02,1.035220e+03
3.770169e+02,1.025490e+03
3.799096e+02,1.032533e+03
3.828023e+02,1.026986e+03
3.856950e+02,1.016825e+03
3.885877e+02,1.010120e+03
3.914804e+02,1.005452e+03
3.943731e+02,1.006276e+03
3.972658e+02,1.006348e+03
4.001585e+02,1.005768e+03
4.030512e+02,1.004875e+03
4.059439e+02,1.003771e+03
4.088366e+02,1.012947e+03
4.117293e+02,1.005828e+03
4.146220e+02,9.966238e+02
4.175147e+02,1.011880e+03
4.204074e+02,9.990921e+02
4.233001e+02,1.008673e+03
4.261928e+02,1.000731e+03
4.290855e+02,1.001211e+03
4.319782e+02,1.010515e+03
4.348709e+02,1.006352e+03
4.377636e+02,1.004674e+03
4.406563e+02,1.010333e+03
4.435490e+02,9.962682e+02
4.464417e+02,9.992927e+02
4.493344e+02,1.002962e+03
4.522271e+02,1.002883e+03
4.551198e+02,1.010072e+03
4.580125e+02,9.973688e+02
4.609052e+02,9.899197e+02
4.637979e+02,9.816663e+02
4.666906e+02,9.881021e+02
4.695833e+02,9.861541e+02
4.724760e+02,9.792264e+02
4.753687e+02,9.818259e+02
4.782614e+02,9.865389e+02
4.811541e+02,9.906305e+02
4.840468e+02,9.813661e+02
4.869395e+02,9.857516e+02
4.898322e+02,9.799455e+02
4.927249e+02,9.953448e+02
4.956176e+02,9.822931e+02
4.985103e+02,9.765915e+02
5.014030e+02,9.750187e+02
5.042957e+02,9.788485e+02
5.071884e+02,9.788730e+02
5.100811e+02,9.741230e+02
5.129738e+02,9.801334e+02
5.158665e+02,9.823688e+02
5.187592e+02,9.787271e+02
5.216519e+02,9.755590e+02
5.245446e+02,9.755189e+02
5.274373e+02,9.761773e+02
5.303300e+02,9.604620e+02
5.332227e+02,9.632615e+02
5.361154e+02,9.658648e+02
5.390081e+02,9.650394e+02
5.419008e+02,9.679240e+02
5.447935e+02,9.676888e+02
5.476862e+02,9.681605e+02
5.505789e+02,9.602179e+02
5.534716e+02,9.602359e+02
5.563643e+02,9.535662e+02
5.592570e+02,9.594371e+02
5.621497e+02,9.706653e+02
5.650424e+02,9.537798e+02
5.679351e+02,9.550730e+02
5.708278e+02,9.535059e+02
5.737205e+02,9.513723e+02
5.766132e+02,9.498298e+02
5.795059e+02,9.511835e+02
5.823986e+02,9.516075e+02
5.852913e+02,9.555367e+02
5.881840e+02,9.439152e+02
5.910767e+02,9.551506e+02
5.939694e+02,9.558710e+02
5.968621e+02,9.490526e+02
5.997548e+02,9.553083e+02
6.026475e+02,9.480303e+02
6.055402e+02,9.421771e+02
6.084329e+02,9.348787e+02
6.113256e+02,9.412981e+02
6.142183e+02,9.328151e+02
6.171110e+02,9.380657e+02
6.200037e+02,9.320293e+02
6.228964e+02,9.382630e+02
6.257891e+02,9.450504e+02
6.286818e+02,9.411281e+02
6.315745e+02,9.274979e+02
6.344672e+02,9.251070e+02
6.373599e+02,9.261139e+02
6.402526e+02,9.350765e+02
6.431453e+02,9.241502e+02
6.460380e+02,9.195267e+02
6.489307e+02,9.271894e+02
6.518234e+02,9.267349e+02
6.547161e+02,9.164532e+02
6.576088e+02,9.163923e+02
6.605015e+02,9.095546e+02
6.633942e+02,9.168206e+02
6.662869e+02,9.191152e+02
6.691796e+02,9.096478e+02
6.720723e+02,9.126936e+02
6.749650e+02,9.130027e+02
6.778577e+02,9.176013e+02
6.807504e+02,9.093430e+02
6.836431e+02,9.090609e+02
6.865358e+02,9.150759e+02
6.894285e+02,9.062048e+02
6.923212e+02,9.056686e+02
6.952139e+02,9.011367e+02
6.981066e+02,9.028370e+02
7.009993e+02,9.087412e+02
7.038920e+02,8.995853e+02
7.067847e+02,8.973143e+02
7.096774e+02,8.990382e+02
7.125701e+02,8.975062e+02
7.154628e+02,8.953281e+02
7.183555e+02,8.886304e+02
7.212482e+02,8.937472e+02
7.241409e+02,8.931198e+02
7.270336e+02,8.810027e+02
7.299263e+02,8.787133e+02
7.328190e+02,8.790220e+02
7.357117e+02,8.840218e+02
7.386044e+02,8.837309e+02
7.414971e+02,8.863793e+02
7.443898e+02,8.862166e+02
7.472825e+02,8.791289e+02
7.501752e+02,8.718633e+02
7.530679e+02,8.730988e+02
7.559606e+02,8.795539e+02
7.588533e+02,8.698510e+02
7.617460e+02,8.789246e+02
7.646387e+02,8.792364e+02
7.675314e+02,8.774908e+02
7.704241e+02,8.652574e+02
7.733168e+02,8.703356e+02
7.762095e+02,8.685644e+02
7.791022e+02,8.656577e+02
7.819949e+02,8.643777e+02
7.848876e+02,8.607685e+02
7.877803e+02,8.611018e+02
7.906730e+02,8.628254e+02
7.935657e+02,8.582966e+02
7.964584e+02,8.492510e+02
7.993511e+02,8.615471e+02
8.022438e+02,8.556804e+02
8.051365e+02,8.481020e+02
8.080292e+02,8.527334e+02
8.109219e+02,8.522574e+02
8.138146e+02,8.473268e+02
8.167073e+02,8.532280e+02
8.196000e+02,8.400843e+02
8.224927e+02,8.442937e+02
8.253854e+02,8.481906e+02
8.282781e+02,8.450204e+02
8.311708e+02,8.381477e+02
8.340635e+02,8.338260e+02
8.369562e+02,8.415729e+02
8.398489e+02,8.399826e+02
8.427416e+02,8.338130e+02
8.456343e+02,8.359261e+02
8.485270e+02,8.333840e+02
8.514197e+02,8.325506e+02
8.543124e+02,8.301451e+02
8.572051e+02,8.354102e+02
8.600978e+02,8.302084e+02
8.629905e+02,8.331675e+02
8.658832e+02,8.190020e+02
8.687759e+02,8.309157e+02
8.716686e+02,8.204822e+02
8.745613e+02,8.268645e+02
8.774540e+02,8.219590e+02
8.803467e+02,8.244059e+02
8.832394e+02,8.237061e+02
8.861321e+02,8.226756e+02
8.890248e+02,8.199719e+02
8.919175e+02,8.162957e+02
8.948102e+02,8.104216e+02
8.977029e+02,8.032055e+02
9.005956e+02,8.086427e+02
9.034883e+02,8.114288e+02
9.063810e+02,8.101350e+02
9.092737e+02,8.041954e+02
9.121664e+02,7.999952e+02
9.150591e+02,8.030569e+02
9.179518e+02,7.946674e+02
9.208445e+02,8.004462e+02
9.237372e+02,7.879545e+02
9.266299e+02,7.916152e+02
9.295226e+02,7.947109e+02
9.324153e+02,7.843103e+02
9.353080e+02,7.858086e+02
9.382007e+02,7.873807e+02
9.410934e+02,7.806077e+02
9.439861e+02,7.751418e+02
9.468788e+02,7.779287e+02
9.497715e+02,7.790339e+02
9.526642e+02,7.790025e+02
9.555569e+02,7.750028e+02
9.584496e+02,7.767279e+02
9.613423e+02,7.749795e+02
9.642350e+02,7.805939e+02
9.671277e+02,7.677119e+02
9.700204e+02,7.690966e+02
9.729131e+02,7.646977e+02
9.758058e+02,7.666055e+02
9.786985e+02,7.687077e+02
9.815912e+02,7.631769e+02
9.844839e+02,7.558338e+02
9.873766e+02,7.732867e+02
9.902693e+02,7.669413e+02
9.931620e+02,7.637024e+02
9.960547e+02,7.569016e+02
9.989474e+02,7.565094e+02
1.001840e+03,7.610164e+02
1.004733e+03,7.459378e+02
1.007626e+03,7.435554e+02
1.010518e+03,7.517244e+02
1.013411e+03,7.471780e+02
1.016304e+03,7.494871e+02
1.019196e+03,7.438978e+02
1.022089e+03,7.471793e+02
1.024982e+03,7.462473e+02
1.027875e+03,7.399053e+02
1.030767e+03,7.387165e+02
1.033660e+03,7.457976e+02
1.036552e+03,7.367048e+02
1.039445e+03,7.359150e+02
1.042338e+03,7.321570e+02
1.045231e+03,7.418594e+02
1.048123e+03,7.377177e+02
1.051016e+03,7.367909e+02
1.053909e+03,7.411430e+02
1.056802e+03,7.287942e+02
1.059694e+03,7.305243e+02
1.062587e+03,7.295974e+02
1.065479e+03,7.298505e+02
1.068372e+03,7.347143e+02
1.071265e+03,7.287512e+02
1.074158e+03,7.347468e+02
1.077050e+03,7.184891e+02
1.079943e+03,7.167584e+02
1.082836e+03,7.346818e+02
1.085729e+03,7.280997e+02
1.088621e+03,7.384957e+02
1.091514e+03,7.456900e+02
1.094406e+03,7.480277e+02
1.097299e+03,7.395690e+02
1.100192e+03,7.331630e+02
1.103085e+03,7.234354e+02
1.105977e+03,7.234442e+02
1.108870e+03,7.231545e+02
1.111763e+03,7.195012e+02
1.114656e+03,7.153018e+02
1.117548e+03,7.271090e+02
1.120441e+03,7.227178e+02
1.123334e+03,7.288013e+02
1.126226e+03,7.076183e+02
1.129119e+03,7.106376e+02
1.132012e+03,6.991428e+02
1.134904e+03,7.022491e+02
1.137797e+03,6.932003e+02
1.140690e+03,6.953818e+02
1.143583e+03,6.989141e+02
1.146475e+03,6.964401e+02
1.149368e+03,6.956122e+02
1.152261e+03,6.952920e+02
1.155153e+03,6.902778e+02
1.158046e+03,6.848653e+02
1.160939e+03,6.832850e+02
1.163831e+03,6.900657e+02
1.166724e+03,6.843660e+02
1.169617e+03,6.755470e+02
1.172510e+03,6.705544e+02
1.175402e+03,6.726360e+02
1.178295e+03,6.712288e+02
1.181188e+03,6.737570e+02
1.184080e+03,6.722988e+02
1.186973e+03,6.651446e+02
1.189866e+03,6.690800e+02
1.192758e+03,6.621172e+02
1.195651e+03,6.717148e+02
1.198544e+03,6.720999e+02
1.201437e+03,6.648162e+02
1.204329e+03,6.616613e+02
1.207222e+03,6.598030e+02
1.210115e+03,6.581800e+02
1.213007e+03,6.615380e+02
1.215900e+03,6.598183e+02
1.218793e+03,6.499040e+02
1.221685e+03,6.545984e+02
1.224578e+03,6.539214e+02
1.227471e+03,6.479752e+02
1.230364e+03,6.547308e+02
1.233256e+03,6.476246e+02
1.236149e+03,6.492133e+02
1.239042e+03,6.464211e+02
1.241934e+03,6.468645e+02
1.244827e+03,6.455201e+02
1.247720e+03,6.473672e+02
1.250612e+03,6.401715e+02
1.253505e+03,6.476036e+02
1.256398e+03,6.419183e+02
1.259291e+03,6.384490e+02
1.262183e+03,6.450816e+02
1.265076e+03,6.403813e+02
1.267969e+03,6.329805e+02
1.270861e+03,6.413449e+02
1.273754e+03,6.350355e+02
1.276647e+03,6.370947e+02
1.279539e+03,6.429768e+02
1.282432e+03,6.403890e+02
1.285325e+03,6.383134e+02
1.288218e+03,6.328295e+02
1.291110e+03,6.379310e+02
1.294003e+03,6.381511e+02
1.296896e+03,6.320660e+02
1.299788e+03,6.265543e+02
1.302681e+03,6.245762e+02
1.305574e+03,6.284579e+02
1.308466e+03,6.202257e+02
1.311359e+03,6.246367e+02
1.314252e+03,6.250797e+02
1.317145e+03,6.246417e+02
1.320037e+03,6.295013e+02
1.322930e+03,6.253832e+02
1.325823e+03,6.255678e+02
1.328715e+03,6.213795e+02
1.331608e+03,6.272587e+02
1.334501e+03,6.248789e+02
1.337393e+03,6.314706e+02
1.340286e+03,6.219247e+02
1.343179e+03,6.194136e+02
1.346072e+03,6.226775e+02
1.348964e+03,6.143801e+02
1.351857e+03,6.115814e+02
1.354750e+03,6.115150e+02
1.357642e+03,6.150215e+02
1.360535e+03,6.117820e+02
1.363428e+03,6.087797e+02
1.366320e+03,6.099080e+02
1.369213e+03,6.112468e+02
1.372106e+03,6.123836e+02
1.374999e+03,6.075121e+02
1.377891e+03,6.108144e+02
1.380784e+03,6.087084e+02
1.383677e+03,6.060397e+02
1.386569e+03,6.000950e+02
1.389462e+03,5.993703e+02
1.392355e+03,5.947985e+02
1.395247e+03,5.883019e+02
1.398140e+03,5.956884e+02
1.401033e+03,5.916228e+02
1.403926e+03,5.930997e+02
1.406818e+03,5.868725e+02
1.409711e+03,5.894130e+02
1.412604e+03,5.830969e+02
1.415496e+03,5.815663e+02
1.418389e+03,5.860569e+02
1.421282e+03,5.820068e+02
1.424174e+03,5.804124e+02
1.427067e+03,5.854727e+02
1.429960e+03,5.793383e+02
1.432853e+03,5.805207e+02
1.435745e+03,5.638760e+02
1.438638e+03,5.722640e+02
1.441531e+03,5.706689e+02
1.444423e+03,5.816063e+02
1.447316e+03,5.768928e+02
1.450209e+03,5.665219e+02
1.453101e+03,5.728875e+02
1.455994e+03,5.681605e+02
1.458887e+03,5.680272e+02
1.461780e+03,5.589081e+02
1.464672e+03,5.658621e+02
1.467565e+03,5.592368e+02
1.470458e+03,5.592644e+02
1.473350e+03,5.572830e+02
1.476243e+03,5.632323e+02
1.479136e+03,5.549260e+02
1.482028e+03,5.646390e+02
1.484921e+03,5.543798e+02
1.487814e+03,5.521855e+02
1.490707e+03,5.453694e+02
1.493599e+03,5.440065e+02
1.496492e+03,5.480227e+02
1.499385e+03,5.404631e+02
1.502277e+03,5.442530e+02
1.505170e+03,5.493340e+02
1.508063e+03,5.435805e+02
1.510955e+03,5.460723e+02
1.513848e+03,5.417327e+02
1.516741e+03,5.335197e+02
1.519634e+03,5.470775e+02
1.522526e+03,5.466273e+02
1.525419e+03,5.409742e+02
1.528312e+03,5.411994e+02
1.531204e+03,5.375302e+02
1.534097e+03,5.325304e+02
1.536990e+03,5.348192e+02
1.539882e+03,5.379786e+02
1.542775e+03,5.314631e+02
1.545668e+03,5.322800e+02
1.548561e+03,5.349266e+02
1.551453e+03,5.309832e+02
1.554346e+03,5.300269e+02
1.557239e+03,5.282585e+02
1.560131e+03,5.217961e+02
1.563024e+03,5.240118e+02
1.565917e+03,5.284395e+02
1.568809e+03,5.218290e+02
1.571702e+03,5.229128e+02
1.574595e+03,5.234056e+02
1.577488e+03,5.189153e+02
1.580380e+03,5.217432e+02
1.583273e+03,5.207402e+02
1.586166e+03,5.189742e+02
1.589058e+03,5.200515e+02
1.591951e+03,5.305094e+02
1.594844e+03,5.142531e+02
1.597736e+03,5.132205e+02
1.600629e+03,5.206839e+02
1.603522e+03,5.164437e+02
1.606415e+03,5.151219e+02
1.609307e+03,5.169409e+02
1.612200e+03,5.048451e+02
1.615093e+03,5.090909e+02
1.617985e+03,5.011469e+02
1.620878e+03,5.074940e+02
1.623771e+03,5.014434e+02
1.626663e+03,4.959718e+02
1.629556e+03,5.095922e+02
1.632449e+03,5.020478e+02
1.635342e+03,5.002589e+02
1.638234e+03,4.978147e+02
1.641127e+03,5.065079e+02
1.644020e+03,4.874584e+02
1.646912e+03,4.889685e+02
1.649805e+03,4.938059e+02
1.652698e+03,4.871794e+02
1.655590e+03,4.911668e+02
1.658483e+03,4.941994e+02
1.661376e+03,4.895150e+02
1.664269e+03,4.885560e+02
1.667161e+03,4.839445e+02
1.670054e+03,4.852794e+02
1.672947e+03,4.840947e+02
1.675839e+03,4.810878e+02
1.678732e+03,4.784819e+02
1.681625e+03,4.788583e+02
1.684517e+03,4.805372e+02
1.687410e+03,4.796038e+02
1.690303e+03,4.766586e+02
1.693196e+03,4.760704e+02
1.696088e+03,4.737550e+02
1.698981e+03,4.726779e+02
1.701874e+03,4.712233e+02
1.704766e+03,4.733065e+02
1.707659e+03,4.726629e+02
1.710552e+03,4.699373e+02
1.713444e+03,4.672652e+02
1.716337e+03,4.729798e+02
1.719230e+03,4.686476e+02
1.722123e+03,4.656879e+02
1.725015e+03,4.566606e+02
1.727908e+03,4.597564e+02
1.730801e+03,4.604329e+02
1.733693e+03,4.601237e+02
1.736586e+03,4.590020e+02
1.739479e+03,4.621859e+02
1.742371e+03,4.574385e+02
1.745264e+03,4.636300e+02
1.748157e+03,4.490516e+02
1.751050e+03,4.643083e+02
1.753942e+03,4.590549e+02
1.756835e+03,4.555991e+02
1.759728e+03,4.423090e+02
1.762620e+03,4.491216e+02
1.765513e+03,4.453847e+02
1.768406e+03,4.559120e+02
1.771298e+03,4.519184e+02
1.774191e+03,4.475432e+02
1.777084e+03,4.500218e+02
1.779977e+03,4.438781e+02
1.782869e+03,4.411969e+02
1.785762e+03,4.395566e+02
1.788655e+03,4.376631e+02
1.791547e+03,4.349655e+02
1.794440e+03,4.405316e+02
1.797333e+03,4.381211e+02
1.800225e+03,4.325407e+02
1.803118e+03,4.362995e+02
1.806011e+03,4.360629e+02
1.808904e+03,4.321163e+02
1.811796e+03,4.313790e+02
1.814689e+03,4.312940e+02
1.817582e+03,4.312792e+02
1.820474e+03,4.237132e+02
1.823367e+03,4.395412e+02
1.826260e+03,4.207950e+02
1.829152e+03,4.326566e+02
1.832045e+03,4.283033e+02
1.834938e+03,4.160522e+02
1.837831e+03,4.233233e+02
1.840723e+03,4.220927e+02
1.843616e+03,4.244892e+02
1.846509e+03,4.182180e+02
1.849401e+03,4.149260e+02
1.852294e+03,4.104869e+02
1.855187e+03,4.159633e+02
1.858079e+03,4.137587e+02
1.860972e+03,4.146837e+02
1.863865e+03,4.168492e+02
1.866758e+03,4.128858e+02
1.869650e+03,4.078820e+02
1.872543e+03,4.083498e+02
1.875436e+03,4.117294e+02
1.878328e+03,4.040760e+02
1.881221e+03,4.019244e+02
1.884114e+03,3.952748e+02
1.887006e+03,4.004545e+02
1.889899e+03,3.986317e+02
1.892792e+03,3.986787e+02
1.895685e+03,3.959751e+02
1.898577e+03,3.989919e+02
1.901470e+03,4.012189e+02
1.904363e+03,3.912688e+02
1.907255e+03,3.936953e+02
1.910148e+03,3.955929e+02
1.913041e+03,3.983148e+02
1.915933e+03,3.896468e+02
1.918826e+03,3.937818e+02
1.921719e+03,3.863307e+02
1.924612e+03,4.015879e+02
1.927504e+03,3.831859e+02
1.930397e+03,3.860372e+02
1.933290e+03,3.887462e+02
1.936182e+03,3.914104e+02
1.939075e+03,3.868802e+02
1.941968e+03,3.828271e+02
1.944860e+03,3.796869e+02
1.947753e+03,3.763834e+02
1.950646e+03,3.824308e+02
1.953539e+03,3.795753e+02
1.956431e+03,3.730582e+02
1.959324e+03,3.797613e+02
1.962217e+03,3.800160e+02
1.965109e+03,3.637751e+02
1.968002e+03,3.731036e+02
1.970895e+03,3.702846e+02
1.973787e+03,3.764994e+02
1.976680e+03,3.730068e+02
1.979573e+03,3.693571e+02
1.982466e+03,3.701157e+02
1.985358e+03,3.717027e+02
1.988251e+03,3.694947e+02
1.991144e+03,3.563224e+02
1.994036e+03,3.652562e+02
1.996929e+03,3.723226e+02
1.999822e+03,3.678930e+02
2.002714e+03,3.584306e+02
2.005607e+03,3.652232e+02
2.008500e+03,3.629738e+02
2.011393e+03,3.685274e+02
2.014285e+03,3.566729e+02
2.017178e+03,3.600727e+02
2.020071e+03,3.552996e+02
2.022963e+03,3.556606e+02
2.025856e+03,3.571905e+02
2.028749e+03,3.530863e+02
2.031641e+03,3.464536e+02
2.034534e+03,3.466281e+02
2.037427e+03,3.501405e+02
2.040320e+03,3.482616e+02
2.043212e+03,3.406158e+02
2.046105e+03,3.449045e+02
2.048998e+03,3.483452e+02
2.051890e+03,3.500639e+02
2.054783e+03,3.373206e+02
2.057676e+03,3.414529e+02
2.060568e+03,3.403874e+02
2.063461e+03,3.371760e+02
2.066354e+03,3.472160e+02
2.069247e+03,3.350963e+02
2.072139e+03,3.324801e+02
2.075032e+03,3.377851e+02
2.077925e+03,3.295675e+02
2.080817e+03,3.364079e+02
2.083710e+03,3.306404e+02
2.086603e+03,3.352983e+02
2.089496e+03,3.242487e+02
2.092388e+03,3.322314e+02
2.095281e+03,3.283710e+02
2.098174e+03,3.250412e+02
2.101066e+03,3.236090e+02
2.103959e+03,3.190918e+02
2.106852e+03,3.268863e+02
2.109744e+03,3.247015e+02
2.112637e+03,3.214718e+02
2.115530e+03,3.229886e+02
2.118422e+03,3.122109e+02
2.121315e+03,3.272318e+02
2.124208e+03,3.226400e+02
2.127101e+03,3.185132e+02
2.129993e+03,3.173897e+02
2.132886e+03,3.239810e+02
2.135779e+03,3.179229e+02
2.138671e+03,3.174394e+02
2.141564e+03,3.138517e+02
2.144457e+03,3.206528e+02
2.147350e+03,3.007795e+02
2.150242e+03,3.074134e+02
2.153135e+03,3.133998e+02
2.156028e+03,3.161475e+02
2.158920e+03,3.061402e+02
2.161813e+03,3.100745e+02
2.164706e+03,3.059402e+02
2.167598e+03,3.168181e+02
2.170491e+03,2.991087e+02
2.173384e+03,3.053776e+02
2.176277e+03,3.026938e+02
2.179169e+03,3.019070e+02
2.182062e+03,3.000042e+02
2.184955e+03,3.011590e+02
2.187847e+03,2.966190e+02
2.190740e+03,2.970392e+02
2.193633e+03,2.929552e+02
2.196525e+03,2.944556e+02
2.199418e+03,3.006425e+02
2.202311e+03,2.951587e+02
2.205204e+03,2.966719e+02
2.208096e+03,2.946894e+02
2.210989e+03,2.939403e+02
2.213882e+03,2.895291e+02
2.216774e+03,2.864668e+02
2.219667e+03,2.879892e+02
2.222560e+03,2.836067e+02
2.225452e+03,2.830849e+02
2.228345e+03,2.959162e+02
2.231238e+03,2.850329e+02
2.234131e+03,2.836486e+02
2.237023e+03,2.869491e+02
2.239916e+03,2.778349e+02
2.242809e+03,2.814888e+02
2.245701e+03,2.802516e+02
2.248594e+03,2.775096e+02
2.251487e+03,2.832004e+02
2.254379e+03,2.754957e+02
2.257272e+03,2.773436e+02
2.260165e+03,2.739382e+02
2.263058e+03,2.738806e+02
2.265950e+03,2.730778e+02
2.268843e+03,2.718767e+02
2.271736e+03,2.730154e+02
2.274628e+03,2.718803e+02
2.277521e+03,2.709225e+02
2.280414e+03,2.682743e+02
2.283306e+03,2.714649e+02
2.286199e+03,2.669685e+02
2.289092e+03,2.638721e+02
2.291985e+03,2.712182e+02
2.294877e+03,2.626075e+02
2.297770e+03,2.657974e+02
2.300663e+03,2.570457e+02
2.303555e+03,2.605428e+02
2.306448e+03,2.620511e+02
2.309341e+03,2.617550e+02
2.312233e+03,2.589111e+02
2.315126e+03,2.554838e+02
2.318019e+03,2.508879e+02
2.320912e+03,2.588969e+02
2.323804e+03,2.533163e+02
2.326697e+03,2.567670e+02
2.329590e+03,2.593821e+02
2.332482e+03,2.487589e+02
2.335375e+03,2.511938e+02
2.338268e+03,2.528028e+02
2.341160e+03,2.492179e+02
2.344053e+03,2.556941e+02
2.346946e+03,2.485451e+02
2.349839e+03,2.493186e+02
2.352731e+03,2.535766e+02
2.355624e+03,2.478466e+02
2.358517e+03,2.542462e+02
2.361409e+03,2.482755e+02
2.364302e+03,2.388067e+02
2.367195e+03,2.434380e+02
2.370087e+03,2.422916e+02
2.372980e+03,2.514418e+02
2.375873e+03,2.442878e+02
2.378766e+03,2.489168e+02
2.381658e+03,2.395266e+02
2.384551e+03,2.398270e+02
2.387444e+03,2.451335e+02
2.390336e+03,2.371436e+02
2.393229e+03,2.399062e+02
2.396122e+03,2.356043e+02
2.399014e+03,2.404480e+02
2.401907e+03,2.456488e+02
2.404800e+03,2.340949e+02
2.407693e+03,2.345132e+02
2.410585e+03,2.359523e+02
2.413478e+03,2.231733e+02
2.416371e+03,2.379369e+02
2.419263e+03,2.333122e+02
2.422156e+03,2.369479e+02
2.425049e+03,2.294286e+02
2.427941e+03,2.362925e+02
2.430834e+03,2.275958e+02
2.433727e+03,2.297632e+02
2.436620e+03,2.240806e+02
2.439512e+03,2.278186e+02
2.442405e+03,2.236349e+02
2.445298e+03,2.306989e+02
2.448190e+03,2.173568e+02
2.451083e+03,2.299298e+02
2.453976e+03,2.302153e+02
2.456868e+03,2.152949e+02
2.459761e+03,2.231411e+02
2.462654e+03,2.220777e+02
2.465547e+03,2.200125e+02
2.468439e+03,2.163780e+02
2.471332e+03,2.267343e+02
2.474225e+03,2.170935e+02
2.477117e+03,2.127122e+02
2.480010e+03,2.222311e+02
2.482903e+03,2.233518e+02
2.485795e+03,2.169389e+02
2.488688e+03,2.134762e+02
2.491581e+03,2.155575e+02
2.494474e+03,2.224458e+02
2.497366e+03,2.109506e+02
2.500259e+03,2.115395e+02
2.503152e+03,2.139925e+02
2.506044e+03,2.112338e+02
2.508937e+03,2.223648e+02
2.511830e+03,2.104699e+02
2.514722e+03,2.086915e+02
2.517615e+03,2.169016e+02
2.520508e+03,2.115821e+02
2.523401e+03,2.102171e+02
2.526293e+03,2.102760e+02
2.529186e+03,2.038284e+02
2.532079e+03,2.088409e+02
2.534971e+03,2.070120e+02
2.537864e+03,2.006065e+02
2.540757e+03,2.092736e+02
2.543649e+03,2.143706e+02
2.546542e+03,2.162443e+02
2.549435e+03,2.095025e+02
2.552328e+03,2.147763e+02
2.555220e+03,2.132214e+02
2.558113e+03,2.136089e+02
2.561006e+03,2.112085e+02
2.563898e+03,2.061313e+02
2.566791e+03,2.027215e+02
2.569684e+03,2.094002e+02
2.572576e+03,2.065598e+02
2.575469e+03,2.090295e+02
2.578362e+03,2.050951e+02
2.581255e+03,2.006364e+02
2.584147e+03,1.952878e+02
2.587040e+03,2.033835e+02
2.589933e+03,1.979851e+02
2.592825e+03,1.976156e+02
2.595718e+03,1.977176e+02
2.598611e+03,1.960095e+02
2.601503e+03,2.024247e+02
2.604396e+03,1.962027e+02
2.607289e+03,1.927110e+02
2.610182e+03,1.880733e+02
2.613074e+03,1.949708e+02
2.615967e+03,1.955867e+02
2.618860e+03,1.963272e+02
2.621752e+03,1.875358e+02
2.624645e+03,1.896441e+02
2.627538e+03,1.941830e+02
2.630430e+03,1.896599e+02
2.633323e+03,1.934064e+02
2.636216e+03,1.887923e+02
2.639109e+03,1.934146e+02
2.642001e+03,1.935749e+02
2.644894e+03,1.843174e+02
2.647787e+03,1.833307e+02
2.650679e+03,1.898243e+02
2.653572e+03,1.846212e+02
2.656465e+03,1.897282e+02
2.659357e+03,1.841799e+02
2.662250e+03,1.801514e+02
2.665143e+03,1.886064e+02
2.668036e+03,1.894109e+02
2.670928e+03,1.975197e+02
2.673821e+03,1.895000e+02
2.676714e+03,1.848049e+02
2.679606e+03,1.852596e+02
2.682499e+03,1.868002e+02
2.685392e+03,1.860768e+02
2.688284e+03,1.863129e+02
2.691177e+03,1.806001e+02
2.694070e+03,1.719457e+02
2.696963e+03,1.892726e+02
2.699855e+03,1.861801e+02
2.702748e+03,1.799442e+02
2.705641e+03,1.784934e+02
2.708533e+03,1.731961e+02
2.711426e+03,1.812207e+02
2.714319e+03,1.849246e+02
2.717211e+03,1.804964e+02
2.720104e+03,1.897297e+02
2.722997e+03,1.793038e+02
2.725890e+03,1.772075e+02
2.728782e+03,1.781982e+02
2.731675e+03,1.782997e+02
2.734568e+03,1.880169e+02
2.737460e+03,1.747012e+02
2.740353e+03,1.771057e+02
2.743246e+03,1.744381e+02
2.746138e+03,1.750422e+02
2.749031e+03,1.785098e+02
2.751924e+03,1.734842e+02
2.754817e+03,1.704327e+02
2.757709e+03,1.721332e+02
2.760602e+03,1.724659e+02
2.763495e+03,1.692248e+02
2.766387e+03,1.722021e+02
2.769280e+03,1.809099e+02
2.772173e+03,1.711341e+02
2.775065e+03,1.829610e+02
2.777958e+03,1.696958e+02
2.780851e+03,1.682965e+02
2.783744e+03,1.679172e+02
2.786636e+03,1.796323e+02
2.789529e+03,1.721866e+02
2.792422e+03,1.727311e+02
2.795314e+03,1.778346e+02
2.798207e+03,1.706259e+02
2.801100e+03,1.659963e+02
2.803992e+03,1.737277e+02
2.806885e+03,1.651448e+02
2.809778e+03,1.759669e+02
2.812671e+03,1.763664e+02
2.815563e+03,1.597791e+02
2.818456e+03,1.677744e+02
2.821349e+03,1.607049e+02
2.824241e+03,1.684571e+02
2.827134e+03,1.761091e+02
2.830027e+03,1.775278e+02
2.832919e+03,1.668032e+02
2.835812e+03,1.728750e+02
2.838705e+03,1.807736e+02
2.841598e+03,1.718836e+02
2.844490e+03,1.779199e+02
2.847383e+03,1.811321e+02
2.850276e+03,1.859383e+02
2.853168e+03,1.730074e+02
2.856061e+03,1.818881e+02
2.858954e+03,1.700227e+02
2.861846e+03,1.747310e+02
2.864739e+03,1.686960e+02
2.867632e+03,1.934585e+02
2.870525e+03,1.781098e+02
2.873417e+03,1.857541e+02
2.876310e+03,1.901108e+02
2.879203e+03,1.832700e+02
2.882095e+03,1.919356e+02
2.884988e+03,2.005385e+02
2.887881e+03,1.890460e+02
2.890773e+03,1.924578e+02
2.893666e+03,1.957218e+02
2.896559e+03,1.921894e+02
2.899452e+03,2.013834e+02
2.902344e+03,1.906802e+02
2.905237e+03,1.859076e+02
2.908130e+03,1.765103e+02
2.911022e+03,1.911557e+02
2.913915e+03,1.689734e+02
2.916808e+03,1.815521e+02
2.919700e+03,1.726539e+02
2.922593e+03,1.771132e+02
2.925486e+03,1.845595e+02
2.928379e+03,1.678035e+02
2.931271e+03,1.669256e+02
2.934164e+03,1.808234e+02
2.937057e+03,1.622001e+02
2.939949e+03,1.745202e+02
2.942842e+03,1.662155e+02
2.945735e+03,1.784175e+02
2.948627e+03,1.678326e+02
2.951520e+03,1.681420e+02
2.954413e+03,1.608192e+02
2.957306e+03,2.023814e+02
2.960198e+03,1.849919e+02
2.963091e+03,1.698894e+02
2.965984e+03,1.668260e+02
2.968876e+03,1.628904e+02
2.971769e+03,1.549456e+02
2.974662e+03,1.515614e+02
2.977554e+03,1.558691e+02
2.980447e+03,1.427022e+02
2.983340e+03,1.631049e+02
2.986233e+03,1.417379e+02
2.989125e+03,1.479757e+02
2.992018e+03,1.585259e+02
2.994911e+03,1.333929e+02
2.997803e+03,1.395504e+02
3.000696e+03,1.485889e+02
3.003589e+03,1.605961e+02
3.006481e+03,1.544587e+02
3.009374e+03,1.382788e+02
3.012267e+03,1.517855e+02
3.015160e+03,1.559213e+02
3.018052e+03,1.399505e+02
3.020945e+03,1.478010e+02
3.023838e+03,1.514851e+02
3.026730e+03,1.400024e+02
3.029623e+03,1.519548e+02
3.032516e+03,1.493962e+02
3.035408e+03,1.311535e+02
3.038301e+03,1.420697e+02
3.041194e+03,1.476432e+02
3.044087e+03,1.372634e+02
3.046979e+03,1.460414e+02
3.049872e+03,1.523822e+02
3.052765e+03,1.391026e+02
3.055657e+03,1.419526e+02
3.058550e+03,1.522974e+02
3.061443e+03,1.382227e+02
3.064335e+03,1.451158e+02
3.067228e+03,1.415636e+02
3.070121e+03,1.466611e+02
3.073014e+03,1.376025e+02
3.075906e+03,1.466664e+02
3.078799e+03,1.435492e+02
3.081692e+03,1.444597e+02
3.084584e+03,1.479978e+02
3.087477e+03,1.481987e+02
3.090370e+03,1.535220e+02
3.093262e+03,1.503613e+02
3.096155e+03,1.432077e+02
3.099048e+03,1.343910e+02
3.101941e+03,1.476777e+02
3.104833e+03,1.553698e+02
3.107726e+03,1.464733e+02
3.110619e+03,1.479784e+02
3.113511e+03,1.523092e+02
3.116404e+03,1.381132e+02
3.119297e+03,1.557685e+02
3.122189e+03,1.234332e+02
3.125082e+03,1.576711e+02
3.127975e+03,1.585228e+02
3.130868e+03,1.522312e+02
3.133760e+03,1.658748e+02
3.136653e+03,1.565431e+02
3.139546e+03,1.618408e+02
3.142438e+03,1.552298e+02
3.145331e+03,1.014737e+02
3.148224e+03,1.573914e+02
3.151116e+03,1.482127e+02
3.154009e+03,1.690533e+02
3.156902e+03,1.391340e+02
3.159795e+03,1.423386e+02
3.162687e+03,1.534681e+02
3.165580e+03,1.479348e+02
3.168473e+03,1.860972e+02
3.171365e+03,1.580209e+02
3.174258e+03,1.377892e+02
3.177151e+03,1.459005e+02
3.180043e+03,1.513374e+02
3.182936e+03,1.798746e+02
3.185829e+03,1.567156e+02
3.188722e+03,1.237523e+02
3.191614e+03,1.541675e+02
3.194507e+03,1.382200e+02
3.197400e+03,1.274566e+02
3.200292e+03,1.699076e+02
3.203185e+03,0.000000e+00
3.206078e+03,0.000000e+00
3.208970e+03,0.000000e+00
3.211863e+03,0.000000e+00
3.214756e+03,0.000000e+00
3.217649e+03,0.000000e+00
3.220541e+03,0.000000e+00
3.223434e+03,0.000000e+00
3.226327e+03,0.000000e+00
3.229219e+03,0.000000e+00
3.232112e+03,0.000000e+00
3.235005e+03,0.000000e+00
3.237897e+03,0.000000e+00
3.240790e+03,0.000000e+00
3.243683e+03,0.000000e+00
3.246576e+03,0.000000e+00
3.249468e+03,0.000000e+00
3.252361e+03,0.000000e+00
3.255254e+03,0.000000e+00
3.258146e+03,0.000000e+00
3.261039e+03,0.000000e+00
3.263932e+03,0.000000e+00
3.266824e+03,0.000000e+00
3.269717e+03,0.000000e+00
3.272610e+03,0.000000e+00
3.275503e+03,0.000000e+00
3.278395e+03,0.000000e+00
3.281288e+03,0.000000e+00
3.284181e+03,0.000000e+00
3.287073e+03,0.000000e+00
3.289966e+03,0.000000e+00
3.292859e+03,0.000000e+00
3.295751e+03,0.000000e+00
3.298644e+03,0.000000e+00
3.301537e+03,0.000000e+00
3.304430e+03,0.000000e+00
3.307322e+03,0.000000e+00
3.310215e+03,0.000000e+00
3.313108e+03,0.000000e+00
3.316000e+03,0.000000e+00
3.318893e+03,0.000000e+00
3.321786e+03,0.000000e+00
3.324678e+03,0.000000e+00
3.327571e+03,0.000000e+00
3.330464e+03,0.000000e+00
3.333357e+03,0.000000e+00
3.336249e+03,0.000000e+00
3.339142e+03,0.000000e+00
3.342035e+03,0.000000e+00
3.344927e+03,0.000000e+00
3.347820e+03,0.000000e+00
3.350713e+03,0.000000e+00
3.353605e+03,0.000000e+00
3.356498e+03,0.000000e+00
3.359391e+03,0.000000e+00
3.362284e+03,0.000000e+00
3.365176e+03,0.000000e+00
3.368069e+03,0.000000e+00
3.370962e+03,0.000000e+00
3.373854e+03,0.000000e+00
3.376747e+03,0.000000e+00
3.379640e+03,0.000000e+00
3.382532e+03,0.000000e+00
3.385425e+03,0.000000e+00
3.388318e+03,0.000000e+00
3.391211e+03,0.000000e+00
3.394103e+03,0.000000e+00
3.396996e+03,0.000000e+00
3.399889e+03,0.000000e+00
3.402781e+03,0.000000e+00
3.405674e+03,0.000000e+00
3.408567e+03,0.000000e+00
3.411459e+03,0.000000e+00
3.414352e+03,0.000000e+00
3.417245e+03,0.000000e+00
3.420138e+03,0.000000e+00
3.423030e+03,0.000000e+00
3.425923e+03,0.000000e+00
3.428816e+03,0.000000e+00
3.431708e+03,0.000000e+00
3.434601e+03,0.000000e+00
3.437494e+03,0.000000e+00
3.440386e+03,0.000000e+00
3.443279e+03,0.000000e+00
3.446172e+03,0.000000e+00
3.449065e+03,0.000000e+00
3.451957e+03,0.000000e+00
3.454850e+03,0.000000e+00
3.457743e+03,0.000000e+00
3.460635e+03,0.000000e+00
3.463528e+03,0.000000e+00
3.466421e+03,0.000000e+00
3.469313e+03,0.000000e+00
3.472206e+03,0.000000e+00
3.475099e+03,0.000000e+00
3.477992e+03,0.000000e+00
3.480884e+03,0.000000e+00
3.483777e+03,0.000000e+00
3.486670e+03,0.000000e+00
3.489563e+03,0.000000e+00
3.492455e+03,0.000000e+00
3.495348e+03,0.000000e+00
3.498240e+03,0.000000e+00
3.500169e+03,0.000000e+00