File: RAMAN_data/06022023_r2/black fibre1.CSV
9.931763e+01,0.000000e+00
1.022103e+02,0.000000e+00
1.051030e+02,0.000000e+00
1.079957e+02,0.000000e+00
1.108884e+02,0.000000e+00
1.137811e+02,0.000000e+00
1.166738e+02,0.000000e+00
1.195665e+02,0.000000e+00
1.224592e+02,0.000000e+00
1.253519e+02,0.000000e+00
1.282446e+02,0.000000e+00
1.311373e+02,0.000000e+00
1.340300e+02,0.000000e+00
1.369227e+02,0.000000e+00
1.398154e+02,0.000000e+00
1.427081e+02,0.000000e+00
1.456008e+02,0.000000e+00
1.484935e+02,0.000000e+00
1.513862e+02,0.000000e+00
1.542789e+02,0.000000e+00
1.571716e+02,0.000000e+00
1.600643e+02,0.000000e+00
1.629570e+02,0.000000e+00
1.658497e+02,0.000000e+00
1.687424e+02,0.000000e+00
1.716351e+02,0.000000e+00
1.745278e+02,0.000000e+00
1.774205e+02,0.000000e+00
1.803132e+02,0.000000e+00
1.832059e+02,0.000000e+00
1.860986e+02,0.000000e+00
1.889913e+02,0.000000e+00
1.918840e+02,0.000000e+00
1.947767e+02,0.000000e+00
1.976694e+02,0.000000e+00
2.005621e+02,3.762002e+03
2.034548e+02,3.773966e+03
2.063475e+02,3.792931e+03
2.092402e+02,3.789977e+03
2.121329e+02,3.788639e+03
2.150256e+02,3.790450e+03
2.179183e+02,3.804900e+03
2.208110e+02,3.807313e+03
2.237037e+02,3.810520e+03
2.265964e+02,3.799795e+03
2.294892e+02,3.809785e+03
2.323819e+02,3.825258e+03
2.352746e+02,3.842529e+03
2.381673e+02,3.849521e+03
2.410600e+02,3.835207e+03
2.439527e+02,3.841836e+03
2.468454e+02,3.848073e+03
2.497381e+02,3.858609e+03
2.526308e+02,3.874607e+03
2.555235e+02,3.864212e+03
2.584161e+02,3.866048e+03
2.613088e+02,3.900676e+03
2.642015e+02,3.899425e+03
2.670942e+02,3.902118e+03
2.699869e+02,3.905263e+03
2.728796e+02,3.905090e+03
2.757723e+02,3.888552e+03
2.786650e+02,3.906168e+03
2.815577e+02,3.923593e+03
2.844504e+02,3.936919e+03
2.873431e+02,3.917584e+03
2.902358e+02,3.907245e+03
2.931285e+02,3.919015e+03
2.960212e+02,3.935881e+03
2.989139e+02,3.944347e+03
3.018066e+02,3.938119e+03
3.046993e+02,3.933585e+03
3.075920e+02,3.951460e+03
3.104847e+02,3.943047e+03
3.133774e+02,3.955042e+03
3.162701e+02,3.955210e+03
3.191628e+02,3.919559e+03
3.220555e+02,3.944803e+03
3.249482e+02,3.959902e+03
3.278409e+02,3.961511e+03
3.307336e+02,3.957526e+03
3.336263e+02,3.968304e+03
3.365190e+02,3.967584e+03
3.394117e+02,3.950004e+03
3.423044e+02,3.966385e+03
3.451971e+02,3.986597e+03
3.480898e+02,3.972725e+03
3.509825e+02,3.967789e+03
3.538752e+02,3.982343e+03
3.567680e+02,3.991656e+03
3.596607e+02,3.993818e+03
3.625534e+02,4.001313e+03
3.654461e+02,3.977508e+03
3.683388e+02,3.981191e+03
3.712315e+02,4.009061e+03
3.741242e+02,4.011096e+03
3.770169e+02,4.019019e+03
3.799096e+02,4.005563e+03
3.828023e+02,4.017591e+03
3.856950e+02,4.019368e+03
3.885877e+02,3.998667e+03
3.914804e+02,3.996797e+03
3.943731e+02,3.991175e+03
3.972658e+02,3.980397e+03
4.001585e+02,3.993722e+03
4.030512e+02,4.005724e+03
4.059439e+02,3.995350e+03
4.088366e+02,4.004229e+03
4.117293e+02,3.997453e+03
4.146220e+02,4.001304e+03
4.175147e+02,3.997155e+03
4.204074e+02,3.992194e+03
4.233001e+02,4.017899e+03
4.261928e+02,4.001755e+03
4.290855e+02,4.010241e+03
4.319782e+02,4.004338e+03
4.348709e+02,4.014283e+03
4.377636e+02,3.997555e+03
4.406563e+02,4.017357e+03
4.435490e+02,3.997952e+03
4.464417e+02,4.009573e+03
4.493344e+02,4.005166e+03
4.522271e+02,4.009812e+03
4.551198e+02,4.008407e+03
4.580125e+02,4.003999e+03
4.609052e+02,3.986806e+03
4.637979e+02,3.977264e+03
4.666906e+02,3.982884e+03
4.695833e+02,3.984723e+03
4.724760e+02,3.996296e+03
4.753687e+02,3.984131e+03
4.782614e+02,3.978788e+03
4.811541e+02,3.993738e+03
4.840468e+02,4.004432e+03
4.869395e+02,4.028192e+03
4.898322e+02,4.019314e+03
4.927249e+02,3.998578e+03
4.956176e+02,3.983979e+03
4.985103e+02,4.005315e+03
5.014030e+02,3.997335e+03
5.042957e+02,4.001839e+03
5.071884e+02,3.975076e+03
5.100811e+02,3.975760e+03
5.129738e+02,3.989830e+03
5.158665e+02,3.964320e+03
5.187592e+02,3.984332e+03
5.216519e+02,3.959661e+03
5.245446e+02,3.962296e+03
5.274373e+02,3.953422e+03
5.303300e+02,3.966114e+03
5.332227e+02,3.946671e+03
5.361154e+02,3.950143e+03
5.390081e+02,3.934120e+03
5.419008e+02,3.933139e+03
5.447935e+02,3.951147e+03
5.476862e+02,3.952658e+03
5.505789e+02,3.940140e+03
5.534716e+02,3.918112e+03
5.563643e+02,3.915991e+03
5.592570e+02,3.938926e+03
5.621497e+02,3.938518e+03
5.650424e+02,3.939604e+03
5.679351e+02,3.924552e+03
5.708278e+02,3.913564e+03
5.737205e+02,3.923836e+03
5.766132e+02,3.924815e+03
5.795059e+02,3.939444e+03
5.823986e+02,3.934248e+03
5.852913e+02,3.891073e+03
5.881840e+02,3.914891e+03
5.910767e+02,3.919265e+03
5.939694e+02,3.911292e+03
5.968621e+02,3.919151e+03
5.997548e+02,3.909699e+03
6.026475e+02,3.911663e+03
6.055402e+02,3.916288e+03
6.084329e+02,3.913019e+03
6.113256e+02,3.910212e+03
6.142183e+02,3.908509e+03
6.171110e+02,3.912630e+03
6.200037e+02,3.886311e+03
6.228964e+02,3.903118e+03
6.257891e+02,3.905959e+03
6.286818e+02,3.884054e+03
6.315745e+02,3.865584e+03
6.344672e+02,3.862154e+03
6.373599e+02,3.881773e+03
6.402526e+02,3.856096e+03
6.431453e+02,3.861809e+03
6.460380e+02,3.850418e+03
6.489307e+02,3.860700e+03
6.518234e+02,3.871619e+03
6.547161e+02,3.854914e+03
6.576088e+02,3.834797e+03
6.605015e+02,3.846582e+03
6.633942e+02,3.841866e+03
6.662869e+02,3.828496e+03
6.691796e+02,3.839070e+03
6.720723e+02,3.825014e+03
6.749650e+02,3.798757e+03
6.778577e+02,3.803386e+03
6.807504e+02,3.832401e+03
6.836431e+02,3.816939e+03
6.865358e+02,3.804280e+03
6.894285e+02,3.795937e+03
6.923212e+02,3.796863e+03
6.952139e+02,3.798172e+03
6.981066e+02,3.778029e+03
7.009993e+02,3.785636e+03
7.038920e+02,3.777002e+03
7.067847e+02,3.749853e+03
7.096774e+02,3.763623e+03
7.125701e+02,3.775368e+03
7.154628e+02,3.764094e+03
7.183555e+02,3.768281e+03
7.212482e+02,3.752747e+03
7.241409e+02,3.759978e+03
7.270336e+02,3.739949e+03
7.299263e+02,3.743690e+03
7.328190e+02,3.718238e+03
7.357117e+02,3.746721e+03
7.386044e+02,3.727448e+03
7.414971e+02,3.726782e+03
7.443898e+02,3.705844e+03
7.472825e+02,3.726849e+03
7.501752e+02,3.724651e+03
7.530679e+02,3.712983e+03
7.559606e+02,3.685461e+03
7.588533e+02,3.662949e+03
7.617460e+02,3.685083e+03
7.646387e+02,3.695229e+03
7.675314e+02,3.678974e+03
7.704241e+02,3.677509e+03
7.733168e+02,3.667533e+03
7.762095e+02,3.679750e+03
7.791022e+02,3.661504e+03
7.819949e+02,3.643003e+03
7.848876e+02,3.641602e+03
7.877803e+02,3.642387e+03
7.906730e+02,3.637072e+03
7.935657e+02,3.640179e+03
7.964584e+02,3.654547e+03
7.993511e+02,3.617664e+03
8.022438e+02,3.620606e+03
8.051365e+02,3.635334e+03
8.080292e+02,3.628358e+03
8.109219e+02,3.614144e+03
8.138146e+02,3.595003e+03
8.167073e+02,3.609906e+03
8.196000e+02,3.616707e+03
8.224927e+02,3.603625e+03
8.253854e+02,3.609184e+03
8.282781e+02,3.585163e+03
8.311708e+02,3.594682e+03
8.340635e+02,3.584271e+03
8.369562e+02,3.588894e+03
8.398489e+02,3.561238e+03
8.427416e+02,3.584000e+03
8.456343e+02,3.563303e+03
8.485270e+02,3.563952e+03
8.514197e+02,3.538221e+03
8.543124e+02,3.546933e+03
8.572051e+02,3.551989e+03
8.600978e+02,3.545422e+03
8.629905e+02,3.540576e+03
8.658832e+02,3.520636e+03
8.687759e+02,3.516017e+03
8.716686e+02,3.519078e+03
8.745613e+02,3.511284e+03
8.774540e+02,3.507938e+03
8.803467e+02,3.540223e+03
8.832394e+02,3.513383e+03
8.861321e+02,3.503649e+03
8.890248e+02,3.505278e+03
8.919175e+02,3.498538e+03
8.948102e+02,3.465640e+03
8.977029e+02,3.476541e+03
9.005956e+02,3.488678e+03
9.034883e+02,3.463859e+03
9.063810e+02,3.473943e+03
9.092737e+02,3.471038e+03
9.121664e+02,3.458453e+03
9.150591e+02,3.437698e+03
9.179518e+02,3.444051e+03
9.208445e+02,3.435240e+03
9.237372e+02,3.427168e+03
9.266299e+02,3.421531e+03
9.295226e+02,3.413202e+03
9.324153e+02,3.400439e+03
9.353080e+02,3.415674e+03
9.382007e+02,3.401955e+03
9.410934e+02,3.406669e+03
9.439861e+02,3.400218e+03
9.468788e+02,3.379849e+03
9.497715e+02,3.400742e+03
9.526642e+02,3.394779e+03
9.555569e+02,3.368433e+03
9.584496e+02,3.368401e+03
9.613423e+02,3.394338e+03
9.642350e+02,3.371152e+03
9.671277e+02,3.348864e+03
9.700204e+02,3.357366e+03
9.729131e+02,3.337927e+03
9.758058e+02,3.326101e+03
9.786985e+02,3.329928e+03
9.815912e+02,3.315805e+03
9.844839e+02,3.306299e+03
9.873766e+02,3.307795e+03
9.902693e+02,3.317047e+03
9.931620e+02,3.332606e+03
9.960547e+02,3.328981e+03
9.989474e+02,3.302926e+03
1.001840e+03,3.296465e+03
1.004733e+03,3.287339e+03
1.007626e+03,3.303598e+03
1.010518e+03,3.304495e+03
1.013411e+03,3.264768e+03
1.016304e+03,3.265190e+03
1.019196e+03,3.263896e+03
1.022089e+03,3.281550e+03
1.024982e+03,3.264564e+03
1.027875e+03,3.266812e+03
1.030767e+03,3.253817e+03
1.033660e+03,3.239635e+03
1.036552e+03,3.225933e+03
1.039445e+03,3.224935e+03
1.042338e+03,3.238752e+03
1.045231e+03,3.227240e+03
1.048123e+03,3.219105e+03
1.051016e+03,3.216760e+03
1.053909e+03,3.231394e+03
1.056802e+03,3.227776e+03
1.059694e+03,3.207435e+03
1.062587e+03,3.227863e+03
1.065479e+03,3.190175e+03
1.068372e+03,3.193805e+03
1.071265e+03,3.205959e+03
1.074158e+03,3.212346e+03
1.077050e+03,3.197863e+03
1.079943e+03,3.180225e+03
1.082836e+03,3.188961e+03
1.085729e+03,3.195724e+03
1.088621e+03,3.207019e+03
1.091514e+03,3.208191e+03
1.094406e+03,3.202724e+03
1.097299e+03,3.184251e+03
1.100192e+03,3.170292e+03
1.103085e+03,3.172539e+03
1.105977e+03,3.162373e+03
1.108870e+03,3.151497e+03
1.111763e+03,3.156067e+03
1.114656e+03,3.156520e+03
1.117548e+03,3.161116e+03
1.120441e+03,3.161667e+03
1.123334e+03,3.172895e+03
1.126226e+03,3.152094e+03
1.129119e+03,3.148922e+03
1.132012e+03,3.159219e+03
1.134904e+03,3.135801e+03
1.137797e+03,3.115465e+03
1.140690e+03,3.118272e+03
1.143583e+03,3.120804e+03
1.146475e+03,3.106428e+03
1.149368e+03,3.125498e+03
1.152261e+03,3.132290e+03
1.155153e+03,3.114455e+03
1.158046e+03,3.094491e+03
1.160939e+03,3.076399e+03
1.163831e+03,3.070431e+03
1.166724e+03,3.058792e+03
1.169617e+03,3.036285e+03
1.172510e+03,3.047622e+03
1.175402e+03,3.020593e+03
1.178295e+03,3.047915e+03
1.181188e+03,3.056478e+03
1.184080e+03,3.030075e+03
1.186973e+03,3.037959e+03
1.189866e+03,3.028158e+03
1.192758e+03,3.030405e+03
1.195651e+03,3.028740e+03
1.198544e+03,3.014814e+03
1.201437e+03,3.008077e+03
1.204329e+03,3.001759e+03
1.207222e+03,2.997507e+03
1.210115e+03,3.007337e+03
1.213007e+03,3.006358e+03
1.215900e+03,2.988202e+03
1.218793e+03,2.979902e+03
1.221685e+03,2.974598e+03
1.224578e+03,2.980609e+03
1.227471e+03,2.980629e+03
1.230364e+03,2.964921e+03
1.233256e+03,2.945617e+03
1.236149e+03,2.961797e+03
1.239042e+03,2.956517e+03
1.241934e+03,2.955591e+03
1.244827e+03,2.963806e+03
1.247720e+03,2.946494e+03
1.250612e+03,2.932570e+03
1.253505e+03,2.930647e+03
1.256398e+03,2.908324e+03
1.259291e+03,2.930643e+03
1.262183e+03,2.915125e+03
1.265076e+03,2.918016e+03
1.267969e+03,2.911132e+03
1.270861e+03,2.917841e+03
1.273754e+03,2.921301e+03
1.276647e+03,2.924730e+03
1.279539e+03,2.907961e+03
1.282432e+03,2.909698e+03
1.285325e+03,2.927914e+03
1.288218e+03,2.915564e+03
1.291110e+03,2.907136e+03
1.294003e+03,2.892140e+03
1.296896e+03,2.886905e+03
1.299788e+03,2.860256e+03
1.302681e+03,2.864716e+03
1.305574e+03,2.875140e+03
1.308466e+03,2.871714e+03
1.311359e+03,2.863507e+03
1.314252e+03,2.858064e+03
1.317145e+03,2.847800e+03
1.320037e+03,2.863901e+03
1.322930e+03,2.838774e+03
1.325823e+03,2.834636e+03
1.328715e+03,2.836161e+03
1.331608e+03,2.834981e+03
1.334501e+03,2.836792e+03
1.337393e+03,2.858708e+03
1.340286e+03,2.847194e+03
1.343179e+03,2.833237e+03
1.346072e+03,2.830097e+03
1.348964e+03,2.838361e+03
1.351857e+03,2.812846e+03
1.354750e+03,2.812960e+03
1.357642e+03,2.802523e+03
1.360535e+03,2.798272e+03
1.363428e+03,2.817715e+03
1.366320e+03,2.784952e+03
1.369213e+03,2.791675e+03
1.372106e+03,2.795384e+03
1.374999e+03,2.779587e+03
1.377891e+03,2.776847e+03
1.380784e+03,2.780918e+03
1.383677e+03,2.773517e+03
1.386569e+03,2.766891e+03
1.389462e+03,2.747624e+03
1.392355e+03,2.734690e+03
1.395247e+03,2.729041e+03
1.398140e+03,2.744169e+03
1.401033e+03,2.736975e+03
1.403926e+03,2.726866e+03
1.406818e+03,2.699466e+03
1.409711e+03,2.720555e+03
1.412604e+03,2.717998e+03
1.415496e+03,2.725606e+03
1.418389e+03,2.720212e+03
1.421282e+03,2.691039e+03
1.424174e+03,2.703960e+03
1.427067e+03,2.685948e+03
1.429960e+03,2.668637e+03
1.432853e+03,2.693070e+03
1.435745e+03,2.671574e+03
1.438638e+03,2.649853e+03
1.441531e+03,2.663553e+03
1.444423e+03,2.657735e+03
1.447316e+03,2.652151e+03
1.450209e+03,2.643229e+03
1.453101e+03,2.638000e+03
1.455994e+03,2.631746e+03
1.458887e+03,2.648185e+03
1.461780e+03,2.633686e+03
1.464672e+03,2.632992e+03
1.467565e+03,2.626482e+03
1.470458e+03,2.616750e+03
1.473350e+03,2.618429e+03
1.476243e+03,2.621708e+03
1.479136e+03,2.600929e+03
1.482028e+03,2.606457e+03
1.484921e+03,2.608967e+03
1.487814e+03,2.592126e+03
1.490707e+03,2.595970e+03
1.493599e+03,2.577704e+03
1.496492e+03,2.589563e+03
1.499385e+03,2.578479e+03
1.502277e+03,2.565268e+03
1.505170e+03,2.557338e+03
1.508063e+03,2.563754e+03
1.510955e+03,2.558672e+03
1.513848e+03,2.555331e+03
1.516741e+03,2.558437e+03
1.519634e+03,2.536632e+03
1.522526e+03,2.544199e+03
1.525419e+03,2.553372e+03
1.528312e+03,2.529656e+03
1.531204e+03,2.521222e+03
1.534097e+03,2.516348e+03
1.536990e+03,2.532935e+03
1.539882e+03,2.525160e+03
1.542775e+03,2.494567e+03
1.545668e+03,2.508774e+03
1.548561e+03,2.512365e+03
1.551453e+03,2.514438e+03
1.554346e+03,2.506648e+03
1.557239e+03,2.508945e+03
1.560131e+03,2.509016e+03
1.563024e+03,2.501146e+03
1.565917e+03,2.496763e+03
1.568809e+03,2.498755e+03
1.571702e+03,2.506197e+03
1.574595e+03,2.498341e+03
1.577488e+03,2.490869e+03
1.580380e+03,2.497771e+03
1.583273e+03,2.504579e+03
1.586166e+03,2.493791e+03
1.589058e+03,2.482659e+03
1.591951e+03,2.475777e+03
1.594844e+03,2.459153e+03
1.597736e+03,2.461861e+03
1.600629e+03,2.434126e+03
1.603522e+03,2.435760e+03
1.606415e+03,2.431167e+03
1.609307e+03,2.440313e+03
1.612200e+03,2.434987e+03
1.615093e+03,2.424005e+03
1.617985e+03,2.425529e+03
1.620878e+03,2.411563e+03
1.623771e+03,2.406205e+03
1.626663e+03,2.421622e+03
1.629556e+03,2.387988e+03
1.632449e+03,2.389786e+03
1.635342e+03,2.381488e+03
1.638234e+03,2.382320e+03
1.641127e+03,2.369275e+03
1.644020e+03,2.361544e+03
1.646912e+03,2.363297e+03
1.649805e+03,2.357306e+03
1.652698e+03,2.350253e+03
1.655590e+03,2.341780e+03
1.658483e+03,2.352065e+03
1.661376e+03,2.345466e+03
1.664269e+03,2.331640e+03
1.667161e+03,2.339998e+03
1.670054e+03,2.310807e+03
1.672947e+03,2.306850e+03
1.675839e+03,2.306443e+03
1.678732e+03,2.307931e+03
1.681625e+03,2.302625e+03
1.684517e+03,2.317219e+03
1.687410e+03,2.295985e+03
1.690303e+03,2.308777e+03
1.693196e+03,2.282142e+03
1.696088e+03,2.281044e+03
1.698981e+03,2.292785e+03
1.701874e+03,2.268712e+03
1.704766e+03,2.276167e+03
1.707659e+03,2.267365e+03
1.710552e+03,2.260410e+03
1.713444e+03,2.252102e+03
1.716337e+03,2.270578e+03
1.719230e+03,2.247753e+03
1.722123e+03,2.255639e+03
1.725015e+03,2.250154e+03
1.727908e+03,2.223007e+03
1.730801e+03,2.223912e+03
1.733693e+03,2.235656e+03
1.736586e+03,2.214765e+03
1.739479e+03,2.216330e+03
1.742371e+03,2.220534e+03
1.745264e+03,2.211562e+03
1.748157e+03,2.200142e+03
1.751050e+03,2.196465e+03
1.753942e+03,2.202361e+03
1.756835e+03,2.181928e+03
1.759728e+03,2.168843e+03
1.762620e+03,2.169553e+03
1.765513e+03,2.186062e+03
1.768406e+03,2.161506e+03
1.771298e+03,2.167926e+03
1.774191e+03,2.146565e+03
1.777084e+03,2.150410e+03
1.779977e+03,2.146458e+03
1.782869e+03,2.138166e+03
1.785762e+03,2.150061e+03
1.788655e+03,2.134573e+03
1.791547e+03,2.128886e+03
1.794440e+03,2.116965e+03
1.797333e+03,2.125672e+03
1.800225e+03,2.133273e+03
1.803118e+03,2.122854e+03
1.806011e+03,2.102226e+03
1.808904e+03,2.117959e+03
1.811796e+03,2.099566e+03
1.814689e+03,2.097284e+03
1.817582e+03,2.095025e+03
1.820474e+03,2.079821e+03
1.823367e+03,2.080922e+03
1.826260e+03,2.067237e+03
1.829152e+03,2.062942e+03
1.832045e+03,2.057710e+03
1.834938e+03,2.047373e+03
1.837831e+03,2.060975e+03
1.840723e+03,2.044173e+03
1.843616e+03,2.059273e+03
1.846509e+03,2.058643e+03
1.849401e+03,2.033962e+03
1.852294e+03,2.023154e+03
1.855187e+03,2.018545e+03
1.858079e+03,2.017160e+03
1.860972e+03,2.013790e+03
1.863865e+03,2.015105e+03
1.866758e+03,2.016009e+03
1.869650e+03,2.005976e+03
1.872543e+03,1.998100e+03
1.875436e+03,2.007927e+03
1.878328e+03,1.985060e+03
1.881221e+03,1.981057e+03
1.884114e+03,1.966161e+03
1.887006e+03,1.961304e+03
1.889899e+03,1.965574e+03
1.892792e+03,1.954961e+03
1.895685e+03,1.955582e+03
1.898577e+03,1.940003e+03
1.901470e+03,1.945396e+03
1.904363e+03,1.946840e+03
1.907255e+03,1.931859e+03
1.910148e+03,1.945710e+03
1.913041e+03,1.934224e+03
1.915933e+03,1.926515e+03
1.918826e+03,1.898267e+03
1.921719e+03,1.902129e+03
1.924612e+03,1.903665e+03
1.927504e+03,1.908158e+03
1.930397e+03,1.910555e+03
1.933290e+03,1.881706e+03
1.936182e+03,1.890684e+03
1.939075e+03,1.881534e+03
1.941968e+03,1.865486e+03
1.944860e+03,1.885743e+03
1.947753e+03,1.866860e+03
1.950646e+03,1.855683e+03
1.953539e+03,1.852302e+03
1.956431e+03,1.861823e+03
1.959324e+03,1.845511e+03
1.962217e+03,1.840335e+03
1.965109e+03,1.837496e+03
1.968002e+03,1.841023e+03
1.970895e+03,1.831841e+03
1.973787e+03,1.822241e+03
1.976680e+03,1.818915e+03
1.979573e+03,1.837090e+03
1.982466e+03,1.808851e+03
1.985358e+03,1.818320e+03
1.988251e+03,1.811413e+03
1.991144e+03,1.798065e+03
1.994036e+03,1.802238e+03
1.996929e+03,1.785387e+03
1.999822e+03,1.786646e+03
2.002714e+03,1.787133e+03
2.005607e+03,1.778471e+03
2.008500e+03,1.785577e+03
2.011393e+03,1.755852e+03
2.014285e+03,1.759569e+03
2.017178e+03,1.757658e+03
2.020071e+03,1.746976e+03
2.022963e+03,1.736867e+03
2.025856e+03,1.733588e+03
2.028749e+03,1.731887e+03
2.031641e+03,1.738947e+03
2.034534e+03,1.725929e+03
2.037427e+03,1.712295e+03
2.040320e+03,1.721184e+03
2.043212e+03,1.726680e+03
2.046105e+03,1.703414e+03
2.048998e+03,1.691847e+03
2.051890e+03,1.692653e+03
2.054783e+03,1.686422e+03
2.057676e+03,1.692890e+03
2.060568e+03,1.687906e+03
2.063461e+03,1.686840e+03
2.066354e+03,1.663199e+03
2.069247e+03,1.668057e+03
2.072139e+03,1.662475e+03
2.075032e+03,1.648927e+03
2.077925e+03,1.660140e+03
2.080817e+03,1.654407e+03
2.083710e+03,1.656082e+03
2.086603e+03,1.627833e+03
2.089496e+03,1.638944e+03
2.092388e+03,1.643733e+03
2.095281e+03,1.640218e+03
2.098174e+03,1.620075e+03
2.101066e+03,1.629700e+03
2.103959e+03,1.633000e+03
2.106852e+03,1.610277e+03
2.109744e+03,1.612803e+03
2.112637e+03,1.595250e+03
2.115530e+03,1.584966e+03
2.118422e+03,1.588621e+03
2.121315e+03,1.586714e+03
2.124208e+03,1.579581e+03
2.127101e+03,1.566176e+03
2.129993e+03,1.564304e+03
2.132886e+03,1.563809e+03
2.135779e+03,1.570747e+03
2.138671e+03,1.556933e+03
2.141564e+03,1.542091e+03
2.144457e+03,1.545181e+03
2.147350e+03,1.517903e+03
2.150242e+03,1.535123e+03
2.153135e+03,1.532172e+03
2.156028e+03,1.514953e+03
2.158920e+03,1.539224e+03
2.161813e+03,1.519732e+03
2.164706e+03,1.511456e+03
2.167598e+03,1.527463e+03
2.170491e+03,1.519326e+03
2.173384e+03,1.519721e+03
2.176277e+03,1.481309e+03
2.179169e+03,1.495866e+03
2.182062e+03,1.485949e+03
2.184955e+03,1.506828e+03
2.187847e+03,1.480982e+03
2.190740e+03,1.477246e+03
2.193633e+03,1.447466e+03
2.196525e+03,1.457567e+03
2.199418e+03,1.463981e+03
2.202311e+03,1.453815e+03
2.205204e+03,1.463497e+03
2.208096e+03,1.462336e+03
2.210989e+03,1.441473e+03
2.213882e+03,1.434706e+03
2.216774e+03,1.441143e+03
2.219667e+03,1.416637e+03
2.222560e+03,1.426275e+03
2.225452e+03,1.422559e+03
2.228345e+03,1.407508e+03
2.231238e+03,1.429182e+03
2.234131e+03,1.409452e+03
2.237023e+03,1.399882e+03
2.239916e+03,1.393017e+03
2.242809e+03,1.386048e+03
2.245701e+03,1.382818e+03
2.248594e+03,1.384160e+03
2.251487e+03,1.394493e+03
2.254379e+03,1.366764e+03
2.257272e+03,1.372788e+03
2.260165e+03,1.362740e+03
2.263058e+03,1.369789e+03
2.265950e+03,1.382643e+03
2.268843e+03,1.356421e+03
2.271736e+03,1.343412e+03
2.274628e+03,1.360260e+03
2.277521e+03,1.335463e+03
2.280414e+03,1.336687e+03
2.283306e+03,1.347084e+03
2.286199e+03,1.326575e+03
2.289092e+03,1.321135e+03
2.291985e+03,1.307711e+03
2.294877e+03,1.314750e+03
2.297770e+03,1.326135e+03
2.300663e+03,1.313031e+03
2.303555e+03,1.304543e+03
2.306448e+03,1.312962e+03
2.309341e+03,1.306546e+03
2.312233e+03,1.301456e+03
2.315126e+03,1.297201e+03
2.318019e+03,1.299852e+03
2.320912e+03,1.287242e+03
2.323804e+03,1.274880e+03
2.326697e+03,1.287627e+03
2.329590e+03,1.276451e+03
2.332482e+03,1.282326e+03
2.335375e+03,1.262949e+03
2.338268e+03,1.262459e+03
2.341160e+03,1.260296e+03
2.344053e+03,1.261374e+03
2.346946e+03,1.254861e+03
2.349839e+03,1.249058e+03
2.352731e+03,1.244843e+03
2.355624e+03,1.249381e+03
2.358517e+03,1.241086e+03
2.361409e+03,1.244978e+03
2.364302e+03,1.235540e+03
2.367195e+03,1.220273e+03
2.370087e+03,1.232618e+03
2.372980e+03,1.209273e+03
2.375873e+03,1.213555e+03
2.378766e+03,1.217537e+03
2.381658e+03,1.207198e+03
2.384551e+03,1.214033e+03
2.387444e+03,1.206778e+03
2.390336e+03,1.202440e+03
2.393229e+03,1.182583e+03
2.396122e+03,1.188762e+03
2.399014e+03,1.177098e+03
2.401907e+03,1.177289e+03
2.404800e+03,1.175199e+03
2.407693e+03,1.191305e+03
2.410585e+03,1.174263e+03
2.413478e+03,1.172554e+03
2.416371e+03,1.178513e+03
2.419263e+03,1.163765e+03
2.422156e+03,1.172634e+03
2.425049e+03,1.139709e+03
2.427941e+03,1.149079e+03
2.430834e+03,1.147878e+03
2.433727e+03,1.141175e+03
2.436620e+03,1.150156e+03
2.439512e+03,1.127233e+03
2.442405e+03,1.133898e+03
2.445298e+03,1.140417e+03
2.448190e+03,1.129710e+03
2.451083e+03,1.146441e+03
2.453976e+03,1.129676e+03
2.456868e+03,1.122846e+03
2.459761e+03,1.104418e+03
2.462654e+03,1.111864e+03
2.465547e+03,1.106820e+03
2.468439e+03,1.111338e+03
2.471332e+03,1.111092e+03
2.474225e+03,1.109028e+03
2.477117e+03,1.096939e+03
2.480010e+03,1.109515e+03
2.482903e+03,1.104744e+03
2.485795e+03,1.098786e+03
2.488688e+03,1.097139e+03
2.491581e+03,1.076715e+03
2.494474e+03,1.085105e+03
2.497366e+03,1.095504e+03
2.500259e+03,1.071430e+03
2.503152e+03,1.071035e+03
2.506044e+03,1.061075e+03
2.508937e+03,1.066247e+03
2.511830e+03,1.055959e+03
2.514722e+03,1.056148e+03
2.517615e+03,1.058756e+03
2.520508e+03,1.066934e+03
2.523401e+03,1.043971e+03
2.526293e+03,1.033704e+03
2.529186e+03,1.049742e+03
2.532079e+03,1.051311e+03
2.534971e+03,1.030203e+03
2.537864e+03,1.039667e+03
2.540757e+03,1.030507e+03
2.543649e+03,1.022301e+03
2.546542e+03,1.028396e+03
2.549435e+03,1.041534e+03
2.552328e+03,1.031638e+03
2.555220e+03,1.050458e+03
2.558113e+03,1.021314e+03
2.561006e+03,1.024169e+03
2.563898e+03,1.024215e+03
2.566791e+03,1.015065e+03
2.569684e+03,1.022233e+03
2.572576e+03,1.011653e+03
2.575469e+03,1.013888e+03
2.578362e+03,1.007798e+03
2.581255e+03,1.008314e+03
2.584147e+03,1.018289e+03
2.587040e+03,9.873183e+02
2.589933e+03,9.887655e+02
2.592825e+03,9.872373e+02
2.595718e+03,1.000760e+03
2.598611e+03,9.834034e+02
2.601503e+03,9.675487e+02
2.604396e+03,9.793331e+02
2.607289e+03,9.834542e+02
2.610182e+03,9.647051e+02
2.613074e+03,9.489472e+02
2.615967e+03,9.539310e+02
2.618860e+03,9.743709e+02
2.621752e+03,9.504150e+02
2.624645e+03,9.571411e+02
2.627538e+03,9.569895e+02
2.630430e+03,9.406837e+02
2.633323e+03,9.562744e+02
2.636216e+03,9.394121e+02
2.639109e+03,9.481879e+02
2.642001e+03,9.462726e+02
2.644894e+03,9.226354e+02
2.647787e+03,9.251073e+02
2.650679e+03,9.220870e+02
2.653572e+03,9.487898e+02
2.656465e+03,9.279685e+02
2.659357e+03,9.301722e+02
2.662250e+03,9.174591e+02
2.665143e+03,9.311540e+02
2.668036e+03,8.993362e+02
2.670928e+03,9.147323e+02
2.673821e+03,9.221340e+02
2.676714e+03,9.032725e+02
2.679606e+03,9.128182e+02
2.682499e+03,9.046472e+02
2.685392e+03,8.992028e+02
2.688284e+03,9.005492e+02
2.691177e+03,9.204678e+02
2.694070e+03,8.968101e+02
2.696963e+03,8.911346e+02
2.699855e+03,9.135803e+02
2.702748e+03,9.017576e+02
2.705641e+03,8.920671e+02
2.708533e+03,9.152042e+02
2.711426e+03,8.821492e+02
2.714319e+03,8.948965e+02
2.717211e+03,8.614235e+02
2.720104e+03,8.898428e+02
2.722997e+03,8.733196e+02
2.725890e+03,8.584766e+02
2.728782e+03,8.875762e+02
2.731675e+03,8.584545e+02
2.734568e+03,8.868643e+02
2.737460e+03,8.677301e+02
2.740353e+03,8.539919e+02
2.743246e+03,8.678138e+02
2.746138e+03,8.474835e+02
2.749031e+03,8.798085e+02
2.751924e+03,8.610886e+02
2.754817e+03,8.517410e+02
2.757709e+03,8.641729e+02
2.760602e+03,8.447596e+02
2.763495e+03,8.518110e+02
2.766387e+03,8.564489e+02
2.769280e+03,8.464470e+02
2.772173e+03,8.654113e+02
2.775065e+03,8.381463e+02
2.777958e+03,8.463380e+02
2.780851e+03,8.314542e+02
2.783744e+03,8.506077e+02
2.786636e+03,8.306211e+02
2.789529e+03,8.375486e+02
2.792422e+03,8.405194e+02
2.795314e+03,8.281143e+02
2.798207e+03,8.302426e+02
2.801100e+03,8.292659e+02
2.803992e+03,8.116926e+02
2.806885e+03,8.197777e+02
2.809778e+03,8.479854e+02
2.812671e+03,8.292921e+02
2.815563e+03,8.154899e+02
2.818456e+03,7.869454e+02
2.821349e+03,8.100947e+02
2.824241e+03,8.107161e+02
2.827134e+03,8.099189e+02
2.830027e+03,8.148963e+02
2.832919e+03,8.032576e+02
2.835812e+03,8.154459e+02
2.838705e+03,8.086784e+02
2.841598e+03,8.128897e+02
2.844490e+03,8.002641e+02
2.847383e+03,8.235048e+02
2.850276e+03,8.149022e+02
2.853168e+03,8.167281e+02
2.856061e+03,8.060333e+02
2.858954e+03,8.086060e+02
2.861846e+03,8.086812e+02
2.864739e+03,7.823912e+02
2.867632e+03,8.195832e+02
2.870525e+03,8.159199e+02
2.873417e+03,8.127054e+02
2.876310e+03,8.188793e+02
2.879203e+03,7.978210e+02
2.882095e+03,8.041743e+02
2.884988e+03,8.111725e+02
2.887881e+03,8.296129e+02
2.890773e+03,8.232493e+02
2.893666e+03,8.301163e+02
2.896559e+03,8.082064e+02
2.899452e+03,8.165204e+02
2.902344e+03,8.005629e+02
2.905237e+03,8.156807e+02
2.908130e+03,7.973054e+02
2.911022e+03,7.926607e+02
2.913915e+03,7.825001e+02
2.916808e+03,7.747571e+02
2.919700e+03,8.059511e+02
2.922593e+03,7.640853e+02
2.925486e+03,7.833336e+02
2.928379e+03,7.837510e+02
2.931271e+03,7.811469e+02
2.934164e+03,7.675279e+02
2.937057e+03,7.642549e+02
2.939949e+03,7.560090e+02
2.942842e+03,7.576475e+02
2.945735e+03,7.640547e+02
2.948627e+03,7.613456e+02
2.951520e+03,7.664589e+02
2.954413e+03,7.726515e+02
2.957306e+03,7.705114e+02
2.960198e+03,7.887634e+02
2.963091e+03,7.543154e+02
2.965984e+03,7.469034e+02
2.968876e+03,7.670385e+02
2.971769e+03,7.371101e+02
2.974662e+03,7.484420e+02
2.977554e+03,7.308497e+02
2.980447e+03,7.393925e+02
2.983340e+03,7.386085e+02
2.986233e+03,7.421794e+02
2.989125e+03,7.351907e+02
2.992018e+03,7.163242e+02
2.994911e+03,7.162307e+02
2.997803e+03,6.943668e+02
3.000696e+03,7.267269e+02
3.003589e+03,7.094786e+02
3.006481e+03,7.222390e+02
3.009374e+03,7.068396e+02
3.012267e+03,6.890850e+02
3.015160e+03,6.921296e+02
3.018052e+03,6.769881e+02
3.020945e+03,7.258174e+02
3.023838e+03,6.892786e+02
3.026730e+03,7.121384e+02
3.029623e+03,6.997903e+02
3.032516e+03,7.111279e+02
3.035408e+03,7.017501e+02
3.038301e+03,6.940554e+02
3.041194e+03,7.004293e+02
3.044087e+03,6.625029e+02
3.046979e+03,7.038858e+02
3.049872e+03,6.976313e+02
3.052765e+03,6.836465e+02
3.055657e+03,6.865986e+02
3.058550e+03,7.085468e+02
3.061443e+03,6.769097e+02
3.064335e+03,7.044597e+02
3.067228e+03,7.031632e+02
3.070121e+03,6.916526e+02
3.073014e+03,6.819733e+02
3.075906e+03,6.873890e+02
3.078799e+03,6.806066e+02
3.081692e+03,6.907968e+02
3.084584e+03,6.580327e+02
3.087477e+03,6.831414e+02
3.090370e+03,6.957519e+02
3.093262e+03,6.745593e+02
3.096155e+03,6.500120e+02
3.099048e+03,6.687260e+02
3.101941e+03,6.350033e+02
3.104833e+03,6.837249e+02
3.107726e+03,6.893018e+02
3.110619e+03,6.967980e+02
3.113511e+03,6.521805e+02
3.116404e+03,6.815303e+02
3.119297e+03,6.799217e+02
3.122189e+03,6.836805e+02
3.125082e+03,6.831624e+02
3.127975e+03,6.681864e+02
3.130868e+03,6.869622e+02
3.133760e+03,6.806073e+02
3.136653e+03,6.764976e+02
3.139546e+03,6.875757e+02
3.142438e+03,6.869310e+02
3.145331e+03,6.370870e+02
3.148224e+03,6.923952e+02
3.151116e+03,6.475662e+02
3.154009e+03,6.910040e+02
3.156902e+03,6.705533e+02
3.159795e+03,6.513624e+02
3.162687e+03,6.579473e+02
3.165580e+03,6.770231e+02
3.168473e+03,6.536129e+02
3.171365e+03,6.960451e+02
3.174258e+03,6.557225e+02
3.177151e+03,6.941561e+02
3.180043e+03,7.049580e+02
3.182936e+03,6.650709e+02
3.185829e+03,6.754187e+02
3.188722e+03,6.596786e+02
3.191614e+03,6.976328e+02
3.194507e+03,6.957322e+02
3.197400e+03,6.629301e+02
3.200292e+03,6.836238e+02
3.203185e+03,0.000000e+00
3.206078e+03,0.000000e+00
3.208970e+03,0.000000e+00
3.211863e+03,0.000000e+00
3.214756e+03,0.000000e+00
3.217649e+03,0.000000e+00
3.220541e+03,0.000000e+00
3.223434e+03,0.000000e+00
3.226327e+03,0.000000e+00
3.229219e+03,0.000000e+00
3.232112e+03,0.000000e+00
3.235005e+03,0.000000e+00
3.237897e+03,0.000000e+00
3.240790e+03,0.000000e+00
3.243683e+03,0.000000e+00
3.246576e+03,0.000000e+00
3.249468e+03,0.000000e+00
3.252361e+03,0.000000e+00
3.255254e+03,0.000000e+00
3.258146e+03,0.000000e+00
3.261039e+03,0.000000e+00
3.263932e+03,0.000000e+00
3.266824e+03,0.000000e+00
3.269717e+03,0.000000e+00
3.272610e+03,0.000000e+00
3.275503e+03,0.000000e+00
3.278395e+03,0.000000e+00
3.281288e+03,0.000000e+00
3.284181e+03,0.000000e+00
3.287073e+03,0.000000e+00
3.289966e+03,0.000000e+00
3.292859e+03,0.000000e+00
3.295751e+03,0.000000e+00
3.298644e+03,0.000000e+00
3.301537e+03,0.000000e+00
3.304430e+03,0.000000e+00
3.307322e+03,0.000000e+00
3.310215e+03,0.000000e+00
3.313108e+03,0.000000e+00
3.316000e+03,0.000000e+00
3.318893e+03,0.000000e+00
3.321786e+03,0.000000e+00
3.324678e+03,0.000000e+00
3.327571e+03,0.000000e+00
3.330464e+03,0.000000e+00
3.333357e+03,0.000000e+00
3.336249e+03,0.000000e+00
3.339142e+03,0.000000e+00
3.342035e+03,0.000000e+00
3.344927e+03,0.000000e+00
3.347820e+03,0.000000e+00
3.350713e+03,0.000000e+00
3.353605e+03,0.000000e+00
3.356498e+03,0.000000e+00
3.359391e+03,0.000000e+00
3.362284e+03,0.000000e+00
3.365176e+03,0.000000e+00
3.368069e+03,0.000000e+00
3.370962e+03,0.000000e+00
3.373854e+03,0.000000e+00
3.376747e+03,0.000000e+00
3.379640e+03,0.000000e+00
3.382532e+03,0.000000e+00
3.385425e+03,0.000000e+00
3.388318e+03,0.000000e+00
3.391211e+03,0.000000e+00
3.394103e+03,0.000000e+00
3.396996e+03,0.000000e+00
3.399889e+03,0.000000e+00
3.402781e+03,0.000000e+00
3.405674e+03,0.000000e+00
3.408567e+03,0.000000e+00
3.411459e+03,0.000000e+00
3.414352e+03,0.000000e+00
3.417245e+03,0.000000e+00
3.420138e+03,0.000000e+00
3.423030e+03,0.000000e+00
3.425923e+03,0.000000e+00
3.428816e+03,0.000000e+00
3.431708e+03,0.000000e+00
3.434601e+03,0.000000e+00
3.437494e+03,0.000000e+00
3.440386e+03,0.000000e+00
3.443279e+03,0.000000e+00
3.446172e+03,0.000000e+00
3.449065e+03,0.000000e+00
3.451957e+03,0.000000e+00
3.454850e+03,0.000000e+00
3.457743e+03,0.000000e+00
3.460635e+03,0.000000e+00
3.463528e+03,0.000000e+00
3.466421e+03,0.000000e+00
3.469313e+03,0.000000e+00
3.472206e+03,0.000000e+00
3.475099e+03,0.000000e+00
3.477992e+03,0.000000e+00
3.480884e+03,0.000000e+00
3.483777e+03,0.000000e+00
3.486670e+03,0.000000e+00
3.489563e+03,0.000000e+00
3.492455e+03,0.000000e+00
3.495348e+03,0.000000e+00
3.498240e+03,0.000000e+00
3.500169e+03,0.000000e+00