File: RAMAN_data/06022023_r2/black fibre4.CSV
9.931763e+01,0.000000e+00
1.022103e+02,0.000000e+00
1.051030e+02,0.000000e+00
1.079957e+02,0.000000e+00
1.108884e+02,0.000000e+00
1.137811e+02,0.000000e+00
1.166738e+02,0.000000e+00
1.195665e+02,0.000000e+00
1.224592e+02,0.000000e+00
1.253519e+02,0.000000e+00
1.282446e+02,0.000000e+00
1.311373e+02,0.000000e+00
1.340300e+02,0.000000e+00
1.369227e+02,0.000000e+00
1.398154e+02,0.000000e+00
1.427081e+02,0.000000e+00
1.456008e+02,0.000000e+00
1.484935e+02,0.000000e+00
1.513862e+02,0.000000e+00
1.542789e+02,0.000000e+00
1.571716e+02,0.000000e+00
1.600643e+02,0.000000e+00
1.629570e+02,0.000000e+00
1.658497e+02,0.000000e+00
1.687424e+02,0.000000e+00
1.716351e+02,0.000000e+00
1.745278e+02,0.000000e+00
1.774205e+02,0.000000e+00
1.803132e+02,0.000000e+00
1.832059e+02,0.000000e+00
1.860986e+02,0.000000e+00
1.889913e+02,0.000000e+00
1.918840e+02,0.000000e+00
1.947767e+02,0.000000e+00
1.976694e+02,0.000000e+00
2.005621e+02,1.362896e+03
2.034548e+02,1.366840e+03
2.063475e+02,1.376145e+03
2.092402e+02,1.369239e+03
2.121329e+02,1.366180e+03
2.150256e+02,1.381584e+03
2.179183e+02,1.370405e+03
2.208110e+02,1.374787e+03
2.237037e+02,1.372116e+03
2.265964e+02,1.369641e+03
2.294892e+02,1.371374e+03
2.323819e+02,1.377403e+03
2.352746e+02,1.380482e+03
2.381673e+02,1.376503e+03
2.410600e+02,1.371505e+03
2.439527e+02,1.378196e+03
2.468454e+02,1.374660e+03
2.497381e+02,1.367338e+03
2.526308e+02,1.377372e+03
2.555235e+02,1.376807e+03
2.584161e+02,1.364871e+03
2.613088e+02,1.365217e+03
2.642015e+02,1.372859e+03
2.670942e+02,1.379607e+03
2.699869e+02,1.374982e+03
2.728796e+02,1.377637e+03
2.757723e+02,1.372328e+03
2.786650e+02,1.377263e+03
2.815577e+02,1.382270e+03
2.844504e+02,1.378998e+03
2.873431e+02,1.375610e+03
2.902358e+02,1.372836e+03
2.931285e+02,1.375533e+03
2.960212e+02,1.370465e+03
2.989139e+02,1.376700e+03
3.018066e+02,1.380579e+03
3.046993e+02,1.381468e+03
3.075920e+02,1.378909e+03
3.104847e+02,1.363250e+03
3.133774e+02,1.379672e+03
3.162701e+02,1.369938e+03
3.191628e+02,1.370185e+03
3.220555e+02,1.369109e+03
3.249482e+02,1.373004e+03
3.278409e+02,1.374782e+03
3.307336e+02,1.378020e+03
3.336263e+02,1.368554e+03
3.365190e+02,1.369868e+03
3.394117e+02,1.373856e+03
3.423044e+02,1.376391e+03
3.451971e+02,1.375198e+03
3.480898e+02,1.378919e+03
3.509825e+02,1.370524e+03
3.538752e+02,1.372301e+03
3.567680e+02,1.373188e+03
3.596607e+02,1.368985e+03
3.625534e+02,1.368877e+03
3.654461e+02,1.363757e+03
3.683388e+02,1.364211e+03
3.712315e+02,1.365426e+03
3.741242e+02,1.390160e+03
3.770169e+02,1.404659e+03
3.799096e+02,1.388215e+03
3.828023e+02,1.370696e+03
3.856950e+02,1.365953e+03
3.885877e+02,1.362186e+03
3.914804e+02,1.364595e+03
3.943731e+02,1.355531e+03
3.972658e+02,1.361322e+03
4.001585e+02,1.343851e+03
4.030512e+02,1.367268e+03
4.059439e+02,1.350035e+03
4.088366e+02,1.344727e+03
4.117293e+02,1.343782e+03
4.146220e+02,1.345581e+03
4.175147e+02,1.343718e+03
4.204074e+02,1.349066e+03
4.233001e+02,1.343682e+03
4.261928e+02,1.345529e+03
4.290855e+02,1.341845e+03
4.319782e+02,1.363724e+03
4.348709e+02,1.369853e+03
4.377636e+02,1.361369e+03
4.406563e+02,1.344987e+03
4.435490e+02,1.350070e+03
4.464417e+02,1.339982e+03
4.493344e+02,1.345123e+03
4.522271e+02,1.348853e+03
4.551198e+02,1.354209e+03
4.580125e+02,1.340068e+03
4.609052e+02,1.341660e+03
4.637979e+02,1.335891e+03
4.666906e+02,1.333680e+03
4.695833e+02,1.313672e+03
4.724760e+02,1.324941e+03
4.753687e+02,1.326178e+03
4.782614e+02,1.312488e+03
4.811541e+02,1.319976e+03
4.840468e+02,1.322969e+03
4.869395e+02,1.317211e+03
4.898322e+02,1.309610e+03
4.927249e+02,1.316257e+03
4.956176e+02,1.322667e+03
4.985103e+02,1.317684e+03
5.014030e+02,1.298838e+03
5.042957e+02,1.317520e+03
5.071884e+02,1.307451e+03
5.100811e+02,1.311990e+03
5.129738e+02,1.316500e+03
5.158665e+02,1.325299e+03
5.187592e+02,1.322013e+03
5.216519e+02,1.312602e+03
5.245446e+02,1.297091e+03
5.274373e+02,1.315074e+03
5.303300e+02,1.294108e+03
5.332227e+02,1.289519e+03
5.361154e+02,1.287107e+03
5.390081e+02,1.288587e+03
5.419008e+02,1.277654e+03
5.447935e+02,1.284454e+03
5.476862e+02,1.279534e+03
5.505789e+02,1.281016e+03
5.534716e+02,1.278221e+03
5.563643e+02,1.277476e+03
5.592570e+02,1.276940e+03
5.621497e+02,1.281469e+03
5.650424e+02,1.278079e+03
5.679351e+02,1.265148e+03
5.708278e+02,1.266557e+03
5.737205e+02,1.263266e+03
5.766132e+02,1.259669e+03
5.795059e+02,1.269667e+03
5.823986e+02,1.257103e+03
5.852913e+02,1.265052e+03
5.881840e+02,1.270351e+03
5.910767e+02,1.257814e+03
5.939694e+02,1.261459e+03
5.968621e+02,1.260226e+03
5.997548e+02,1.251847e+03
6.026475e+02,1.254856e+03
6.055402e+02,1.244319e+03
6.084329e+02,1.251846e+03
6.113256e+02,1.247761e+03
6.142183e+02,1.242385e+03
6.171110e+02,1.245411e+03
6.200037e+02,1.234692e+03
6.228964e+02,1.248580e+03
6.257891e+02,1.247513e+03
6.286818e+02,1.241589e+03
6.315745e+02,1.234455e+03
6.344672e+02,1.220069e+03
6.373599e+02,1.214950e+03
6.402526e+02,1.238058e+03
6.431453e+02,1.226658e+03
6.460380e+02,1.222836e+03
6.489307e+02,1.235770e+03
6.518234e+02,1.229146e+03
6.547161e+02,1.219164e+03
6.576088e+02,1.217651e+03
6.605015e+02,1.214051e+03
6.633942e+02,1.210384e+03
6.662869e+02,1.215771e+03
6.691796e+02,1.210977e+03
6.720723e+02,1.211018e+03
6.749650e+02,1.207757e+03
6.778577e+02,1.213789e+03
6.807504e+02,1.201259e+03
6.836431e+02,1.201632e+03
6.865358e+02,1.202610e+03
6.894285e+02,1.190601e+03
6.923212e+02,1.194063e+03
6.952139e+02,1.195141e+03
6.981066e+02,1.209119e+03
7.009993e+02,1.198174e+03
7.038920e+02,1.194404e+03
7.067847e+02,1.193740e+03
7.096774e+02,1.186906e+03
7.125701e+02,1.194574e+03
7.154628e+02,1.187599e+03
7.183555e+02,1.184394e+03
7.212482e+02,1.186628e+03
7.241409e+02,1.181050e+03
7.270336e+02,1.188709e+03
7.299263e+02,1.178698e+03
7.328190e+02,1.172830e+03
7.357117e+02,1.176331e+03
7.386044e+02,1.174907e+03
7.414971e+02,1.161533e+03
7.443898e+02,1.174876e+03
7.472825e+02,1.180134e+03
7.501752e+02,1.163079e+03
7.530679e+02,1.159548e+03
7.559606e+02,1.164162e+03
7.588533e+02,1.164905e+03
7.617460e+02,1.154537e+03
7.646387e+02,1.161080e+03
7.675314e+02,1.149375e+03
7.704241e+02,1.138612e+03
7.733168e+02,1.145720e+03
7.762095e+02,1.143712e+03
7.791022e+02,1.143411e+03
7.819949e+02,1.148294e+03
7.848876e+02,1.132767e+03
7.877803e+02,1.135313e+03
7.906730e+02,1.139634e+03
7.935657e+02,1.132235e+03
7.964584e+02,1.127014e+03
7.993511e+02,1.118576e+03
8.022438e+02,1.124993e+03
8.051365e+02,1.124866e+03
8.080292e+02,1.133915e+03
8.109219e+02,1.136556e+03
8.138146e+02,1.117680e+03
8.167073e+02,1.123802e+03
8.196000e+02,1.106045e+03
8.224927e+02,1.108424e+03
8.253854e+02,1.115386e+03
8.282781e+02,1.109919e+03
8.311708e+02,1.110229e+03
8.340635e+02,1.108373e+03
8.369562e+02,1.108661e+03
8.398489e+02,1.111186e+03
8.427416e+02,1.104441e+03
8.456343e+02,1.093999e+03
8.485270e+02,1.097535e+03
8.514197e+02,1.093878e+03
8.543124e+02,1.100013e+03
8.572051e+02,1.097344e+03
8.600978e+02,1.087810e+03
8.629905e+02,1.095011e+03
8.658832e+02,1.090551e+03
8.687759e+02,1.091852e+03
8.716686e+02,1.085459e+03
8.745613e+02,1.093985e+03
8.774540e+02,1.089537e+03
8.803467e+02,1.081964e+03
8.832394e+02,1.088944e+03
8.861321e+02,1.091256e+03
8.890248e+02,1.074769e+03
8.919175e+02,1.086022e+03
8.948102e+02,1.074381e+03
8.977029e+02,1.075051e+03
9.005956e+02,1.071781e+03
9.034883e+02,1.072763e+03
9.063810e+02,1.077368e+03
9.092737e+02,1.071946e+03
9.121664e+02,1.066831e+03
9.150591e+02,1.064345e+03
9.179518e+02,1.056302e+03
9.208445e+02,1.055499e+03
9.237372e+02,1.051699e+03
9.266299e+02,1.049514e+03
9.295226e+02,1.052650e+03
9.324153e+02,1.041517e+03
9.353080e+02,1.058311e+03
9.382007e+02,1.045987e+03
9.410934e+02,1.047009e+03
9.439861e+02,1.047675e+03
9.468788e+02,1.042554e+03
9.497715e+02,1.050791e+03
9.526642e+02,1.040141e+03
9.555569e+02,1.037458e+03
9.584496e+02,1.047758e+03
9.613423e+02,1.032938e+03
9.642350e+02,1.038406e+03
9.671277e+02,1.037976e+03
9.700204e+02,1.040236e+03
9.729131e+02,1.024417e+03
9.758058e+02,1.026888e+03
9.786985e+02,1.027706e+03
9.815912e+02,1.029146e+03
9.844839e+02,1.027840e+03
9.873766e+02,1.025526e+03
9.902693e+02,1.022695e+03
9.931620e+02,1.024145e+03
9.960547e+02,1.029250e+03
9.989474e+02,1.032602e+03
1.001840e+03,1.014281e+03
1.004733e+03,1.016064e+03
1.007626e+03,1.021809e+03
1.010518e+03,1.010384e+03
1.013411e+03,1.016394e+03
1.016304e+03,1.005240e+03
1.019196e+03,1.009265e+03
1.022089e+03,1.011751e+03
1.024982e+03,1.003893e+03
1.027875e+03,9.979398e+02
1.030767e+03,1.013558e+03
1.033660e+03,1.008683e+03
1.036552e+03,1.007765e+03
1.039445e+03,1.001669e+03
1.042338e+03,9.959884e+02
1.045231e+03,1.005671e+03
1.048123e+03,9.988176e+02
1.051016e+03,1.001534e+03
1.053909e+03,9.954402e+02
1.056802e+03,9.953835e+02
1.059694e+03,1.001160e+03
1.062587e+03,9.910020e+02
1.065479e+03,9.817835e+02
1.068372e+03,9.957227e+02
1.071265e+03,9.969368e+02
1.074158e+03,1.007296e+03
1.077050e+03,9.967139e+02
1.079943e+03,9.991371e+02
1.082836e+03,9.972660e+02
1.085729e+03,1.000379e+03
1.088621e+03,1.026172e+03
1.091514e+03,1.038228e+03
1.094406e+03,1.032291e+03
1.097299e+03,1.026123e+03
1.100192e+03,1.004221e+03
1.103085e+03,1.010737e+03
1.105977e+03,9.987109e+02
1.108870e+03,9.904924e+02
1.111763e+03,9.985383e+02
1.114656e+03,9.987235e+02
1.117548e+03,1.007025e+03
1.120441e+03,1.013401e+03
1.123334e+03,1.006610e+03
1.126226e+03,1.004164e+03
1.129119e+03,9.820908e+02
1.132012e+03,9.720740e+02
1.134904e+03,9.752480e+02
1.137797e+03,9.634166e+02
1.140690e+03,9.699539e+02
1.143583e+03,9.698203e+02
1.146475e+03,9.709720e+02
1.149368e+03,9.801133e+02
1.152261e+03,9.770950e+02
1.155153e+03,9.645773e+02
1.158046e+03,9.628619e+02
1.160939e+03,9.598935e+02
1.163831e+03,9.551469e+02
1.166724e+03,9.490419e+02
1.169617e+03,9.490876e+02
1.172510e+03,9.443143e+02
1.175402e+03,9.444430e+02
1.178295e+03,9.458666e+02
1.181188e+03,9.379268e+02
1.184080e+03,9.398244e+02
1.186973e+03,9.279060e+02
1.189866e+03,9.250917e+02
1.192758e+03,9.339936e+02
1.195651e+03,9.250206e+02
1.198544e+03,9.359935e+02
1.201437e+03,9.272961e+02
1.204329e+03,9.277371e+02
1.207222e+03,9.240753e+02
1.210115e+03,9.222972e+02
1.213007e+03,9.344235e+02
1.215900e+03,9.252210e+02
1.218793e+03,9.219143e+02
1.221685e+03,9.249867e+02
1.224578e+03,9.272112e+02
1.227471e+03,9.313781e+02
1.230364e+03,9.234588e+02
1.233256e+03,9.220544e+02
1.236149e+03,9.166148e+02
1.239042e+03,9.135209e+02
1.241934e+03,9.179358e+02
1.244827e+03,9.147440e+02
1.247720e+03,9.113000e+02
1.250612e+03,9.113577e+02
1.253505e+03,9.089301e+02
1.256398e+03,9.105399e+02
1.259291e+03,9.135715e+02
1.262183e+03,9.075300e+02
1.265076e+03,9.156116e+02
1.267969e+03,8.971000e+02
1.270861e+03,9.198933e+02
1.273754e+03,9.120815e+02
1.276647e+03,9.127218e+02
1.279539e+03,9.082708e+02
1.282432e+03,9.116466e+02
1.285325e+03,9.126190e+02
1.288218e+03,9.156813e+02
1.291110e+03,9.242490e+02
1.294003e+03,9.180521e+02
1.296896e+03,9.050664e+02
1.299788e+03,8.945600e+02
1.302681e+03,9.051106e+02
1.305574e+03,9.123901e+02
1.308466e+03,9.037480e+02
1.311359e+03,8.990641e+02
1.314252e+03,9.085704e+02
1.317145e+03,9.135818e+02
1.320037e+03,9.184239e+02
1.322930e+03,9.043596e+02
1.325823e+03,9.087132e+02
1.328715e+03,9.038084e+02
1.331608e+03,9.128130e+02
1.334501e+03,9.100858e+02
1.337393e+03,9.034800e+02
1.340286e+03,9.023563e+02
1.343179e+03,8.942180e+02
1.346072e+03,8.932440e+02
1.348964e+03,8.936932e+02
1.351857e+03,8.859791e+02
1.354750e+03,8.898645e+02
1.357642e+03,8.851819e+02
1.360535e+03,8.844578e+02
1.363428e+03,8.881801e+02
1.366320e+03,8.934968e+02
1.369213e+03,8.960805e+02
1.372106e+03,8.881140e+02
1.374999e+03,8.900916e+02
1.377891e+03,8.951846e+02
1.380784e+03,8.991625e+02
1.383677e+03,8.843905e+02
1.386569e+03,8.773853e+02
1.389462e+03,8.763173e+02
1.392355e+03,8.678308e+02
1.395247e+03,8.690022e+02
1.398140e+03,8.628040e+02
1.401033e+03,8.654055e+02
1.403926e+03,8.700174e+02
1.406818e+03,8.606238e+02
1.409711e+03,8.678068e+02
1.412604e+03,8.736494e+02
1.415496e+03,8.615715e+02
1.418389e+03,8.606505e+02
1.421282e+03,8.601169e+02
1.424174e+03,8.544601e+02
1.427067e+03,8.599854e+02
1.429960e+03,8.502018e+02
1.432853e+03,8.516348e+02
1.435745e+03,8.579069e+02
1.438638e+03,8.478364e+02
1.441531e+03,8.432177e+02
1.444423e+03,8.485059e+02
1.447316e+03,8.477153e+02
1.450209e+03,8.421563e+02
1.453101e+03,8.481671e+02
1.455994e+03,8.478305e+02
1.458887e+03,8.475358e+02
1.461780e+03,8.519847e+02
1.464672e+03,8.465182e+02
1.467565e+03,8.431567e+02
1.470458e+03,8.417336e+02
1.473350e+03,8.527153e+02
1.476243e+03,8.532110e+02
1.479136e+03,8.380559e+02
1.482028e+03,8.404393e+02
1.484921e+03,8.330657e+02
1.487814e+03,8.296295e+02
1.490707e+03,8.266616e+02
1.493599e+03,8.314854e+02
1.496492e+03,8.309661e+02
1.499385e+03,8.243430e+02
1.502277e+03,8.266835e+02
1.505170e+03,8.306305e+02
1.508063e+03,8.242133e+02
1.510955e+03,8.231732e+02
1.513848e+03,8.140605e+02
1.516741e+03,8.126922e+02
1.519634e+03,8.132429e+02
1.522526e+03,8.170441e+02
1.525419e+03,8.227277e+02
1.528312e+03,8.161191e+02
1.531204e+03,8.093839e+02
1.534097e+03,8.278102e+02
1.536990e+03,8.246533e+02
1.539882e+03,8.115018e+02
1.542775e+03,8.106701e+02
1.545668e+03,8.090706e+02
1.548561e+03,8.117593e+02
1.551453e+03,8.093235e+02
1.554346e+03,8.078582e+02
1.557239e+03,8.086318e+02
1.560131e+03,8.046928e+02
1.563024e+03,8.054778e+02
1.565917e+03,7.977040e+02
1.568809e+03,8.056533e+02
1.571702e+03,7.967552e+02
1.574595e+03,7.909232e+02
1.577488e+03,7.942816e+02
1.580380e+03,7.965398e+02
1.583273e+03,8.004828e+02
1.586166e+03,7.860783e+02
1.589058e+03,7.882689e+02
1.591951e+03,7.914766e+02
1.594844e+03,7.962002e+02
1.597736e+03,7.866288e+02
1.600629e+03,7.910042e+02
1.603522e+03,7.777280e+02
1.606415e+03,7.841719e+02
1.609307e+03,7.853565e+02
1.612200e+03,7.897040e+02
1.615093e+03,7.918561e+02
1.617985e+03,7.902783e+02
1.620878e+03,7.832297e+02
1.623771e+03,7.820189e+02
1.626663e+03,7.670372e+02
1.629556e+03,7.799113e+02
1.632449e+03,7.722092e+02
1.635342e+03,7.775067e+02
1.638234e+03,7.766492e+02
1.641127e+03,7.689901e+02
1.644020e+03,7.756380e+02
1.646912e+03,7.678152e+02
1.649805e+03,7.638769e+02
1.652698e+03,7.658958e+02
1.655590e+03,7.594174e+02
1.658483e+03,7.567494e+02
1.661376e+03,7.615656e+02
1.664269e+03,7.620463e+02
1.667161e+03,7.506029e+02
1.670054e+03,7.589727e+02
1.672947e+03,7.593946e+02
1.675839e+03,7.632213e+02
1.678732e+03,7.512672e+02
1.681625e+03,7.443229e+02
1.684517e+03,7.418665e+02
1.687410e+03,7.471429e+02
1.690303e+03,7.530527e+02
1.693196e+03,7.442579e+02
1.696088e+03,7.543527e+02
1.698981e+03,7.539626e+02
1.701874e+03,7.372748e+02
1.704766e+03,7.411956e+02
1.707659e+03,7.484055e+02
1.710552e+03,7.471244e+02
1.713444e+03,7.356909e+02
1.716337e+03,7.348499e+02
1.719230e+03,7.419055e+02
1.722123e+03,7.361279e+02
1.725015e+03,7.402303e+02
1.727908e+03,7.405235e+02
1.730801e+03,7.324103e+02
1.733693e+03,7.245393e+02
1.736586e+03,7.340401e+02
1.739479e+03,7.291962e+02
1.742371e+03,7.299080e+02
1.745264e+03,7.213741e+02
1.748157e+03,7.275983e+02
1.751050e+03,7.354239e+02
1.753942e+03,7.234477e+02
1.756835e+03,7.240510e+02
1.759728e+03,7.199297e+02
1.762620e+03,7.094423e+02
1.765513e+03,7.108588e+02
1.768406e+03,7.175230e+02
1.771298e+03,7.150298e+02
1.774191e+03,7.082673e+02
1.777084e+03,7.029753e+02
1.779977e+03,7.054061e+02
1.782869e+03,7.044547e+02
1.785762e+03,7.068597e+02
1.788655e+03,7.001317e+02
1.791547e+03,7.034166e+02
1.794440e+03,7.089545e+02
1.797333e+03,6.970164e+02
1.800225e+03,6.957970e+02
1.803118e+03,6.937757e+02
1.806011e+03,6.880348e+02
1.808904e+03,6.833998e+02
1.811796e+03,6.811250e+02
1.814689e+03,6.862305e+02
1.817582e+03,6.917297e+02
1.820474e+03,6.840066e+02
1.823367e+03,6.864891e+02
1.826260e+03,6.790233e+02
1.829152e+03,6.762259e+02
1.832045e+03,6.814893e+02
1.834938e+03,6.722102e+02
1.837831e+03,6.746617e+02
1.840723e+03,6.685263e+02
1.843616e+03,6.759661e+02
1.846509e+03,6.597112e+02
1.849401e+03,6.717361e+02
1.852294e+03,6.675136e+02
1.855187e+03,6.640770e+02
1.858079e+03,6.589821e+02
1.860972e+03,6.529193e+02
1.863865e+03,6.545013e+02
1.866758e+03,6.616334e+02
1.869650e+03,6.559834e+02
1.872543e+03,6.488315e+02
1.875436e+03,6.576299e+02
1.878328e+03,6.569574e+02
1.881221e+03,6.461304e+02
1.884114e+03,6.485834e+02
1.887006e+03,6.397746e+02
1.889899e+03,6.471118e+02
1.892792e+03,6.497551e+02
1.895685e+03,6.433464e+02
1.898577e+03,6.379833e+02
1.901470e+03,6.466483e+02
1.904363e+03,6.323033e+02
1.907255e+03,6.357143e+02
1.910148e+03,6.389654e+02
1.913041e+03,6.290624e+02
1.915933e+03,6.372511e+02
1.918826e+03,6.276168e+02
1.921719e+03,6.300095e+02
1.924612e+03,6.272646e+02
1.927504e+03,6.280719e+02
1.930397e+03,6.271224e+02
1.933290e+03,6.242084e+02
1.936182e+03,6.219055e+02
1.939075e+03,6.308392e+02
1.941968e+03,6.207233e+02
1.944860e+03,6.322969e+02
1.947753e+03,6.199554e+02
1.950646e+03,6.224277e+02
1.953539e+03,6.209467e+02
1.956431e+03,6.186964e+02
1.959324e+03,6.220945e+02
1.962217e+03,6.191658e+02
1.965109e+03,6.139647e+02
1.968002e+03,6.161229e+02
1.970895e+03,6.102545e+02
1.973787e+03,6.124304e+02
1.976680e+03,6.140066e+02
1.979573e+03,6.118743e+02
1.982466e+03,6.060958e+02
1.985358e+03,6.145994e+02
1.988251e+03,6.098314e+02
1.991144e+03,5.974001e+02
1.994036e+03,6.007953e+02
1.996929e+03,6.064747e+02
1.999822e+03,6.032445e+02
2.002714e+03,5.927411e+02
2.005607e+03,5.983344e+02
2.008500e+03,5.822667e+02
2.011393e+03,5.899460e+02
2.014285e+03,6.008867e+02
2.017178e+03,5.920775e+02
2.020071e+03,5.859561e+02
2.022963e+03,5.819481e+02
2.025856e+03,5.865604e+02
2.028749e+03,5.910953e+02
2.031641e+03,5.792287e+02
2.034534e+03,5.762938e+02
2.037427e+03,5.852308e+02
2.040320e+03,5.667050e+02
2.043212e+03,5.765713e+02
2.046105e+03,5.714298e+02
2.048998e+03,5.742919e+02
2.051890e+03,5.771643e+02
2.054783e+03,5.734620e+02
2.057676e+03,5.564273e+02
2.060568e+03,5.629527e+02
2.063461e+03,5.623581e+02
2.066354e+03,5.663218e+02
2.069247e+03,5.571768e+02
2.072139e+03,5.579587e+02
2.075032e+03,5.607602e+02
2.077925e+03,5.514529e+02
2.080817e+03,5.518307e+02
2.083710e+03,5.442687e+02
2.086603e+03,5.460167e+02
2.089496e+03,5.540304e+02
2.092388e+03,5.425681e+02
2.095281e+03,5.446438e+02
2.098174e+03,5.277019e+02
2.101066e+03,5.360269e+02
2.103959e+03,5.402010e+02
2.106852e+03,5.189182e+02
2.109744e+03,5.328872e+02
2.112637e+03,5.236956e+02
2.115530e+03,5.290889e+02
2.118422e+03,5.227937e+02
2.121315e+03,5.336015e+02
2.124208e+03,5.343239e+02
2.127101e+03,5.208370e+02
2.129993e+03,5.235197e+02
2.132886e+03,5.223863e+02
2.135779e+03,5.222267e+02
2.138671e+03,5.278072e+02
2.141564e+03,5.169828e+02
2.144457e+03,5.146027e+02
2.147350e+03,5.115252e+02
2.150242e+03,5.182553e+02
2.153135e+03,5.170051e+02
2.156028e+03,5.007592e+02
2.158920e+03,5.129780e+02
2.161813e+03,5.133214e+02
2.164706e+03,5.006441e+02
2.167598e+03,5.120523e+02
2.170491e+03,5.046427e+02
2.173384e+03,5.042411e+02
2.176277e+03,4.995385e+02
2.179169e+03,4.966667e+02
2.182062e+03,5.026388e+02
2.184955e+03,5.133889e+02
2.187847e+03,4.904327e+02
2.190740e+03,4.979078e+02
2.193633e+03,4.929439e+02
2.196525e+03,4.887646e+02
2.199418e+03,5.029474e+02
2.202311e+03,4.958175e+02
2.205204e+03,4.877810e+02
2.208096e+03,4.923532e+02
2.210989e+03,4.852831e+02
2.213882e+03,4.894547e+02
2.216774e+03,4.958924e+02
2.219667e+03,4.895399e+02
2.222560e+03,4.885668e+02
2.225452e+03,4.886245e+02
2.228345e+03,4.892935e+02
2.231238e+03,4.847617e+02
2.234131e+03,4.772189e+02
2.237023e+03,4.829294e+02
2.239916e+03,4.849584e+02
2.242809e+03,4.790457e+02
2.245701e+03,4.890599e+02
2.248594e+03,4.835278e+02
2.251487e+03,4.714053e+02
2.254379e+03,4.670030e+02
2.257272e+03,4.676781e+02
2.260165e+03,4.737546e+02
2.263058e+03,4.682749e+02
2.265950e+03,4.775293e+02
2.268843e+03,4.629496e+02
2.271736e+03,4.723173e+02
2.274628e+03,4.663993e+02
2.277521e+03,4.633371e+02
2.280414e+03,4.661430e+02
2.283306e+03,4.713589e+02
2.286199e+03,4.608124e+02
2.289092e+03,4.654625e+02
2.291985e+03,4.633274e+02
2.294877e+03,4.634123e+02
2.297770e+03,4.599624e+02
2.300663e+03,4.509325e+02
2.303555e+03,4.559898e+02
2.306448e+03,4.478285e+02
2.309341e+03,4.500075e+02
2.312233e+03,4.576023e+02
2.315126e+03,4.567023e+02
2.318019e+03,4.528970e+02
2.320912e+03,4.487074e+02
2.323804e+03,4.352072e+02
2.326697e+03,4.457896e+02
2.329590e+03,4.392310e+02
2.332482e+03,4.384350e+02
2.335375e+03,4.360209e+02
2.338268e+03,4.369957e+02
2.341160e+03,4.284448e+02
2.344053e+03,4.352313e+02
2.346946e+03,4.371786e+02
2.349839e+03,4.253687e+02
2.352731e+03,4.366046e+02
2.355624e+03,4.294856e+02
2.358517e+03,4.293926e+02
2.361409e+03,4.310525e+02
2.364302e+03,4.296556e+02
2.367195e+03,4.205120e+02
2.370087e+03,4.200646e+02
2.372980e+03,4.188568e+02
2.375873e+03,4.257687e+02
2.378766e+03,4.164650e+02
2.381658e+03,4.184055e+02
2.384551e+03,4.116201e+02
2.387444e+03,4.231715e+02
2.390336e+03,4.155998e+02
2.393229e+03,4.163568e+02
2.396122e+03,4.046022e+02
2.399014e+03,4.140562e+02
2.401907e+03,4.098302e+02
2.404800e+03,4.086277e+02
2.407693e+03,4.111163e+02
2.410585e+03,4.090018e+02
2.413478e+03,3.949093e+02
2.416371e+03,4.095436e+02
2.419263e+03,3.999066e+02
2.422156e+03,4.044456e+02
2.425049e+03,3.940941e+02
2.427941e+03,3.978920e+02
2.430834e+03,4.039298e+02
2.433727e+03,3.897791e+02
2.436620e+03,4.062585e+02
2.439512e+03,3.959724e+02
2.442405e+03,3.918858e+02
2.445298e+03,3.955182e+02
2.448190e+03,3.917175e+02
2.451083e+03,3.970574e+02
2.453976e+03,3.914859e+02
2.456868e+03,3.933718e+02
2.459761e+03,3.888618e+02
2.462654e+03,3.857631e+02
2.465547e+03,3.998078e+02
2.468439e+03,3.885272e+02
2.471332e+03,3.913376e+02
2.474225e+03,3.855644e+02
2.477117e+03,3.863687e+02
2.480010e+03,3.856985e+02
2.482903e+03,3.922977e+02
2.485795e+03,3.915941e+02
2.488688e+03,3.815304e+02
2.491581e+03,3.915268e+02
2.494474e+03,3.762298e+02
2.497366e+03,3.829462e+02
2.500259e+03,3.805553e+02
2.503152e+03,3.862235e+02
2.506044e+03,3.762424e+02
2.508937e+03,3.860240e+02
2.511830e+03,3.878108e+02
2.514722e+03,3.813098e+02
2.517615e+03,3.836968e+02
2.520508e+03,3.843702e+02
2.523401e+03,3.809806e+02
2.526293e+03,3.777802e+02
2.529186e+03,3.892238e+02
2.532079e+03,3.827803e+02
2.534971e+03,3.804426e+02
2.537864e+03,3.794158e+02
2.540757e+03,3.772128e+02
2.543649e+03,3.865771e+02
2.546542e+03,3.892665e+02
2.549435e+03,3.845196e+02
2.552328e+03,3.871965e+02
2.555220e+03,3.910948e+02
2.558113e+03,3.811705e+02
2.561006e+03,3.864520e+02
2.563898e+03,3.766824e+02
2.566791e+03,3.775630e+02
2.569684e+03,3.743749e+02
2.572576e+03,3.775342e+02
2.575469e+03,3.738128e+02
2.578362e+03,3.673119e+02
2.581255e+03,3.689894e+02
2.584147e+03,3.681116e+02
2.587040e+03,3.691850e+02
2.589933e+03,3.578723e+02
2.592825e+03,3.552937e+02
2.595718e+03,3.636067e+02
2.598611e+03,3.502358e+02
2.601503e+03,3.684139e+02
2.604396e+03,3.604142e+02
2.607289e+03,3.570361e+02
2.610182e+03,3.525859e+02
2.613074e+03,3.498600e+02
2.615967e+03,3.623335e+02
2.618860e+03,3.556664e+02
2.621752e+03,3.573231e+02
2.624645e+03,3.516212e+02
2.627538e+03,3.514232e+02
2.630430e+03,3.423347e+02
2.633323e+03,3.519033e+02
2.636216e+03,3.326918e+02
2.639109e+03,3.462517e+02
2.642001e+03,3.467352e+02
2.644894e+03,3.354112e+02
2.647787e+03,3.449002e+02
2.650679e+03,3.399606e+02
2.653572e+03,3.337396e+02
2.656465e+03,3.321286e+02
2.659357e+03,3.389686e+02
2.662250e+03,3.449886e+02
2.665143e+03,3.280833e+02
2.668036e+03,3.373511e+02
2.670928e+03,3.364542e+02
2.673821e+03,3.342471e+02
2.676714e+03,3.402228e+02
2.679606e+03,3.252246e+02
2.682499e+03,3.294033e+02
2.685392e+03,3.264211e+02
2.688284e+03,3.369137e+02
2.691177e+03,3.386727e+02
2.694070e+03,3.306051e+02
2.696963e+03,3.313112e+02
2.699855e+03,3.326322e+02
2.702748e+03,3.282622e+02
2.705641e+03,3.253204e+02
2.708533e+03,3.313400e+02
2.711426e+03,3.304777e+02
2.714319e+03,3.352831e+02
2.717211e+03,3.402027e+02
2.720104e+03,3.399510e+02
2.722997e+03,3.240945e+02
2.725890e+03,3.201984e+02
2.728782e+03,3.371054e+02
2.731675e+03,3.284768e+02
2.734568e+03,3.355700e+02
2.737460e+03,3.250461e+02
2.740353e+03,3.198544e+02
2.743246e+03,3.300675e+02
2.746138e+03,3.187760e+02
2.749031e+03,3.250234e+02
2.751924e+03,3.266551e+02
2.754817e+03,3.131330e+02
2.757709e+03,3.278112e+02
2.760602e+03,3.197391e+02
2.763495e+03,3.320327e+02
2.766387e+03,3.344538e+02
2.769280e+03,3.259376e+02
2.772173e+03,3.218058e+02
2.775065e+03,3.263792e+02
2.777958e+03,3.190790e+02
2.780851e+03,3.294737e+02
2.783744e+03,3.288033e+02
2.786636e+03,3.052232e+02
2.789529e+03,3.241733e+02
2.792422e+03,3.485850e+02
2.795314e+03,3.192183e+02
2.798207e+03,3.275541e+02
2.801100e+03,3.319393e+02
2.803992e+03,3.260224e+02
2.806885e+03,3.313506e+02
2.809778e+03,3.207954e+02
2.812671e+03,3.261158e+02
2.815563e+03,3.188364e+02
2.818456e+03,3.174537e+02
2.821349e+03,3.333504e+02
2.824241e+03,3.156491e+02
2.827134e+03,3.352045e+02
2.830027e+03,3.244266e+02
2.832919e+03,3.273301e+02
2.835812e+03,3.260781e+02
2.838705e+03,3.512358e+02
2.841598e+03,3.356291e+02
2.844490e+03,3.234673e+02
2.847383e+03,3.270645e+02
2.850276e+03,3.303294e+02
2.853168e+03,3.324210e+02
2.856061e+03,3.427831e+02
2.858954e+03,3.431224e+02
2.861846e+03,3.498943e+02
2.864739e+03,3.210930e+02
2.867632e+03,3.566938e+02
2.870525e+03,3.273772e+02
2.873417e+03,3.478900e+02
2.876310e+03,3.353798e+02
2.879203e+03,3.433933e+02
2.882095e+03,3.477408e+02
2.884988e+03,3.575248e+02
2.887881e+03,3.617838e+02
2.890773e+03,3.586606e+02
2.893666e+03,3.698799e+02
2.896559e+03,3.693464e+02
2.899452e+03,3.601851e+02
2.902344e+03,3.671123e+02
2.905237e+03,3.507690e+02
2.908130e+03,3.469955e+02
2.911022e+03,3.345944e+02
2.913915e+03,3.452993e+02
2.916808e+03,3.288166e+02
2.919700e+03,3.259120e+02
2.922593e+03,3.169143e+02
2.925486e+03,3.276960e+02
2.928379e+03,3.118139e+02
2.931271e+03,3.259055e+02
2.934164e+03,3.101493e+02
2.937057e+03,3.184377e+02
2.939949e+03,3.004480e+02
2.942842e+03,3.219672e+02
2.945735e+03,3.105275e+02
2.948627e+03,3.109630e+02
2.951520e+03,3.017772e+02
2.954413e+03,3.016804e+02
2.957306e+03,3.301817e+02
2.960198e+03,3.328896e+02
2.963091e+03,3.053551e+02
2.965984e+03,3.301424e+02
2.968876e+03,3.102970e+02
2.971769e+03,2.943855e+02
2.974662e+03,2.990135e+02
2.977554e+03,2.742254e+02
2.980447e+03,2.996952e+02
2.983340e+03,2.710042e+02
2.986233e+03,2.823445e+02
2.989125e+03,2.839682e+02
2.992018e+03,2.829491e+02
2.994911e+03,2.744651e+02
2.997803e+03,2.750426e+02
3.000696e+03,2.687851e+02
3.003589e+03,2.660337e+02
3.006481e+03,3.020932e+02
3.009374e+03,2.860172e+02
3.012267e+03,2.880655e+02
3.015160e+03,2.778727e+02
3.018052e+03,2.576007e+02
3.020945e+03,2.699299e+02
3.023838e+03,2.610219e+02
3.026730e+03,2.735679e+02
3.029623e+03,2.727842e+02
3.032516e+03,2.761220e+02
3.035408e+03,2.525195e+02
3.038301e+03,2.728022e+02
3.041194e+03,2.653516e+02
3.044087e+03,2.662399e+02
3.046979e+03,2.737292e+02
3.049872e+03,2.714576e+02
3.052765e+03,2.661141e+02
3.055657e+03,2.683580e+02
3.058550e+03,2.765489e+02
3.061443e+03,2.756509e+02
3.064335e+03,2.566877e+02
3.067228e+03,2.725517e+02
3.070121e+03,2.658456e+02
3.073014e+03,2.526582e+02
3.075906e+03,2.739995e+02
3.078799e+03,2.799959e+02
3.081692e+03,2.719703e+02
3.084584e+03,2.735755e+02
3.087477e+03,2.609608e+02
3.090370e+03,2.790329e+02
3.093262e+03,2.471379e+02
3.096155e+03,2.768586e+02
3.099048e+03,2.633280e+02
3.101941e+03,2.715152e+02
3.104833e+03,2.646660e+02
3.107726e+03,2.752972e+02
3.110619e+03,2.721377e+02
3.113511e+03,2.660907e+02
3.116404e+03,2.548694e+02
3.119297e+03,2.796454e+02
3.122189e+03,2.856193e+02
3.125082e+03,2.846599e+02
3.127975e+03,2.767491e+02
3.130868e+03,2.864263e+02
3.133760e+03,2.853607e+02
3.136653e+03,2.635898e+02
3.139546e+03,2.805989e+02
3.142438e+03,2.773188e+02
3.145331e+03,2.679393e+02
3.148224e+03,2.783946e+02
3.151116e+03,2.701369e+02
3.154009e+03,2.919598e+02
3.156902e+03,2.774832e+02
3.159795e+03,2.646707e+02
3.162687e+03,2.805546e+02
3.165580e+03,2.842255e+02
3.168473e+03,2.869027e+02
3.171365e+03,2.990198e+02
3.174258e+03,2.716609e+02
3.177151e+03,2.786243e+02
3.180043e+03,2.605624e+02
3.182936e+03,2.695962e+02
3.185829e+03,2.846534e+02
3.188722e+03,2.502651e+02
3.191614e+03,2.693869e+02
3.194507e+03,2.857546e+02
3.197400e+03,2.563907e+02
3.200292e+03,3.130280e+02
3.203185e+03,0.000000e+00
3.206078e+03,0.000000e+00
3.208970e+03,0.000000e+00
3.211863e+03,0.000000e+00
3.214756e+03,0.000000e+00
3.217649e+03,0.000000e+00
3.220541e+03,0.000000e+00
3.223434e+03,0.000000e+00
3.226327e+03,0.000000e+00
3.229219e+03,0.000000e+00
3.232112e+03,0.000000e+00
3.235005e+03,0.000000e+00
3.237897e+03,0.000000e+00
3.240790e+03,0.000000e+00
3.243683e+03,0.000000e+00
3.246576e+03,0.000000e+00
3.249468e+03,0.000000e+00
3.252361e+03,0.000000e+00
3.255254e+03,0.000000e+00
3.258146e+03,0.000000e+00
3.261039e+03,0.000000e+00
3.263932e+03,0.000000e+00
3.266824e+03,0.000000e+00
3.269717e+03,0.000000e+00
3.272610e+03,0.000000e+00
3.275503e+03,0.000000e+00
3.278395e+03,0.000000e+00
3.281288e+03,0.000000e+00
3.284181e+03,0.000000e+00
3.287073e+03,0.000000e+00
3.289966e+03,0.000000e+00
3.292859e+03,0.000000e+00
3.295751e+03,0.000000e+00
3.298644e+03,0.000000e+00
3.301537e+03,0.000000e+00
3.304430e+03,0.000000e+00
3.307322e+03,0.000000e+00
3.310215e+03,0.000000e+00
3.313108e+03,0.000000e+00
3.316000e+03,0.000000e+00
3.318893e+03,0.000000e+00
3.321786e+03,0.000000e+00
3.324678e+03,0.000000e+00
3.327571e+03,0.000000e+00
3.330464e+03,0.000000e+00
3.333357e+03,0.000000e+00
3.336249e+03,0.000000e+00
3.339142e+03,0.000000e+00
3.342035e+03,0.000000e+00
3.344927e+03,0.000000e+00
3.347820e+03,0.000000e+00
3.350713e+03,0.000000e+00
3.353605e+03,0.000000e+00
3.356498e+03,0.000000e+00
3.359391e+03,0.000000e+00
3.362284e+03,0.000000e+00
3.365176e+03,0.000000e+00
3.368069e+03,0.000000e+00
3.370962e+03,0.000000e+00
3.373854e+03,0.000000e+00
3.376747e+03,0.000000e+00
3.379640e+03,0.000000e+00
3.382532e+03,0.000000e+00
3.385425e+03,0.000000e+00
3.388318e+03,0.000000e+00
3.391211e+03,0.000000e+00
3.394103e+03,0.000000e+00
3.396996e+03,0.000000e+00
3.399889e+03,0.000000e+00
3.402781e+03,0.000000e+00
3.405674e+03,0.000000e+00
3.408567e+03,0.000000e+00
3.411459e+03,0.000000e+00
3.414352e+03,0.000000e+00
3.417245e+03,0.000000e+00
3.420138e+03,0.000000e+00
3.423030e+03,0.000000e+00
3.425923e+03,0.000000e+00
3.428816e+03,0.000000e+00
3.431708e+03,0.000000e+00
3.434601e+03,0.000000e+00
3.437494e+03,0.000000e+00
3.440386e+03,0.000000e+00
3.443279e+03,0.000000e+00
3.446172e+03,0.000000e+00
3.449065e+03,0.000000e+00
3.451957e+03,0.000000e+00
3.454850e+03,0.000000e+00
3.457743e+03,0.000000e+00
3.460635e+03,0.000000e+00
3.463528e+03,0.000000e+00
3.466421e+03,0.000000e+00
3.469313e+03,0.000000e+00
3.472206e+03,0.000000e+00
3.475099e+03,0.000000e+00
3.477992e+03,0.000000e+00
3.480884e+03,0.000000e+00
3.483777e+03,0.000000e+00
3.486670e+03,0.000000e+00
3.489563e+03,0.000000e+00
3.492455e+03,0.000000e+00
3.495348e+03,0.000000e+00
3.498240e+03,0.000000e+00
3.500169e+03,0.000000e+00