File: RAMAN_data/06022023_r2/black fibre6.CSV
9.931763e+01,0.000000e+00
1.022103e+02,0.000000e+00
1.051030e+02,0.000000e+00
1.079957e+02,0.000000e+00
1.108884e+02,0.000000e+00
1.137811e+02,0.000000e+00
1.166738e+02,0.000000e+00
1.195665e+02,0.000000e+00
1.224592e+02,0.000000e+00
1.253519e+02,0.000000e+00
1.282446e+02,0.000000e+00
1.311373e+02,0.000000e+00
1.340300e+02,0.000000e+00
1.369227e+02,0.000000e+00
1.398154e+02,0.000000e+00
1.427081e+02,0.000000e+00
1.456008e+02,0.000000e+00
1.484935e+02,0.000000e+00
1.513862e+02,0.000000e+00
1.542789e+02,0.000000e+00
1.571716e+02,0.000000e+00
1.600643e+02,0.000000e+00
1.629570e+02,0.000000e+00
1.658497e+02,0.000000e+00
1.687424e+02,0.000000e+00
1.716351e+02,0.000000e+00
1.745278e+02,0.000000e+00
1.774205e+02,0.000000e+00
1.803132e+02,0.000000e+00
1.832059e+02,0.000000e+00
1.860986e+02,0.000000e+00
1.889913e+02,0.000000e+00
1.918840e+02,0.000000e+00
1.947767e+02,0.000000e+00
1.976694e+02,0.000000e+00
2.005621e+02,2.317336e+03
2.034548e+02,2.324615e+03
2.063475e+02,2.346948e+03
2.092402e+02,2.340453e+03
2.121329e+02,2.321641e+03
2.150256e+02,2.343670e+03
2.179183e+02,2.348886e+03
2.208110e+02,2.352634e+03
2.237037e+02,2.355138e+03
2.265964e+02,2.361985e+03
2.294892e+02,2.368641e+03
2.323819e+02,2.376233e+03
2.352746e+02,2.391426e+03
2.381673e+02,2.393353e+03
2.410600e+02,2.383692e+03
2.439527e+02,2.388495e+03
2.468454e+02,2.419599e+03
2.497381e+02,2.427237e+03
2.526308e+02,2.451638e+03
2.555235e+02,2.433259e+03
2.584161e+02,2.429671e+03
2.613088e+02,2.454476e+03
2.642015e+02,2.466581e+03
2.670942e+02,2.473983e+03
2.699869e+02,2.474014e+03
2.728796e+02,2.479803e+03
2.757723e+02,2.483774e+03
2.786650e+02,2.500494e+03
2.815577e+02,2.505222e+03
2.844504e+02,2.526115e+03
2.873431e+02,2.511782e+03
2.902358e+02,2.500455e+03
2.931285e+02,2.501547e+03
2.960212e+02,2.513491e+03
2.989139e+02,2.512378e+03
3.018066e+02,2.510818e+03
3.046993e+02,2.521667e+03
3.075920e+02,2.521013e+03
3.104847e+02,2.532982e+03
3.133774e+02,2.546077e+03
3.162701e+02,2.538921e+03
3.191628e+02,2.546030e+03
3.220555e+02,2.553054e+03
3.249482e+02,2.568267e+03
3.278409e+02,2.572935e+03
3.307336e+02,2.561975e+03
3.336263e+02,2.571929e+03
3.365190e+02,2.564499e+03
3.394117e+02,2.564227e+03
3.423044e+02,2.579697e+03
3.451971e+02,2.598703e+03
3.480898e+02,2.592325e+03
3.509825e+02,2.597133e+03
3.538752e+02,2.597535e+03
3.567680e+02,2.591167e+03
3.596607e+02,2.613978e+03
3.625534e+02,2.609036e+03
3.654461e+02,2.607733e+03
3.683388e+02,2.598067e+03
3.712315e+02,2.630512e+03
3.741242e+02,2.662756e+03
3.770169e+02,2.655870e+03
3.799096e+02,2.641104e+03
3.828023e+02,2.640309e+03
3.856950e+02,2.641890e+03
3.885877e+02,2.630416e+03
3.914804e+02,2.642458e+03
3.943731e+02,2.634781e+03
3.972658e+02,2.630082e+03
4.001585e+02,2.649636e+03
4.030512e+02,2.651651e+03
4.059439e+02,2.657895e+03
4.088366e+02,2.651116e+03
4.117293e+02,2.659926e+03
4.146220e+02,2.659888e+03
4.175147e+02,2.665128e+03
4.204074e+02,2.668451e+03
4.233001e+02,2.662641e+03
4.261928e+02,2.680586e+03
4.290855e+02,2.684380e+03
4.319782e+02,2.695303e+03
4.348709e+02,2.709961e+03
4.377636e+02,2.708603e+03
4.406563e+02,2.703394e+03
4.435490e+02,2.688267e+03
4.464417e+02,2.705322e+03
4.493344e+02,2.702777e+03
4.522271e+02,2.708281e+03
4.551198e+02,2.722229e+03
4.580125e+02,2.725769e+03
4.609052e+02,2.715802e+03
4.637979e+02,2.702823e+03
4.666906e+02,2.715418e+03
4.695833e+02,2.716939e+03
4.724760e+02,2.711164e+03
4.753687e+02,2.713947e+03
4.782614e+02,2.714927e+03
4.811541e+02,2.705937e+03
4.840468e+02,2.721911e+03
4.869395e+02,2.722062e+03
4.898322e+02,2.728576e+03
4.927249e+02,2.733951e+03
4.956176e+02,2.731346e+03
4.985103e+02,2.737926e+03
5.014030e+02,2.729402e+03
5.042957e+02,2.738519e+03
5.071884e+02,2.735346e+03
5.100811e+02,2.747101e+03
5.129738e+02,2.736608e+03
5.158665e+02,2.762396e+03
5.187592e+02,2.752946e+03
5.216519e+02,2.768634e+03
5.245446e+02,2.773768e+03
5.274373e+02,2.765996e+03
5.303300e+02,2.767309e+03
5.332227e+02,2.769199e+03
5.361154e+02,2.762612e+03
5.390081e+02,2.793804e+03
5.419008e+02,2.807251e+03
5.447935e+02,2.805709e+03
5.476862e+02,2.797187e+03
5.505789e+02,2.803435e+03
5.534716e+02,2.794848e+03
5.563643e+02,2.801663e+03
5.592570e+02,2.804413e+03
5.621497e+02,2.826516e+03
5.650424e+02,2.792774e+03
5.679351e+02,2.780002e+03
5.708278e+02,2.781015e+03
5.737205e+02,2.785167e+03
5.766132e+02,2.785989e+03
5.795059e+02,2.780210e+03
5.823986e+02,2.778575e+03
5.852913e+02,2.777034e+03
5.881840e+02,2.791696e+03
5.910767e+02,2.792349e+03
5.939694e+02,2.791855e+03
5.968621e+02,2.810272e+03
5.997548e+02,2.806411e+03
6.026475e+02,2.795829e+03
6.055402e+02,2.799752e+03
6.084329e+02,2.812482e+03
6.113256e+02,2.837583e+03
6.142183e+02,2.820499e+03
6.171110e+02,2.805177e+03
6.200037e+02,2.794330e+03
6.228964e+02,2.794538e+03
6.257891e+02,2.803305e+03
6.286818e+02,2.808628e+03
6.315745e+02,2.788481e+03
6.344672e+02,2.791915e+03
6.373599e+02,2.802267e+03
6.402526e+02,2.815414e+03
6.431453e+02,2.809094e+03
6.460380e+02,2.794957e+03
6.489307e+02,2.793145e+03
6.518234e+02,2.798606e+03
6.547161e+02,2.805599e+03
6.576088e+02,2.798147e+03
6.605015e+02,2.796124e+03
6.633942e+02,2.789224e+03
6.662869e+02,2.829082e+03
6.691796e+02,2.827741e+03
6.720723e+02,2.803885e+03
6.749650e+02,2.808581e+03
6.778577e+02,2.804421e+03
6.807504e+02,2.801920e+03
6.836431e+02,2.803684e+03
6.865358e+02,2.810773e+03
6.894285e+02,2.792664e+03
6.923212e+02,2.779775e+03
6.952139e+02,2.798776e+03
6.981066e+02,2.803920e+03
7.009993e+02,2.796964e+03
7.038920e+02,2.785060e+03
7.067847e+02,2.794710e+03
7.096774e+02,2.802556e+03
7.125701e+02,2.781452e+03
7.154628e+02,2.795369e+03
7.183555e+02,2.791860e+03
7.212482e+02,2.788948e+03
7.241409e+02,2.784090e+03
7.270336e+02,2.790875e+03
7.299263e+02,2.781139e+03
7.328190e+02,2.779579e+03
7.357117e+02,2.774827e+03
7.386044e+02,2.775691e+03
7.414971e+02,2.786441e+03
7.443898e+02,2.776145e+03
7.472825e+02,2.777135e+03
7.501752e+02,2.787136e+03
7.530679e+02,2.780580e+03
7.559606e+02,2.785372e+03
7.588533e+02,2.786882e+03
7.617460e+02,2.778718e+03
7.646387e+02,2.768994e+03
7.675314e+02,2.795125e+03
7.704241e+02,2.786165e+03
7.733168e+02,2.775517e+03
7.762095e+02,2.775056e+03
7.791022e+02,2.795072e+03
7.819949e+02,2.776701e+03
7.848876e+02,2.784281e+03
7.877803e+02,2.785913e+03
7.906730e+02,2.795521e+03
7.935657e+02,2.764762e+03
7.964584e+02,2.760561e+03
7.993511e+02,2.770314e+03
8.022438e+02,2.759517e+03
8.051365e+02,2.768962e+03
8.080292e+02,2.777578e+03
8.109219e+02,2.758919e+03
8.138146e+02,2.766809e+03
8.167073e+02,2.755148e+03
8.196000e+02,2.760522e+03
8.224927e+02,2.770587e+03
8.253854e+02,2.763684e+03
8.282781e+02,2.778118e+03
8.311708e+02,2.763010e+03
8.340635e+02,2.774887e+03
8.369562e+02,2.750990e+03
8.398489e+02,2.761728e+03
8.427416e+02,2.740148e+03
8.456343e+02,2.735211e+03
8.485270e+02,2.759207e+03
8.514197e+02,2.753189e+03
8.543124e+02,2.753025e+03
8.572051e+02,2.741124e+03
8.600978e+02,2.728031e+03
8.629905e+02,2.739000e+03
8.658832e+02,2.751316e+03
8.687759e+02,2.744894e+03
8.716686e+02,2.738785e+03
8.745613e+02,2.741612e+03
8.774540e+02,2.723637e+03
8.803467e+02,2.750291e+03
8.832394e+02,2.745130e+03
8.861321e+02,2.743621e+03
8.890248e+02,2.744066e+03
8.919175e+02,2.733646e+03
8.948102e+02,2.727448e+03
8.977029e+02,2.738144e+03
9.005956e+02,2.725585e+03
9.034883e+02,2.714762e+03
9.063810e+02,2.721519e+03
9.092737e+02,2.722502e+03
9.121664e+02,2.720580e+03
9.150591e+02,2.713354e+03
9.179518e+02,2.723313e+03
9.208445e+02,2.719139e+03
9.237372e+02,2.707243e+03
9.266299e+02,2.702248e+03
9.295226e+02,2.714398e+03
9.324153e+02,2.704192e+03
9.353080e+02,2.697009e+03
9.382007e+02,2.704604e+03
9.410934e+02,2.704642e+03
9.439861e+02,2.699695e+03
9.468788e+02,2.696983e+03
9.497715e+02,2.698297e+03
9.526642e+02,2.689410e+03
9.555569e+02,2.671975e+03
9.584496e+02,2.678964e+03
9.613423e+02,2.700130e+03
9.642350e+02,2.694391e+03
9.671277e+02,2.688347e+03
9.700204e+02,2.666253e+03
9.729131e+02,2.671361e+03
9.758058e+02,2.673024e+03
9.786985e+02,2.659325e+03
9.815912e+02,2.673705e+03
9.844839e+02,2.658209e+03
9.873766e+02,2.653369e+03
9.902693e+02,2.652476e+03
9.931620e+02,2.665875e+03
9.960547e+02,2.663921e+03
9.989474e+02,2.656920e+03
1.001840e+03,2.644523e+03
1.004733e+03,2.638980e+03
1.007626e+03,2.646167e+03
1.010518e+03,2.652561e+03
1.013411e+03,2.651548e+03
1.016304e+03,2.647081e+03
1.019196e+03,2.644084e+03
1.022089e+03,2.645926e+03
1.024982e+03,2.644982e+03
1.027875e+03,2.635833e+03
1.030767e+03,2.645808e+03
1.033660e+03,2.650760e+03
1.036552e+03,2.652946e+03
1.039445e+03,2.629485e+03
1.042338e+03,2.634644e+03
1.045231e+03,2.629765e+03
1.048123e+03,2.635720e+03
1.051016e+03,2.632351e+03
1.053909e+03,2.645531e+03
1.056802e+03,2.641227e+03
1.059694e+03,2.626222e+03
1.062587e+03,2.634888e+03
1.065479e+03,2.626490e+03
1.068372e+03,2.630544e+03
1.071265e+03,2.647537e+03
1.074158e+03,2.643861e+03
1.077050e+03,2.635987e+03
1.079943e+03,2.644822e+03
1.082836e+03,2.639187e+03
1.085729e+03,2.643386e+03
1.088621e+03,2.656620e+03
1.091514e+03,2.652424e+03
1.094406e+03,2.662467e+03
1.097299e+03,2.653281e+03
1.100192e+03,2.646724e+03
1.103085e+03,2.623776e+03
1.105977e+03,2.621413e+03
1.108870e+03,2.618296e+03
1.111763e+03,2.627788e+03
1.114656e+03,2.612425e+03
1.117548e+03,2.624671e+03
1.120441e+03,2.623355e+03
1.123334e+03,2.615812e+03
1.126226e+03,2.588812e+03
1.129119e+03,2.590917e+03
1.132012e+03,2.583593e+03
1.134904e+03,2.585354e+03
1.137797e+03,2.571798e+03
1.140690e+03,2.587605e+03
1.143583e+03,2.581933e+03
1.146475e+03,2.582790e+03
1.149368e+03,2.589227e+03
1.152261e+03,2.586199e+03
1.155153e+03,2.553869e+03
1.158046e+03,2.545178e+03
1.160939e+03,2.559319e+03
1.163831e+03,2.559105e+03
1.166724e+03,2.567831e+03
1.169617e+03,2.542734e+03
1.172510e+03,2.534754e+03
1.175402e+03,2.546335e+03
1.178295e+03,2.554346e+03
1.181188e+03,2.546528e+03
1.184080e+03,2.541114e+03
1.186973e+03,2.539185e+03
1.189866e+03,2.519826e+03
1.192758e+03,2.539033e+03
1.195651e+03,2.559645e+03
1.198544e+03,2.547112e+03
1.201437e+03,2.534505e+03
1.204329e+03,2.521649e+03
1.207222e+03,2.524989e+03
1.210115e+03,2.533487e+03
1.213007e+03,2.532003e+03
1.215900e+03,2.521017e+03
1.218793e+03,2.525415e+03
1.221685e+03,2.538924e+03
1.224578e+03,2.520172e+03
1.227471e+03,2.526898e+03
1.230364e+03,2.531288e+03
1.233256e+03,2.526631e+03
1.236149e+03,2.528868e+03
1.239042e+03,2.525558e+03
1.241934e+03,2.531321e+03
1.244827e+03,2.530824e+03
1.247720e+03,2.508414e+03
1.250612e+03,2.515537e+03
1.253505e+03,2.525047e+03
1.256398e+03,2.514498e+03
1.259291e+03,2.514215e+03
1.262183e+03,2.506820e+03
1.265076e+03,2.500625e+03
1.267969e+03,2.497777e+03
1.270861e+03,2.520743e+03
1.273754e+03,2.516978e+03
1.276647e+03,2.520300e+03
1.279539e+03,2.511279e+03
1.282432e+03,2.508892e+03
1.285325e+03,2.505734e+03
1.288218e+03,2.508750e+03
1.291110e+03,2.507278e+03
1.294003e+03,2.512428e+03
1.296896e+03,2.500044e+03
1.299788e+03,2.503217e+03
1.302681e+03,2.497725e+03
1.305574e+03,2.511418e+03
1.308466e+03,2.508612e+03
1.311359e+03,2.511147e+03
1.314252e+03,2.497321e+03
1.317145e+03,2.501306e+03
1.320037e+03,2.514250e+03
1.322930e+03,2.513160e+03
1.325823e+03,2.516263e+03
1.328715e+03,2.492062e+03
1.331608e+03,2.520039e+03
1.334501e+03,2.530484e+03
1.337393e+03,2.526290e+03
1.340286e+03,2.514295e+03
1.343179e+03,2.523098e+03
1.346072e+03,2.525995e+03
1.348964e+03,2.519180e+03
1.351857e+03,2.523480e+03
1.354750e+03,2.519902e+03
1.357642e+03,2.515526e+03
1.360535e+03,2.527907e+03
1.363428e+03,2.517146e+03
1.366320e+03,2.520511e+03
1.369213e+03,2.521496e+03
1.372106e+03,2.541919e+03
1.374999e+03,2.535806e+03
1.377891e+03,2.517740e+03
1.380784e+03,2.530087e+03
1.383677e+03,2.533720e+03
1.386569e+03,2.523676e+03
1.389462e+03,2.507487e+03
1.392355e+03,2.499273e+03
1.395247e+03,2.501964e+03
1.398140e+03,2.495629e+03
1.401033e+03,2.501507e+03
1.403926e+03,2.481083e+03
1.406818e+03,2.489495e+03
1.409711e+03,2.495326e+03
1.412604e+03,2.495541e+03
1.415496e+03,2.487459e+03
1.418389e+03,2.482150e+03
1.421282e+03,2.471783e+03
1.424174e+03,2.483116e+03
1.427067e+03,2.459297e+03
1.429960e+03,2.478575e+03
1.432853e+03,2.467994e+03
1.435745e+03,2.458703e+03
1.438638e+03,2.443661e+03
1.441531e+03,2.456077e+03
1.444423e+03,2.448932e+03
1.447316e+03,2.463052e+03
1.450209e+03,2.455345e+03
1.453101e+03,2.461530e+03
1.455994e+03,2.465640e+03
1.458887e+03,2.460350e+03
1.461780e+03,2.455105e+03
1.464672e+03,2.460925e+03
1.467565e+03,2.428834e+03
1.470458e+03,2.426339e+03
1.473350e+03,2.422150e+03
1.476243e+03,2.433415e+03
1.479136e+03,2.445852e+03
1.482028e+03,2.433664e+03
1.484921e+03,2.410594e+03
1.487814e+03,2.412282e+03
1.490707e+03,2.406297e+03
1.493599e+03,2.408255e+03
1.496492e+03,2.401649e+03
1.499385e+03,2.400345e+03
1.502277e+03,2.391719e+03
1.505170e+03,2.390980e+03
1.508063e+03,2.400912e+03
1.510955e+03,2.400042e+03
1.513848e+03,2.389662e+03
1.516741e+03,2.398280e+03
1.519634e+03,2.403068e+03
1.522526e+03,2.399352e+03
1.525419e+03,2.379833e+03
1.528312e+03,2.384163e+03
1.531204e+03,2.375364e+03
1.534097e+03,2.370085e+03
1.536990e+03,2.374623e+03
1.539882e+03,2.357414e+03
1.542775e+03,2.364863e+03
1.545668e+03,2.368731e+03
1.548561e+03,2.374455e+03
1.551453e+03,2.376738e+03
1.554346e+03,2.364287e+03
1.557239e+03,2.362557e+03
1.560131e+03,2.360985e+03
1.563024e+03,2.382191e+03
1.565917e+03,2.390690e+03
1.568809e+03,2.393904e+03
1.571702e+03,2.404829e+03
1.574595e+03,2.398573e+03
1.577488e+03,2.375656e+03
1.580380e+03,2.374026e+03
1.583273e+03,2.370174e+03
1.586166e+03,2.369130e+03
1.589058e+03,2.342357e+03
1.591951e+03,2.342766e+03
1.594844e+03,2.326087e+03
1.597736e+03,2.335321e+03
1.600629e+03,2.329489e+03
1.603522e+03,2.327873e+03
1.606415e+03,2.306269e+03
1.609307e+03,2.317942e+03
1.612200e+03,2.306471e+03
1.615093e+03,2.320731e+03
1.617985e+03,2.303114e+03
1.620878e+03,2.295348e+03
1.623771e+03,2.301350e+03
1.626663e+03,2.283852e+03
1.629556e+03,2.302056e+03
1.632449e+03,2.296072e+03
1.635342e+03,2.290869e+03
1.638234e+03,2.281631e+03
1.641127e+03,2.276784e+03
1.644020e+03,2.274925e+03
1.646912e+03,2.273226e+03
1.649805e+03,2.266753e+03
1.652698e+03,2.266488e+03
1.655590e+03,2.254804e+03
1.658483e+03,2.256632e+03
1.661376e+03,2.254629e+03
1.664269e+03,2.254836e+03
1.667161e+03,2.258012e+03
1.670054e+03,2.267429e+03
1.672947e+03,2.246358e+03
1.675839e+03,2.241324e+03
1.678732e+03,2.248621e+03
1.681625e+03,2.242221e+03
1.684517e+03,2.235804e+03
1.687410e+03,2.231356e+03
1.690303e+03,2.234480e+03
1.693196e+03,2.223684e+03
1.696088e+03,2.228769e+03
1.698981e+03,2.250703e+03
1.701874e+03,2.231309e+03
1.704766e+03,2.231419e+03
1.707659e+03,2.229078e+03
1.710552e+03,2.218927e+03
1.713444e+03,2.218481e+03
1.716337e+03,2.216922e+03
1.719230e+03,2.217702e+03
1.722123e+03,2.211390e+03
1.725015e+03,2.215302e+03
1.727908e+03,2.187005e+03
1.730801e+03,2.191599e+03
1.733693e+03,2.191737e+03
1.736586e+03,2.202552e+03
1.739479e+03,2.197619e+03
1.742371e+03,2.187873e+03
1.745264e+03,2.200469e+03
1.748157e+03,2.181129e+03
1.751050e+03,2.184228e+03
1.753942e+03,2.192046e+03
1.756835e+03,2.181184e+03
1.759728e+03,2.176618e+03
1.762620e+03,2.181162e+03
1.765513e+03,2.195298e+03
1.768406e+03,2.169034e+03
1.771298e+03,2.168439e+03
1.774191e+03,2.176675e+03
1.777084e+03,2.169009e+03
1.779977e+03,2.170207e+03
1.782869e+03,2.163695e+03
1.785762e+03,2.154577e+03
1.788655e+03,2.147689e+03
1.791547e+03,2.144998e+03
1.794440e+03,2.152531e+03
1.797333e+03,2.151403e+03
1.800225e+03,2.143553e+03
1.803118e+03,2.144343e+03
1.806011e+03,2.167426e+03
1.808904e+03,2.129649e+03
1.811796e+03,2.134876e+03
1.814689e+03,2.132750e+03
1.817582e+03,2.137107e+03
1.820474e+03,2.121669e+03
1.823367e+03,2.128019e+03
1.826260e+03,2.104517e+03
1.829152e+03,2.129865e+03
1.832045e+03,2.102337e+03
1.834938e+03,2.114207e+03
1.837831e+03,2.115466e+03
1.840723e+03,2.089916e+03
1.843616e+03,2.118609e+03
1.846509e+03,2.123189e+03
1.849401e+03,2.094956e+03
1.852294e+03,2.102533e+03
1.855187e+03,2.080941e+03
1.858079e+03,2.102142e+03
1.860972e+03,2.096855e+03
1.863865e+03,2.093841e+03
1.866758e+03,2.074536e+03
1.869650e+03,2.092644e+03
1.872543e+03,2.072351e+03
1.875436e+03,2.087206e+03
1.878328e+03,2.084058e+03
1.881221e+03,2.073302e+03
1.884114e+03,2.064191e+03
1.887006e+03,2.047128e+03
1.889899e+03,2.067294e+03
1.892792e+03,2.073140e+03
1.895685e+03,2.045634e+03
1.898577e+03,2.043439e+03
1.901470e+03,2.069072e+03
1.904363e+03,2.055573e+03
1.907255e+03,2.064460e+03
1.910148e+03,2.053269e+03
1.913041e+03,2.034141e+03
1.915933e+03,2.020914e+03
1.918826e+03,2.021810e+03
1.921719e+03,2.032297e+03
1.924612e+03,2.023243e+03
1.927504e+03,2.020186e+03
1.930397e+03,2.039015e+03
1.933290e+03,2.008695e+03
1.936182e+03,2.011216e+03
1.939075e+03,2.008652e+03
1.941968e+03,2.012903e+03
1.944860e+03,2.012570e+03
1.947753e+03,2.011295e+03
1.950646e+03,2.013754e+03
1.953539e+03,2.002029e+03
1.956431e+03,1.984785e+03
1.959324e+03,1.987807e+03
1.962217e+03,1.984318e+03
1.965109e+03,1.969455e+03
1.968002e+03,1.999942e+03
1.970895e+03,1.990259e+03
1.973787e+03,1.983783e+03
1.976680e+03,1.972218e+03
1.979573e+03,1.966766e+03
1.982466e+03,1.950204e+03
1.985358e+03,1.976973e+03
1.988251e+03,1.976193e+03
1.991144e+03,1.969527e+03
1.994036e+03,1.953246e+03
1.996929e+03,1.965767e+03
1.999822e+03,1.940348e+03
2.002714e+03,1.941102e+03
2.005607e+03,1.960916e+03
2.008500e+03,1.952460e+03
2.011393e+03,1.947375e+03
2.014285e+03,1.939900e+03
2.017178e+03,1.940777e+03
2.020071e+03,1.928168e+03
2.022963e+03,1.930555e+03
2.025856e+03,1.913669e+03
2.028749e+03,1.926303e+03
2.031641e+03,1.904930e+03
2.034534e+03,1.921915e+03
2.037427e+03,1.900824e+03
2.040320e+03,1.892073e+03
2.043212e+03,1.904660e+03
2.046105e+03,1.892004e+03
2.048998e+03,1.894525e+03
2.051890e+03,1.892264e+03
2.054783e+03,1.861560e+03
2.057676e+03,1.876399e+03
2.060568e+03,1.869172e+03
2.063461e+03,1.880981e+03
2.066354e+03,1.875790e+03
2.069247e+03,1.871574e+03
2.072139e+03,1.866187e+03
2.075032e+03,1.853586e+03
2.077925e+03,1.846389e+03
2.080817e+03,1.883790e+03
2.083710e+03,1.853272e+03
2.086603e+03,1.860958e+03
2.089496e+03,1.870977e+03
2.092388e+03,1.853409e+03
2.095281e+03,1.854336e+03
2.098174e+03,1.837764e+03
2.101066e+03,1.824494e+03
2.103959e+03,1.814326e+03
2.106852e+03,1.830893e+03
2.109744e+03,1.820081e+03
2.112637e+03,1.829230e+03
2.115530e+03,1.827458e+03
2.118422e+03,1.805750e+03
2.121315e+03,1.825151e+03
2.124208e+03,1.815103e+03
2.127101e+03,1.806078e+03
2.129993e+03,1.789986e+03
2.132886e+03,1.796234e+03
2.135779e+03,1.790506e+03
2.138671e+03,1.802267e+03
2.141564e+03,1.803591e+03
2.144457e+03,1.785697e+03
2.147350e+03,1.774383e+03
2.150242e+03,1.775245e+03
2.153135e+03,1.782869e+03
2.156028e+03,1.778438e+03
2.158920e+03,1.780991e+03
2.161813e+03,1.766733e+03
2.164706e+03,1.769112e+03
2.167598e+03,1.758526e+03
2.170491e+03,1.778464e+03
2.173384e+03,1.767822e+03
2.176277e+03,1.765181e+03
2.179169e+03,1.756108e+03
2.182062e+03,1.746428e+03
2.184955e+03,1.754841e+03
2.187847e+03,1.752027e+03
2.190740e+03,1.747794e+03
2.193633e+03,1.741729e+03
2.196525e+03,1.747639e+03
2.199418e+03,1.713091e+03
2.202311e+03,1.737928e+03
2.205204e+03,1.733750e+03
2.208096e+03,1.709812e+03
2.210989e+03,1.716622e+03
2.213882e+03,1.703099e+03
2.216774e+03,1.721778e+03
2.219667e+03,1.706913e+03
2.222560e+03,1.697435e+03
2.225452e+03,1.696140e+03
2.228345e+03,1.672756e+03
2.231238e+03,1.693033e+03
2.234131e+03,1.684117e+03
2.237023e+03,1.689186e+03
2.239916e+03,1.694227e+03
2.242809e+03,1.665112e+03
2.245701e+03,1.665961e+03
2.248594e+03,1.651165e+03
2.251487e+03,1.673266e+03
2.254379e+03,1.669646e+03
2.257272e+03,1.646811e+03
2.260165e+03,1.656262e+03
2.263058e+03,1.650833e+03
2.265950e+03,1.658265e+03
2.268843e+03,1.656567e+03
2.271736e+03,1.612808e+03
2.274628e+03,1.633384e+03
2.277521e+03,1.634996e+03
2.280414e+03,1.636302e+03
2.283306e+03,1.642087e+03
2.286199e+03,1.635004e+03
2.289092e+03,1.619574e+03
2.291985e+03,1.618774e+03
2.294877e+03,1.610392e+03
2.297770e+03,1.622180e+03
2.300663e+03,1.618326e+03
2.303555e+03,1.592405e+03
2.306448e+03,1.594332e+03
2.309341e+03,1.599439e+03
2.312233e+03,1.610033e+03
2.315126e+03,1.594232e+03
2.318019e+03,1.576019e+03
2.320912e+03,1.595505e+03
2.323804e+03,1.582470e+03
2.326697e+03,1.594205e+03
2.329590e+03,1.585563e+03
2.332482e+03,1.581246e+03
2.335375e+03,1.571442e+03
2.338268e+03,1.564799e+03
2.341160e+03,1.568253e+03
2.344053e+03,1.576328e+03
2.346946e+03,1.576907e+03
2.349839e+03,1.579405e+03
2.352731e+03,1.562905e+03
2.355624e+03,1.545663e+03
2.358517e+03,1.558276e+03
2.361409e+03,1.564017e+03
2.364302e+03,1.519552e+03
2.367195e+03,1.519691e+03
2.370087e+03,1.540064e+03
2.372980e+03,1.560406e+03
2.375873e+03,1.549820e+03
2.378766e+03,1.534318e+03
2.381658e+03,1.514066e+03
2.384551e+03,1.531503e+03
2.387444e+03,1.517569e+03
2.390336e+03,1.520419e+03
2.393229e+03,1.522768e+03
2.396122e+03,1.532775e+03
2.399014e+03,1.508766e+03
2.401907e+03,1.509136e+03
2.404800e+03,1.500367e+03
2.407693e+03,1.499076e+03
2.410585e+03,1.503425e+03
2.413478e+03,1.490277e+03
2.416371e+03,1.486253e+03
2.419263e+03,1.512987e+03
2.422156e+03,1.501908e+03
2.425049e+03,1.505677e+03
2.427941e+03,1.478475e+03
2.430834e+03,1.468614e+03
2.433727e+03,1.467416e+03
2.436620e+03,1.475444e+03
2.439512e+03,1.492586e+03
2.442405e+03,1.466877e+03
2.445298e+03,1.485001e+03
2.448190e+03,1.479376e+03
2.451083e+03,1.486871e+03
2.453976e+03,1.472224e+03
2.456868e+03,1.466066e+03
2.459761e+03,1.447702e+03
2.462654e+03,1.431660e+03
2.465547e+03,1.451371e+03
2.468439e+03,1.455233e+03
2.471332e+03,1.442681e+03
2.474225e+03,1.449241e+03
2.477117e+03,1.432084e+03
2.480010e+03,1.454738e+03
2.482903e+03,1.441281e+03
2.485795e+03,1.443810e+03
2.488688e+03,1.431225e+03
2.491581e+03,1.439922e+03
2.494474e+03,1.408067e+03
2.497366e+03,1.422081e+03
2.500259e+03,1.428403e+03
2.503152e+03,1.427514e+03
2.506044e+03,1.404132e+03
2.508937e+03,1.411323e+03
2.511830e+03,1.414880e+03
2.514722e+03,1.421436e+03
2.517615e+03,1.401251e+03
2.520508e+03,1.398902e+03
2.523401e+03,1.386619e+03
2.526293e+03,1.415387e+03
2.529186e+03,1.404927e+03
2.532079e+03,1.397595e+03
2.534971e+03,1.409604e+03
2.537864e+03,1.386371e+03
2.540757e+03,1.379528e+03
2.543649e+03,1.389266e+03
2.546542e+03,1.396827e+03
2.549435e+03,1.393542e+03
2.552328e+03,1.387335e+03
2.555220e+03,1.386326e+03
2.558113e+03,1.375082e+03
2.561006e+03,1.364614e+03
2.563898e+03,1.365727e+03
2.566791e+03,1.368130e+03
2.569684e+03,1.352114e+03
2.572576e+03,1.364598e+03
2.575469e+03,1.362226e+03
2.578362e+03,1.385873e+03
2.581255e+03,1.347452e+03
2.584147e+03,1.349879e+03
2.587040e+03,1.351702e+03
2.589933e+03,1.361357e+03
2.592825e+03,1.363576e+03
2.595718e+03,1.356500e+03
2.598611e+03,1.341529e+03
2.601503e+03,1.357111e+03
2.604396e+03,1.342007e+03
2.607289e+03,1.333031e+03
2.610182e+03,1.320910e+03
2.613074e+03,1.342255e+03
2.615967e+03,1.333726e+03
2.618860e+03,1.335891e+03
2.621752e+03,1.311250e+03
2.624645e+03,1.349047e+03
2.627538e+03,1.310008e+03
2.630430e+03,1.332774e+03
2.633323e+03,1.326358e+03
2.636216e+03,1.315052e+03
2.639109e+03,1.329418e+03
2.642001e+03,1.321765e+03
2.644894e+03,1.295919e+03
2.647787e+03,1.296746e+03
2.650679e+03,1.287601e+03
2.653572e+03,1.307445e+03
2.656465e+03,1.293980e+03
2.659357e+03,1.285668e+03
2.662250e+03,1.313181e+03
2.665143e+03,1.280855e+03
2.668036e+03,1.307375e+03
2.670928e+03,1.277065e+03
2.673821e+03,1.294422e+03
2.676714e+03,1.274565e+03
2.679606e+03,1.283955e+03
2.682499e+03,1.285001e+03
2.685392e+03,1.249395e+03
2.688284e+03,1.277660e+03
2.691177e+03,1.289602e+03
2.694070e+03,1.260890e+03
2.696963e+03,1.264292e+03
2.699855e+03,1.268289e+03
2.702748e+03,1.256136e+03
2.705641e+03,1.260335e+03
2.708533e+03,1.253240e+03
2.711426e+03,1.259303e+03
2.714319e+03,1.287226e+03
2.717211e+03,1.273364e+03
2.720104e+03,1.246731e+03
2.722997e+03,1.253015e+03
2.725890e+03,1.246088e+03
2.728782e+03,1.262036e+03
2.731675e+03,1.230166e+03
2.734568e+03,1.231732e+03
2.737460e+03,1.245800e+03
2.740353e+03,1.237958e+03
2.743246e+03,1.239939e+03
2.746138e+03,1.249693e+03
2.749031e+03,1.252198e+03
2.751924e+03,1.226150e+03
2.754817e+03,1.226703e+03
2.757709e+03,1.243268e+03
2.760602e+03,1.204320e+03
2.763495e+03,1.224134e+03
2.766387e+03,1.234957e+03
2.769280e+03,1.243059e+03
2.772173e+03,1.234824e+03
2.775065e+03,1.204653e+03
2.777958e+03,1.209287e+03
2.780851e+03,1.205389e+03
2.783744e+03,1.202145e+03
2.786636e+03,1.205444e+03
2.789529e+03,1.218341e+03
2.792422e+03,1.210821e+03
2.795314e+03,1.217392e+03
2.798207e+03,1.205306e+03
2.801100e+03,1.198605e+03
2.803992e+03,1.195967e+03
2.806885e+03,1.196894e+03
2.809778e+03,1.189939e+03
2.812671e+03,1.216410e+03
2.815563e+03,1.170747e+03
2.818456e+03,1.194298e+03
2.821349e+03,1.186114e+03
2.824241e+03,1.184763e+03
2.827134e+03,1.181168e+03
2.830027e+03,1.208446e+03
2.832919e+03,1.203903e+03
2.835812e+03,1.193130e+03
2.838705e+03,1.206577e+03
2.841598e+03,1.198905e+03
2.844490e+03,1.185413e+03
2.847383e+03,1.194938e+03
2.850276e+03,1.193061e+03
2.853168e+03,1.181958e+03
2.856061e+03,1.182817e+03
2.858954e+03,1.193130e+03
2.861846e+03,1.198770e+03
2.864739e+03,1.154602e+03
2.867632e+03,1.205561e+03
2.870525e+03,1.167056e+03
2.873417e+03,1.181203e+03
2.876310e+03,1.176698e+03
2.879203e+03,1.182504e+03
2.882095e+03,1.189869e+03
2.884988e+03,1.200562e+03
2.887881e+03,1.174411e+03
2.890773e+03,1.182432e+03
2.893666e+03,1.181277e+03
2.896559e+03,1.180047e+03
2.899452e+03,1.191030e+03
2.902344e+03,1.181667e+03
2.905237e+03,1.187146e+03
2.908130e+03,1.152439e+03
2.911022e+03,1.156516e+03
2.913915e+03,1.155417e+03
2.916808e+03,1.142132e+03
2.919700e+03,1.133460e+03
2.922593e+03,1.155640e+03
2.925486e+03,1.132789e+03
2.928379e+03,1.155798e+03
2.931271e+03,1.139402e+03
2.934164e+03,1.133885e+03
2.937057e+03,1.140392e+03
2.939949e+03,1.140610e+03
2.942842e+03,1.127351e+03
2.945735e+03,1.155128e+03
2.948627e+03,1.109080e+03
2.951520e+03,1.146221e+03
2.954413e+03,1.113424e+03
2.957306e+03,1.153577e+03
2.960198e+03,1.149720e+03
2.963091e+03,1.117262e+03
2.965984e+03,1.115274e+03
2.968876e+03,1.120395e+03
2.971769e+03,1.100378e+03
2.974662e+03,1.085297e+03
2.977554e+03,1.077882e+03
2.980447e+03,1.075162e+03
2.983340e+03,1.108511e+03
2.986233e+03,1.096801e+03
2.989125e+03,1.081118e+03
2.992018e+03,1.081509e+03
2.994911e+03,1.066650e+03
2.997803e+03,1.077958e+03
3.000696e+03,1.063446e+03
3.003589e+03,1.071421e+03
3.006481e+03,1.070574e+03
3.009374e+03,1.065026e+03
3.012267e+03,1.073794e+03
3.015160e+03,1.055265e+03
3.018052e+03,1.064342e+03
3.020945e+03,1.064381e+03
3.023838e+03,1.067371e+03
3.026730e+03,1.043118e+03
3.029623e+03,1.060307e+03
3.032516e+03,1.052521e+03
3.035408e+03,1.059661e+03
3.038301e+03,1.037628e+03
3.041194e+03,1.071905e+03
3.044087e+03,1.005824e+03
3.046979e+03,1.062906e+03
3.049872e+03,1.031897e+03
3.052765e+03,1.032170e+03
3.055657e+03,1.026269e+03
3.058550e+03,1.045866e+03
3.061443e+03,1.032569e+03
3.064335e+03,1.041363e+03
3.067228e+03,1.034947e+03
3.070121e+03,1.028973e+03
3.073014e+03,1.030145e+03
3.075906e+03,1.010318e+03
3.078799e+03,1.025746e+03
3.081692e+03,1.049882e+03
3.084584e+03,1.010230e+03
3.087477e+03,1.036320e+03
3.090370e+03,1.039435e+03
3.093262e+03,9.866638e+02
3.096155e+03,1.014762e+03
3.099048e+03,1.023252e+03
3.101941e+03,1.023832e+03
3.104833e+03,1.017302e+03
3.107726e+03,1.042898e+03
3.110619e+03,1.014975e+03
3.113511e+03,1.000357e+03
3.116404e+03,1.012628e+03
3.119297e+03,1.037309e+03
3.122189e+03,1.030224e+03
3.125082e+03,1.055801e+03
3.127975e+03,1.001365e+03
3.130868e+03,1.045109e+03
3.133760e+03,1.020586e+03
3.136653e+03,1.025830e+03
3.139546e+03,1.019716e+03
3.142438e+03,9.960265e+02
3.145331e+03,1.017121e+03
3.148224e+03,9.945219e+02
3.151116e+03,1.013600e+03
3.154009e+03,1.036210e+03
3.156902e+03,9.951006e+02
3.159795e+03,9.600947e+02
3.162687e+03,1.031843e+03
3.165580e+03,1.006271e+03
3.168473e+03,1.010860e+03
3.171365e+03,1.020254e+03
3.174258e+03,1.024921e+03
3.177151e+03,1.009498e+03
3.180043e+03,1.025534e+03
3.182936e+03,1.012211e+03
3.185829e+03,9.519996e+02
3.188722e+03,9.969511e+02
3.191614e+03,1.013474e+03
3.194507e+03,1.031560e+03
3.197400e+03,1.005661e+03
3.200292e+03,1.032193e+03
3.203185e+03,0.000000e+00
3.206078e+03,0.000000e+00
3.208970e+03,0.000000e+00
3.211863e+03,0.000000e+00
3.214756e+03,0.000000e+00
3.217649e+03,0.000000e+00
3.220541e+03,0.000000e+00
3.223434e+03,0.000000e+00
3.226327e+03,0.000000e+00
3.229219e+03,0.000000e+00
3.232112e+03,0.000000e+00
3.235005e+03,0.000000e+00
3.237897e+03,0.000000e+00
3.240790e+03,0.000000e+00
3.243683e+03,0.000000e+00
3.246576e+03,0.000000e+00
3.249468e+03,0.000000e+00
3.252361e+03,0.000000e+00
3.255254e+03,0.000000e+00
3.258146e+03,0.000000e+00
3.261039e+03,0.000000e+00
3.263932e+03,0.000000e+00
3.266824e+03,0.000000e+00
3.269717e+03,0.000000e+00
3.272610e+03,0.000000e+00
3.275503e+03,0.000000e+00
3.278395e+03,0.000000e+00
3.281288e+03,0.000000e+00
3.284181e+03,0.000000e+00
3.287073e+03,0.000000e+00
3.289966e+03,0.000000e+00
3.292859e+03,0.000000e+00
3.295751e+03,0.000000e+00
3.298644e+03,0.000000e+00
3.301537e+03,0.000000e+00
3.304430e+03,0.000000e+00
3.307322e+03,0.000000e+00
3.310215e+03,0.000000e+00
3.313108e+03,0.000000e+00
3.316000e+03,0.000000e+00
3.318893e+03,0.000000e+00
3.321786e+03,0.000000e+00
3.324678e+03,0.000000e+00
3.327571e+03,0.000000e+00
3.330464e+03,0.000000e+00
3.333357e+03,0.000000e+00
3.336249e+03,0.000000e+00
3.339142e+03,0.000000e+00
3.342035e+03,0.000000e+00
3.344927e+03,0.000000e+00
3.347820e+03,0.000000e+00
3.350713e+03,0.000000e+00
3.353605e+03,0.000000e+00
3.356498e+03,0.000000e+00
3.359391e+03,0.000000e+00
3.362284e+03,0.000000e+00
3.365176e+03,0.000000e+00
3.368069e+03,0.000000e+00
3.370962e+03,0.000000e+00
3.373854e+03,0.000000e+00
3.376747e+03,0.000000e+00
3.379640e+03,0.000000e+00
3.382532e+03,0.000000e+00
3.385425e+03,0.000000e+00
3.388318e+03,0.000000e+00
3.391211e+03,0.000000e+00
3.394103e+03,0.000000e+00
3.396996e+03,0.000000e+00
3.399889e+03,0.000000e+00
3.402781e+03,0.000000e+00
3.405674e+03,0.000000e+00
3.408567e+03,0.000000e+00
3.411459e+03,0.000000e+00
3.414352e+03,0.000000e+00
3.417245e+03,0.000000e+00
3.420138e+03,0.000000e+00
3.423030e+03,0.000000e+00
3.425923e+03,0.000000e+00
3.428816e+03,0.000000e+00
3.431708e+03,0.000000e+00
3.434601e+03,0.000000e+00
3.437494e+03,0.000000e+00
3.440386e+03,0.000000e+00
3.443279e+03,0.000000e+00
3.446172e+03,0.000000e+00
3.449065e+03,0.000000e+00
3.451957e+03,0.000000e+00
3.454850e+03,0.000000e+00
3.457743e+03,0.000000e+00
3.460635e+03,0.000000e+00
3.463528e+03,0.000000e+00
3.466421e+03,0.000000e+00
3.469313e+03,0.000000e+00
3.472206e+03,0.000000e+00
3.475099e+03,0.000000e+00
3.477992e+03,0.000000e+00
3.480884e+03,0.000000e+00
3.483777e+03,0.000000e+00
3.486670e+03,0.000000e+00
3.489563e+03,0.000000e+00
3.492455e+03,0.000000e+00
3.495348e+03,0.000000e+00
3.498240e+03,0.000000e+00
3.500169e+03,0.000000e+00