File: RAMAN_data/06022023_r2/black fibre5.CSV
9.931763e+01,0.000000e+00
1.022103e+02,0.000000e+00
1.051030e+02,0.000000e+00
1.079957e+02,0.000000e+00
1.108884e+02,0.000000e+00
1.137811e+02,0.000000e+00
1.166738e+02,0.000000e+00
1.195665e+02,0.000000e+00
1.224592e+02,0.000000e+00
1.253519e+02,0.000000e+00
1.282446e+02,0.000000e+00
1.311373e+02,0.000000e+00
1.340300e+02,0.000000e+00
1.369227e+02,0.000000e+00
1.398154e+02,0.000000e+00
1.427081e+02,0.000000e+00
1.456008e+02,0.000000e+00
1.484935e+02,0.000000e+00
1.513862e+02,0.000000e+00
1.542789e+02,0.000000e+00
1.571716e+02,0.000000e+00
1.600643e+02,0.000000e+00
1.629570e+02,0.000000e+00
1.658497e+02,0.000000e+00
1.687424e+02,0.000000e+00
1.716351e+02,0.000000e+00
1.745278e+02,0.000000e+00
1.774205e+02,0.000000e+00
1.803132e+02,0.000000e+00
1.832059e+02,0.000000e+00
1.860986e+02,0.000000e+00
1.889913e+02,0.000000e+00
1.918840e+02,0.000000e+00
1.947767e+02,0.000000e+00
1.976694e+02,0.000000e+00
2.005621e+02,9.316501e+02
2.034548e+02,9.284197e+02
2.063475e+02,9.303533e+02
2.092402e+02,9.421652e+02
2.121329e+02,9.241945e+02
2.150256e+02,9.297040e+02
2.179183e+02,9.374992e+02
2.208110e+02,9.365646e+02
2.237037e+02,9.285126e+02
2.265964e+02,9.278652e+02
2.294892e+02,9.273632e+02
2.323819e+02,9.307986e+02
2.352746e+02,9.362412e+02
2.381673e+02,9.332307e+02
2.410600e+02,9.379379e+02
2.439527e+02,9.304164e+02
2.468454e+02,9.392243e+02
2.497381e+02,9.466109e+02
2.526308e+02,9.412289e+02
2.555235e+02,9.505512e+02
2.584161e+02,9.384399e+02
2.613088e+02,9.394163e+02
2.642015e+02,9.499307e+02
2.670942e+02,9.495473e+02
2.699869e+02,9.515812e+02
2.728796e+02,9.477659e+02
2.757723e+02,9.425237e+02
2.786650e+02,9.420158e+02
2.815577e+02,9.496348e+02
2.844504e+02,9.504505e+02
2.873431e+02,9.502697e+02
2.902358e+02,9.505394e+02
2.931285e+02,9.563074e+02
2.960212e+02,9.458503e+02
2.989139e+02,9.458922e+02
3.018066e+02,9.567189e+02
3.046993e+02,9.526859e+02
3.075920e+02,9.522548e+02
3.104847e+02,9.535965e+02
3.133774e+02,9.565426e+02
3.162701e+02,9.589382e+02
3.191628e+02,9.569890e+02
3.220555e+02,9.530119e+02
3.249482e+02,9.546057e+02
3.278409e+02,9.567724e+02
3.307336e+02,9.573520e+02
3.336263e+02,9.539435e+02
3.365190e+02,9.642335e+02
3.394117e+02,9.611437e+02
3.423044e+02,9.529498e+02
3.451971e+02,9.561100e+02
3.480898e+02,9.536019e+02
3.509825e+02,9.568117e+02
3.538752e+02,9.602377e+02
3.567680e+02,9.550150e+02
3.596607e+02,9.500845e+02
3.625534e+02,9.588162e+02
3.654461e+02,9.540057e+02
3.683388e+02,9.474025e+02
3.712315e+02,9.543148e+02
3.741242e+02,9.695187e+02
3.770169e+02,9.828489e+02
3.799096e+02,9.707297e+02
3.828023e+02,9.667502e+02
3.856950e+02,9.599280e+02
3.885877e+02,9.533711e+02
3.914804e+02,9.491790e+02
3.943731e+02,9.450061e+02
3.972658e+02,9.409708e+02
4.001585e+02,9.310402e+02
4.030512e+02,9.381292e+02
4.059439e+02,9.384085e+02
4.088366e+02,9.396802e+02
4.117293e+02,9.393839e+02
4.146220e+02,9.445538e+02
4.175147e+02,9.429641e+02
4.204074e+02,9.451578e+02
4.233001e+02,9.342070e+02
4.261928e+02,9.450598e+02
4.290855e+02,9.436021e+02
4.319782e+02,9.551008e+02
4.348709e+02,9.573463e+02
4.377636e+02,9.502371e+02
4.406563e+02,9.506218e+02
4.435490e+02,9.322964e+02
4.464417e+02,9.378398e+02
4.493344e+02,9.392269e+02
4.522271e+02,9.465876e+02
4.551198e+02,9.499855e+02
4.580125e+02,9.447966e+02
4.609052e+02,9.396060e+02
4.637979e+02,9.286834e+02
4.666906e+02,9.221832e+02
4.695833e+02,9.166847e+02
4.724760e+02,9.164795e+02
4.753687e+02,9.250883e+02
4.782614e+02,9.147669e+02
4.811541e+02,9.292211e+02
4.840468e+02,9.279421e+02
4.869395e+02,9.204456e+02
4.898322e+02,9.240648e+02
4.927249e+02,9.127697e+02
4.956176e+02,9.174375e+02
4.985103e+02,9.197460e+02
5.014030e+02,9.149562e+02
5.042957e+02,9.237733e+02
5.071884e+02,9.184189e+02
5.100811e+02,9.185309e+02
5.129738e+02,9.206122e+02
5.158665e+02,9.316576e+02
5.187592e+02,9.141846e+02
5.216519e+02,9.116552e+02
5.245446e+02,9.087142e+02
5.274373e+02,9.103758e+02
5.303300e+02,9.070443e+02
5.332227e+02,9.040068e+02
5.361154e+02,9.068828e+02
5.390081e+02,9.066557e+02
5.419008e+02,9.042897e+02
5.447935e+02,9.054021e+02
5.476862e+02,9.029990e+02
5.505789e+02,8.964182e+02
5.534716e+02,8.949418e+02
5.563643e+02,8.947264e+02
5.592570e+02,8.893161e+02
5.621497e+02,8.865441e+02
5.650424e+02,8.965543e+02
5.679351e+02,9.010170e+02
5.708278e+02,8.908060e+02
5.737205e+02,8.889716e+02
5.766132e+02,8.868824e+02
5.795059e+02,8.897048e+02
5.823986e+02,8.861857e+02
5.852913e+02,8.827140e+02
5.881840e+02,8.845623e+02
5.910767e+02,8.758133e+02
5.939694e+02,8.758157e+02
5.968621e+02,8.745975e+02
5.997548e+02,8.773753e+02
6.026475e+02,8.793158e+02
6.055402e+02,8.802382e+02
6.084329e+02,8.875295e+02
6.113256e+02,8.759698e+02
6.142183e+02,8.678429e+02
6.171110e+02,8.732886e+02
6.200037e+02,8.650471e+02
6.228964e+02,8.672688e+02
6.257891e+02,8.585162e+02
6.286818e+02,8.643109e+02
6.315745e+02,8.673458e+02
6.344672e+02,8.658283e+02
6.373599e+02,8.595483e+02
6.402526e+02,8.614647e+02
6.431453e+02,8.578336e+02
6.460380e+02,8.596072e+02
6.489307e+02,8.511735e+02
6.518234e+02,8.593544e+02
6.547161e+02,8.520419e+02
6.576088e+02,8.475593e+02
6.605015e+02,8.585061e+02
6.633942e+02,8.473179e+02
6.662869e+02,8.480690e+02
6.691796e+02,8.496910e+02
6.720723e+02,8.466594e+02
6.749650e+02,8.441926e+02
6.778577e+02,8.397060e+02
6.807504e+02,8.449390e+02
6.836431e+02,8.489427e+02
6.865358e+02,8.398489e+02
6.894285e+02,8.310869e+02
6.923212e+02,8.365441e+02
6.952139e+02,8.315531e+02
6.981066e+02,8.266102e+02
7.009993e+02,8.336141e+02
7.038920e+02,8.247150e+02
7.067847e+02,8.313743e+02
7.096774e+02,8.346517e+02
7.125701e+02,8.207800e+02
7.154628e+02,8.216114e+02
7.183555e+02,8.269836e+02
7.212482e+02,8.214515e+02
7.241409e+02,8.226967e+02
7.270336e+02,8.222155e+02
7.299263e+02,8.233605e+02
7.328190e+02,8.190673e+02
7.357117e+02,8.201974e+02
7.386044e+02,8.110666e+02
7.414971e+02,8.129083e+02
7.443898e+02,8.174670e+02
7.472825e+02,8.122064e+02
7.501752e+02,8.114000e+02
7.530679e+02,8.036602e+02
7.559606e+02,8.006212e+02
7.588533e+02,8.023995e+02
7.617460e+02,8.088488e+02
7.646387e+02,8.038403e+02
7.675314e+02,7.980233e+02
7.704241e+02,7.884898e+02
7.733168e+02,7.985700e+02
7.762095e+02,7.943724e+02
7.791022e+02,7.928990e+02
7.819949e+02,7.968759e+02
7.848876e+02,7.817111e+02
7.877803e+02,7.899609e+02
7.906730e+02,7.806693e+02
7.935657e+02,7.871563e+02
7.964584e+02,8.111893e+02
7.993511e+02,7.799222e+02
8.022438e+02,7.858942e+02
8.051365e+02,7.990624e+02
8.080292e+02,7.951500e+02
8.109219e+02,7.841901e+02
8.138146e+02,7.935944e+02
8.167073e+02,7.706821e+02
8.196000e+02,7.720579e+02
8.224927e+02,7.720953e+02
8.253854e+02,7.681418e+02
8.282781e+02,7.800604e+02
8.311708e+02,7.702448e+02
8.340635e+02,7.706440e+02
8.369562e+02,7.773815e+02
8.398489e+02,7.679070e+02
8.427416e+02,7.678441e+02
8.456343e+02,7.540667e+02
8.485270e+02,7.605914e+02
8.514197e+02,7.602974e+02
8.543124e+02,7.536434e+02
8.572051e+02,7.589381e+02
8.600978e+02,7.433781e+02
8.629905e+02,7.546279e+02
8.658832e+02,7.590010e+02
8.687759e+02,7.649067e+02
8.716686e+02,7.608557e+02
8.745613e+02,7.539202e+02
8.774540e+02,7.507152e+02
8.803467e+02,7.504478e+02
8.832394e+02,7.549141e+02
8.861321e+02,7.572700e+02
8.890248e+02,7.583854e+02
8.919175e+02,7.513299e+02
8.948102e+02,7.472396e+02
8.977029e+02,7.509525e+02
9.005956e+02,7.475356e+02
9.034883e+02,7.452136e+02
9.063810e+02,7.323079e+02
9.092737e+02,7.342006e+02
9.121664e+02,7.387873e+02
9.150591e+02,7.333917e+02
9.179518e+02,7.241105e+02
9.208445e+02,7.202695e+02
9.237372e+02,7.302224e+02
9.266299e+02,7.327045e+02
9.295226e+02,7.227799e+02
9.324153e+02,7.151198e+02
9.353080e+02,7.182457e+02
9.382007e+02,7.135890e+02
9.410934e+02,7.132249e+02
9.439861e+02,7.121621e+02
9.468788e+02,7.154020e+02
9.497715e+02,7.076760e+02
9.526642e+02,7.146720e+02
9.555569e+02,7.083757e+02
9.584496e+02,7.099890e+02
9.613423e+02,7.084831e+02
9.642350e+02,7.109865e+02
9.671277e+02,7.066090e+02
9.700204e+02,7.034341e+02
9.729131e+02,6.987764e+02
9.758058e+02,6.984167e+02
9.786985e+02,6.992744e+02
9.815912e+02,6.993040e+02
9.844839e+02,6.961453e+02
9.873766e+02,6.911954e+02
9.902693e+02,6.945936e+02
9.931620e+02,7.037145e+02
9.960547e+02,7.036982e+02
9.989474e+02,6.982627e+02
1.001840e+03,6.863957e+02
1.004733e+03,6.841013e+02
1.007626e+03,6.905267e+02
1.010518e+03,6.866669e+02
1.013411e+03,6.785978e+02
1.016304e+03,6.811224e+02
1.019196e+03,6.838029e+02
1.022089e+03,6.854409e+02
1.024982e+03,6.798047e+02
1.027875e+03,6.811072e+02
1.030767e+03,6.807061e+02
1.033660e+03,6.817635e+02
1.036552e+03,6.817620e+02
1.039445e+03,6.760792e+02
1.042338e+03,6.766046e+02
1.045231e+03,6.821541e+02
1.048123e+03,6.820134e+02
1.051016e+03,6.772238e+02
1.053909e+03,6.792356e+02
1.056802e+03,6.758593e+02
1.059694e+03,6.752351e+02
1.062587e+03,6.697546e+02
1.065479e+03,6.712773e+02
1.068372e+03,6.772891e+02
1.071265e+03,6.730343e+02
1.074158e+03,6.660040e+02
1.077050e+03,6.660580e+02
1.079943e+03,6.692947e+02
1.082836e+03,6.762382e+02
1.085729e+03,6.807233e+02
1.088621e+03,7.034344e+02
1.091514e+03,7.050715e+02
1.094406e+03,7.100585e+02
1.097299e+03,7.016243e+02
1.100192e+03,6.877646e+02
1.103085e+03,6.831692e+02
1.105977e+03,6.701337e+02
1.108870e+03,6.735867e+02
1.111763e+03,6.814615e+02
1.114656e+03,6.826381e+02
1.117548e+03,6.825627e+02
1.120441e+03,6.892527e+02
1.123334e+03,6.810837e+02
1.126226e+03,6.689196e+02
1.129119e+03,6.625295e+02
1.132012e+03,6.524554e+02
1.134904e+03,6.572275e+02
1.137797e+03,6.450779e+02
1.140690e+03,6.408471e+02
1.143583e+03,6.478965e+02
1.146475e+03,6.512469e+02
1.149368e+03,6.537519e+02
1.152261e+03,6.500452e+02
1.155153e+03,6.476631e+02
1.158046e+03,6.372350e+02
1.160939e+03,6.338817e+02
1.163831e+03,6.354474e+02
1.166724e+03,6.298090e+02
1.169617e+03,6.240145e+02
1.172510e+03,6.272458e+02
1.175402e+03,6.199886e+02
1.178295e+03,6.204507e+02
1.181188e+03,6.180898e+02
1.184080e+03,6.187974e+02
1.186973e+03,6.168517e+02
1.189866e+03,6.157051e+02
1.192758e+03,6.156303e+02
1.195651e+03,6.173436e+02
1.198544e+03,6.225573e+02
1.201437e+03,6.106806e+02
1.204329e+03,6.146581e+02
1.207222e+03,6.100223e+02
1.210115e+03,6.078134e+02
1.213007e+03,6.092220e+02
1.215900e+03,6.137723e+02
1.218793e+03,6.088672e+02
1.221685e+03,6.090190e+02
1.224578e+03,6.028352e+02
1.227471e+03,6.130162e+02
1.230364e+03,6.035338e+02
1.233256e+03,6.063058e+02
1.236149e+03,6.037878e+02
1.239042e+03,6.022145e+02
1.241934e+03,6.016352e+02
1.244827e+03,6.052748e+02
1.247720e+03,6.035291e+02
1.250612e+03,6.033110e+02
1.253505e+03,6.006105e+02
1.256398e+03,6.070040e+02
1.259291e+03,6.014141e+02
1.262183e+03,5.981592e+02
1.265076e+03,5.944412e+02
1.267969e+03,5.939574e+02
1.270861e+03,5.966503e+02
1.273754e+03,5.961121e+02
1.276647e+03,5.955075e+02
1.279539e+03,5.971521e+02
1.282432e+03,5.930399e+02
1.285325e+03,6.002770e+02
1.288218e+03,5.981327e+02
1.291110e+03,5.953213e+02
1.294003e+03,5.984014e+02
1.296896e+03,5.932840e+02
1.299788e+03,5.951432e+02
1.302681e+03,5.915361e+02
1.305574e+03,5.948372e+02
1.308466e+03,5.902120e+02
1.311359e+03,5.944229e+02
1.314252e+03,5.936705e+02
1.317145e+03,5.941661e+02
1.320037e+03,5.970890e+02
1.322930e+03,5.952360e+02
1.325823e+03,5.924943e+02
1.328715e+03,6.013205e+02
1.331608e+03,5.933954e+02
1.334501e+03,5.968661e+02
1.337393e+03,5.972490e+02
1.340286e+03,5.912589e+02
1.343179e+03,5.931135e+02
1.346072e+03,5.909597e+02
1.348964e+03,5.822953e+02
1.351857e+03,5.895433e+02
1.354750e+03,5.919414e+02
1.357642e+03,5.833610e+02
1.360535e+03,5.835141e+02
1.363428e+03,5.838625e+02
1.366320e+03,5.891634e+02
1.369213e+03,5.938478e+02
1.372106e+03,5.958463e+02
1.374999e+03,5.958427e+02
1.377891e+03,6.014473e+02
1.380784e+03,5.965315e+02
1.383677e+03,5.876479e+02
1.386569e+03,5.821334e+02
1.389462e+03,5.819479e+02
1.392355e+03,5.705430e+02
1.395247e+03,5.714041e+02
1.398140e+03,5.688379e+02
1.401033e+03,5.695905e+02
1.403926e+03,5.677840e+02
1.406818e+03,5.699666e+02
1.409711e+03,5.726813e+02
1.412604e+03,5.661834e+02
1.415496e+03,5.653331e+02
1.418389e+03,5.560022e+02
1.421282e+03,5.597620e+02
1.424174e+03,5.629718e+02
1.427067e+03,5.556290e+02
1.429960e+03,5.572377e+02
1.432853e+03,5.543927e+02
1.435745e+03,5.582656e+02
1.438638e+03,5.454370e+02
1.441531e+03,5.478890e+02
1.444423e+03,5.508035e+02
1.447316e+03,5.500951e+02
1.450209e+03,5.461263e+02
1.453101e+03,5.535823e+02
1.455994e+03,5.415314e+02
1.458887e+03,5.517372e+02
1.461780e+03,5.442132e+02
1.464672e+03,5.485751e+02
1.467565e+03,5.463176e+02
1.470458e+03,5.410172e+02
1.473350e+03,5.435129e+02
1.476243e+03,5.408632e+02
1.479136e+03,5.407903e+02
1.482028e+03,5.369835e+02
1.484921e+03,5.325247e+02
1.487814e+03,5.311720e+02
1.490707e+03,5.239319e+02
1.493599e+03,5.245734e+02
1.496492e+03,5.235873e+02
1.499385e+03,5.290887e+02
1.502277e+03,5.190516e+02
1.505170e+03,5.178489e+02
1.508063e+03,5.251537e+02
1.510955e+03,5.236938e+02
1.513848e+03,5.173984e+02
1.516741e+03,5.187377e+02
1.519634e+03,5.220671e+02
1.522526e+03,5.165865e+02
1.525419e+03,5.249456e+02
1.528312e+03,5.130587e+02
1.531204e+03,5.192713e+02
1.534097e+03,5.135128e+02
1.536990e+03,5.164321e+02
1.539882e+03,5.124012e+02
1.542775e+03,5.158714e+02
1.545668e+03,5.091343e+02
1.548561e+03,5.095719e+02
1.551453e+03,5.095690e+02
1.554346e+03,5.101289e+02
1.557239e+03,5.039883e+02
1.560131e+03,5.071856e+02
1.563024e+03,5.037897e+02
1.565917e+03,5.061118e+02
1.568809e+03,5.130331e+02
1.571702e+03,5.103338e+02
1.574595e+03,5.071524e+02
1.577488e+03,4.976621e+02
1.580380e+03,5.067109e+02
1.583273e+03,5.020816e+02
1.586166e+03,5.025139e+02
1.589058e+03,5.018115e+02
1.591951e+03,5.014190e+02
1.594844e+03,5.070048e+02
1.597736e+03,4.964683e+02
1.600629e+03,5.040674e+02
1.603522e+03,4.969659e+02
1.606415e+03,5.000333e+02
1.609307e+03,4.940287e+02
1.612200e+03,4.952216e+02
1.615093e+03,4.921481e+02
1.617985e+03,5.017575e+02
1.620878e+03,4.874560e+02
1.623771e+03,4.898368e+02
1.626663e+03,4.890017e+02
1.629556e+03,4.926606e+02
1.632449e+03,4.833856e+02
1.635342e+03,4.868974e+02
1.638234e+03,4.869489e+02
1.641127e+03,4.815403e+02
1.644020e+03,4.820756e+02
1.646912e+03,4.843825e+02
1.649805e+03,4.733259e+02
1.652698e+03,4.805724e+02
1.655590e+03,4.793448e+02
1.658483e+03,4.703100e+02
1.661376e+03,4.768651e+02
1.664269e+03,4.730016e+02
1.667161e+03,4.753600e+02
1.670054e+03,4.717217e+02
1.672947e+03,4.747247e+02
1.675839e+03,4.740536e+02
1.678732e+03,4.751084e+02
1.681625e+03,4.722734e+02
1.684517e+03,4.656752e+02
1.687410e+03,4.619438e+02
1.690303e+03,4.738545e+02
1.693196e+03,4.605964e+02
1.696088e+03,4.603456e+02
1.698981e+03,4.592679e+02
1.701874e+03,4.644926e+02
1.704766e+03,4.600826e+02
1.707659e+03,4.562891e+02
1.710552e+03,4.631373e+02
1.713444e+03,4.596299e+02
1.716337e+03,4.524911e+02
1.719230e+03,4.599127e+02
1.722123e+03,4.533260e+02
1.725015e+03,4.483494e+02
1.727908e+03,4.526080e+02
1.730801e+03,4.515737e+02
1.733693e+03,4.557186e+02
1.736586e+03,4.439397e+02
1.739479e+03,4.533567e+02
1.742371e+03,4.512535e+02
1.745264e+03,4.376513e+02
1.748157e+03,4.449087e+02
1.751050e+03,4.531052e+02
1.753942e+03,4.429277e+02
1.756835e+03,4.387230e+02
1.759728e+03,4.429326e+02
1.762620e+03,4.371004e+02
1.765513e+03,4.349691e+02
1.768406e+03,4.429602e+02
1.771298e+03,4.422586e+02
1.774191e+03,4.305434e+02
1.777084e+03,4.365110e+02
1.779977e+03,4.319361e+02
1.782869e+03,4.312861e+02
1.785762e+03,4.397847e+02
1.788655e+03,4.290078e+02
1.791547e+03,4.256919e+02
1.794440e+03,4.311582e+02
1.797333e+03,4.253794e+02
1.800225e+03,4.320767e+02
1.803118e+03,4.310957e+02
1.806011e+03,4.314478e+02
1.808904e+03,4.281263e+02
1.811796e+03,4.216603e+02
1.814689e+03,4.191281e+02
1.817582e+03,4.265646e+02
1.820474e+03,4.172657e+02
1.823367e+03,4.214238e+02
1.826260e+03,4.143810e+02
1.829152e+03,4.105655e+02
1.832045e+03,4.208507e+02
1.834938e+03,4.083454e+02
1.837831e+03,4.136910e+02
1.840723e+03,4.186395e+02
1.843616e+03,4.140448e+02
1.846509e+03,4.075864e+02
1.849401e+03,4.085540e+02
1.852294e+03,4.125981e+02
1.855187e+03,3.982773e+02
1.858079e+03,4.074877e+02
1.860972e+03,4.186756e+02
1.863865e+03,4.018604e+02
1.866758e+03,4.044532e+02
1.869650e+03,4.078238e+02
1.872543e+03,4.036091e+02
1.875436e+03,4.057787e+02
1.878328e+03,3.991166e+02
1.881221e+03,4.047159e+02
1.884114e+03,3.958725e+02
1.887006e+03,3.892634e+02
1.889899e+03,4.004218e+02
1.892792e+03,3.932348e+02
1.895685e+03,3.956219e+02
1.898577e+03,3.943945e+02
1.901470e+03,3.911223e+02
1.904363e+03,3.863404e+02
1.907255e+03,3.830032e+02
1.910148e+03,3.907243e+02
1.913041e+03,3.905374e+02
1.915933e+03,3.863553e+02
1.918826e+03,3.893096e+02
1.921719e+03,3.852536e+02
1.924612e+03,3.869812e+02
1.927504e+03,3.793932e+02
1.930397e+03,3.845306e+02
1.933290e+03,3.799111e+02
1.936182e+03,3.834205e+02
1.939075e+03,3.866075e+02
1.941968e+03,3.738451e+02
1.944860e+03,3.736967e+02
1.947753e+03,3.767736e+02
1.950646e+03,3.711884e+02
1.953539e+03,3.794427e+02
1.956431e+03,3.748624e+02
1.959324e+03,3.781508e+02
1.962217e+03,3.720960e+02
1.965109e+03,3.627957e+02
1.968002e+03,3.750153e+02
1.970895e+03,3.714528e+02
1.973787e+03,3.714761e+02
1.976680e+03,3.779978e+02
1.979573e+03,3.691189e+02
1.982466e+03,3.642987e+02
1.985358e+03,3.664103e+02
1.988251e+03,3.699639e+02
1.991144e+03,3.604592e+02
1.994036e+03,3.584496e+02
1.996929e+03,3.614821e+02
1.999822e+03,3.561428e+02
2.002714e+03,3.504423e+02
2.005607e+03,3.614113e+02
2.008500e+03,3.474826e+02
2.011393e+03,3.559608e+02
2.014285e+03,3.530765e+02
2.017178e+03,3.566320e+02
2.020071e+03,3.531653e+02
2.022963e+03,3.470142e+02
2.025856e+03,3.463727e+02
2.028749e+03,3.483405e+02
2.031641e+03,3.433494e+02
2.034534e+03,3.440579e+02
2.037427e+03,3.375766e+02
2.040320e+03,3.421570e+02
2.043212e+03,3.432931e+02
2.046105e+03,3.448316e+02
2.048998e+03,3.425300e+02
2.051890e+03,3.459946e+02
2.054783e+03,3.358829e+02
2.057676e+03,3.416269e+02
2.060568e+03,3.352731e+02
2.063461e+03,3.339726e+02
2.066354e+03,3.388135e+02
2.069247e+03,3.242222e+02
2.072139e+03,3.304891e+02
2.075032e+03,3.236434e+02
2.077925e+03,3.255225e+02
2.080817e+03,3.279809e+02
2.083710e+03,3.256964e+02
2.086603e+03,3.199618e+02
2.089496e+03,3.245246e+02
2.092388e+03,3.222279e+02
2.095281e+03,3.201060e+02
2.098174e+03,3.265213e+02
2.101066e+03,3.286881e+02
2.103959e+03,3.123112e+02
2.106852e+03,3.192410e+02
2.109744e+03,3.196870e+02
2.112637e+03,3.148723e+02
2.115530e+03,3.183423e+02
2.118422e+03,3.129700e+02
2.121315e+03,3.170856e+02
2.124208e+03,3.179901e+02
2.127101e+03,3.121632e+02
2.129993e+03,3.125168e+02
2.132886e+03,3.106039e+02
2.135779e+03,3.170822e+02
2.138671e+03,3.070515e+02
2.141564e+03,3.116407e+02
2.144457e+03,3.077498e+02
2.147350e+03,2.926253e+02
2.150242e+03,3.009566e+02
2.153135e+03,3.048031e+02
2.156028e+03,3.026967e+02
2.158920e+03,2.959964e+02
2.161813e+03,2.992471e+02
2.164706e+03,3.026564e+02
2.167598e+03,3.032726e+02
2.170491e+03,3.007269e+02
2.173384e+03,2.921016e+02
2.176277e+03,2.920211e+02
2.179169e+03,2.948010e+02
2.182062e+03,2.873823e+02
2.184955e+03,2.993464e+02
2.187847e+03,2.872051e+02
2.190740e+03,2.909376e+02
2.193633e+03,2.958457e+02
2.196525e+03,2.866874e+02
2.199418e+03,2.982173e+02
2.202311e+03,2.854133e+02
2.205204e+03,2.924383e+02
2.208096e+03,2.861630e+02
2.210989e+03,2.873406e+02
2.213882e+03,2.761717e+02
2.216774e+03,2.823151e+02
2.219667e+03,2.821804e+02
2.222560e+03,2.828469e+02
2.225452e+03,2.821182e+02
2.228345e+03,2.774234e+02
2.231238e+03,2.821519e+02
2.234131e+03,2.751028e+02
2.237023e+03,2.761793e+02
2.239916e+03,2.740608e+02
2.242809e+03,2.775200e+02
2.245701e+03,2.766517e+02
2.248594e+03,2.654200e+02
2.251487e+03,2.742241e+02
2.254379e+03,2.667076e+02
2.257272e+03,2.648821e+02
2.260165e+03,2.697202e+02
2.263058e+03,2.679492e+02
2.265950e+03,2.737226e+02
2.268843e+03,2.681161e+02
2.271736e+03,2.589718e+02
2.274628e+03,2.653294e+02
2.277521e+03,2.663249e+02
2.280414e+03,2.637794e+02
2.283306e+03,2.666603e+02
2.286199e+03,2.601102e+02
2.289092e+03,2.597068e+02
2.291985e+03,2.613767e+02
2.294877e+03,2.621417e+02
2.297770e+03,2.584632e+02
2.300663e+03,2.671319e+02
2.303555e+03,2.532882e+02
2.306448e+03,2.558123e+02
2.309341e+03,2.549067e+02
2.312233e+03,2.547826e+02
2.315126e+03,2.496684e+02
2.318019e+03,2.525904e+02
2.320912e+03,2.507238e+02
2.323804e+03,2.485060e+02
2.326697e+03,2.509313e+02
2.329590e+03,2.499515e+02
2.332482e+03,2.488969e+02
2.335375e+03,2.563041e+02
2.338268e+03,2.526446e+02
2.341160e+03,2.493190e+02
2.344053e+03,2.455287e+02
2.346946e+03,2.527716e+02
2.349839e+03,2.459841e+02
2.352731e+03,2.500340e+02
2.355624e+03,2.474195e+02
2.358517e+03,2.401344e+02
2.361409e+03,2.507877e+02
2.364302e+03,2.404915e+02
2.367195e+03,2.418434e+02
2.370087e+03,2.337333e+02
2.372980e+03,2.427276e+02
2.375873e+03,2.496175e+02
2.378766e+03,2.439621e+02
2.381658e+03,2.326200e+02
2.384551e+03,2.360662e+02
2.387444e+03,2.386608e+02
2.390336e+03,2.339019e+02
2.393229e+03,2.326110e+02
2.396122e+03,2.356856e+02
2.399014e+03,2.326833e+02
2.401907e+03,2.401674e+02
2.404800e+03,2.271792e+02
2.407693e+03,2.311600e+02
2.410585e+03,2.320433e+02
2.413478e+03,2.211886e+02
2.416371e+03,2.325043e+02
2.419263e+03,2.335714e+02
2.422156e+03,2.296064e+02
2.425049e+03,2.211583e+02
2.427941e+03,2.357985e+02
2.430834e+03,2.184967e+02
2.433727e+03,2.214373e+02
2.436620e+03,2.252420e+02
2.439512e+03,2.154681e+02
2.442405e+03,2.191772e+02
2.445298e+03,2.224792e+02
2.448190e+03,2.172946e+02
2.451083e+03,2.184071e+02
2.453976e+03,2.179241e+02
2.456868e+03,2.197201e+02
2.459761e+03,2.143065e+02
2.462654e+03,2.225263e+02
2.465547e+03,2.161841e+02
2.468439e+03,2.186280e+02
2.471332e+03,2.125543e+02
2.474225e+03,2.165072e+02
2.477117e+03,2.155818e+02
2.480010e+03,2.194614e+02
2.482903e+03,2.194336e+02
2.485795e+03,2.115668e+02
2.488688e+03,2.165425e+02
2.491581e+03,2.137490e+02
2.494474e+03,2.084304e+02
2.497366e+03,2.146099e+02
2.500259e+03,2.089328e+02
2.503152e+03,2.072903e+02
2.506044e+03,2.176997e+02
2.508937e+03,2.146794e+02
2.511830e+03,2.108394e+02
2.514722e+03,2.066305e+02
2.517615e+03,2.117940e+02
2.520508e+03,2.043271e+02
2.523401e+03,2.086789e+02
2.526293e+03,2.135905e+02
2.529186e+03,2.034699e+02
2.532079e+03,2.032510e+02
2.534971e+03,2.056377e+02
2.537864e+03,2.013102e+02
2.540757e+03,2.054659e+02
2.543649e+03,2.069850e+02
2.546542e+03,2.134681e+02
2.549435e+03,2.173599e+02
2.552328e+03,2.063596e+02
2.555220e+03,2.182860e+02
2.558113e+03,2.097336e+02
2.561006e+03,2.052486e+02
2.563898e+03,2.159144e+02
2.566791e+03,2.038477e+02
2.569684e+03,2.092728e+02
2.572576e+03,2.075810e+02
2.575469e+03,2.064033e+02
2.578362e+03,1.991788e+02
2.581255e+03,1.969517e+02
2.584147e+03,2.011977e+02
2.587040e+03,2.038038e+02
2.589933e+03,1.949990e+02
2.592825e+03,1.910423e+02
2.595718e+03,1.966734e+02
2.598611e+03,1.995151e+02
2.601503e+03,1.966632e+02
2.604396e+03,1.937209e+02
2.607289e+03,2.056600e+02
2.610182e+03,1.933053e+02
2.613074e+03,1.846003e+02
2.615967e+03,1.986616e+02
2.618860e+03,1.888342e+02
2.621752e+03,1.989918e+02
2.624645e+03,1.919439e+02
2.627538e+03,1.898397e+02
2.630430e+03,1.888991e+02
2.633323e+03,1.897547e+02
2.636216e+03,1.818451e+02
2.639109e+03,1.934714e+02
2.642001e+03,1.859298e+02
2.644894e+03,1.906156e+02
2.647787e+03,1.832192e+02
2.650679e+03,1.805428e+02
2.653572e+03,1.960162e+02
2.656465e+03,1.919601e+02
2.659357e+03,1.832537e+02
2.662250e+03,1.803263e+02
2.665143e+03,1.927529e+02
2.668036e+03,1.876735e+02
2.670928e+03,1.891689e+02
2.673821e+03,1.834484e+02
2.676714e+03,1.720235e+02
2.679606e+03,1.731324e+02
2.682499e+03,1.834651e+02
2.685392e+03,1.839213e+02
2.688284e+03,1.827490e+02
2.691177e+03,1.883951e+02
2.694070e+03,1.821928e+02
2.696963e+03,1.789818e+02
2.699855e+03,1.811100e+02
2.702748e+03,1.890379e+02
2.705641e+03,1.838288e+02
2.708533e+03,1.868042e+02
2.711426e+03,1.860435e+02
2.714319e+03,1.788931e+02
2.717211e+03,1.803552e+02
2.720104e+03,1.845874e+02
2.722997e+03,1.783077e+02
2.725890e+03,1.791590e+02
2.728782e+03,1.810513e+02
2.731675e+03,1.724560e+02
2.734568e+03,1.847290e+02
2.737460e+03,1.667953e+02
2.740353e+03,1.727617e+02
2.743246e+03,1.742967e+02
2.746138e+03,1.760926e+02
2.749031e+03,1.775335e+02
2.751924e+03,1.695884e+02
2.754817e+03,1.703177e+02
2.757709e+03,1.720724e+02
2.760602e+03,1.728494e+02
2.763495e+03,1.714868e+02
2.766387e+03,1.751458e+02
2.769280e+03,1.643959e+02
2.772173e+03,1.793232e+02
2.775065e+03,1.725165e+02
2.777958e+03,1.772688e+02
2.780851e+03,1.723918e+02
2.783744e+03,1.799683e+02
2.786636e+03,1.667020e+02
2.789529e+03,1.705815e+02
2.792422e+03,1.858412e+02
2.795314e+03,1.692654e+02
2.798207e+03,1.665288e+02
2.801100e+03,1.795113e+02
2.803992e+03,1.732402e+02
2.806885e+03,1.637121e+02
2.809778e+03,1.773239e+02
2.812671e+03,1.713951e+02
2.815563e+03,1.639839e+02
2.818456e+03,1.711038e+02
2.821349e+03,1.808441e+02
2.824241e+03,1.670040e+02
2.827134e+03,1.748497e+02
2.830027e+03,1.727498e+02
2.832919e+03,1.730883e+02
2.835812e+03,1.860543e+02
2.838705e+03,1.667502e+02
2.841598e+03,1.830916e+02
2.844490e+03,1.790540e+02
2.847383e+03,1.661882e+02
2.850276e+03,1.975753e+02
2.853168e+03,1.856720e+02
2.856061e+03,1.909292e+02
2.858954e+03,1.877039e+02
2.861846e+03,1.839406e+02
2.864739e+03,1.972169e+02
2.867632e+03,1.968659e+02
2.870525e+03,1.819187e+02
2.873417e+03,1.872036e+02
2.876310e+03,1.900443e+02
2.879203e+03,1.976052e+02
2.882095e+03,1.925237e+02
2.884988e+03,2.080914e+02
2.887881e+03,2.213939e+02
2.890773e+03,2.162706e+02
2.893666e+03,2.078451e+02
2.896559e+03,2.172824e+02
2.899452e+03,2.203054e+02
2.902344e+03,2.089974e+02
2.905237e+03,2.042591e+02
2.908130e+03,2.173142e+02
2.911022e+03,2.068304e+02
2.913915e+03,1.987537e+02
2.916808e+03,1.974792e+02
2.919700e+03,1.972519e+02
2.922593e+03,1.745604e+02
2.925486e+03,2.028272e+02
2.928379e+03,1.772920e+02
2.931271e+03,1.892703e+02
2.934164e+03,1.620172e+02
2.937057e+03,1.711438e+02
2.939949e+03,1.797567e+02
2.942842e+03,1.799333e+02
2.945735e+03,1.956499e+02
2.948627e+03,1.779843e+02
2.951520e+03,1.820473e+02
2.954413e+03,1.763336e+02
2.957306e+03,2.163832e+02
2.960198e+03,1.879975e+02
2.963091e+03,1.698907e+02
2.965984e+03,1.676040e+02
2.968876e+03,1.692024e+02
2.971769e+03,1.756848e+02
2.974662e+03,1.599296e+02
2.977554e+03,1.599097e+02
2.980447e+03,1.607363e+02
2.983340e+03,1.555082e+02
2.986233e+03,1.503007e+02
2.989125e+03,1.538732e+02
2.992018e+03,1.459762e+02
2.994911e+03,1.378306e+02
2.997803e+03,1.446904e+02
3.000696e+03,1.546530e+02
3.003589e+03,1.601063e+02
3.006481e+03,1.660625e+02
3.009374e+03,1.521308e+02
3.012267e+03,1.429967e+02
3.015160e+03,1.550912e+02
3.018052e+03,1.493240e+02
3.020945e+03,1.549511e+02
3.023838e+03,1.430157e+02
3.026730e+03,1.468649e+02
3.029623e+03,1.439435e+02
3.032516e+03,1.436704e+02
3.035408e+03,1.211034e+02
3.038301e+03,1.473422e+02
3.041194e+03,1.489434e+02
3.044087e+03,1.523915e+02
3.046979e+03,1.285343e+02
3.049872e+03,1.392056e+02
3.052765e+03,1.510424e+02
3.055657e+03,1.428143e+02
3.058550e+03,1.559604e+02
3.061443e+03,1.451447e+02
3.064335e+03,1.401232e+02
3.067228e+03,1.502221e+02
3.070121e+03,1.456245e+02
3.073014e+03,1.285469e+02
3.075906e+03,1.367571e+02
3.078799e+03,1.374756e+02
3.081692e+03,1.398749e+02
3.084584e+03,1.414210e+02
3.087477e+03,1.403880e+02
3.090370e+03,1.495065e+02
3.093262e+03,1.290326e+02
3.096155e+03,1.415019e+02
3.099048e+03,1.536163e+02
3.101941e+03,1.481085e+02
3.104833e+03,1.415543e+02
3.107726e+03,1.435270e+02
3.110619e+03,1.390196e+02
3.113511e+03,1.376323e+02
3.116404e+03,1.439787e+02
3.119297e+03,1.523439e+02
3.122189e+03,1.484363e+02
3.125082e+03,1.608825e+02
3.127975e+03,1.479453e+02
3.130868e+03,1.716069e+02
3.133760e+03,1.868318e+02
3.136653e+03,1.118883e+02
3.139546e+03,1.586458e+02
3.142438e+03,1.634090e+02
3.145331e+03,1.212434e+02
3.148224e+03,1.423045e+02
3.151116e+03,1.388352e+02
3.154009e+03,1.705965e+02
3.156902e+03,1.481400e+02
3.159795e+03,1.445370e+02
3.162687e+03,1.501723e+02
3.165580e+03,1.663913e+02
3.168473e+03,1.541084e+02
3.171365e+03,1.626051e+02
3.174258e+03,1.574447e+02
3.177151e+03,1.452946e+02
3.180043e+03,1.581858e+02
3.182936e+03,1.748279e+02
3.185829e+03,1.617097e+02
3.188722e+03,1.126939e+02
3.191614e+03,1.528914e+02
3.194507e+03,1.536701e+02
3.197400e+03,1.237027e+02
3.200292e+03,1.548789e+02
3.203185e+03,0.000000e+00
3.206078e+03,0.000000e+00
3.208970e+03,0.000000e+00
3.211863e+03,0.000000e+00
3.214756e+03,0.000000e+00
3.217649e+03,0.000000e+00
3.220541e+03,0.000000e+00
3.223434e+03,0.000000e+00
3.226327e+03,0.000000e+00
3.229219e+03,0.000000e+00
3.232112e+03,0.000000e+00
3.235005e+03,0.000000e+00
3.237897e+03,0.000000e+00
3.240790e+03,0.000000e+00
3.243683e+03,0.000000e+00
3.246576e+03,0.000000e+00
3.249468e+03,0.000000e+00
3.252361e+03,0.000000e+00
3.255254e+03,0.000000e+00
3.258146e+03,0.000000e+00
3.261039e+03,0.000000e+00
3.263932e+03,0.000000e+00
3.266824e+03,0.000000e+00
3.269717e+03,0.000000e+00
3.272610e+03,0.000000e+00
3.275503e+03,0.000000e+00
3.278395e+03,0.000000e+00
3.281288e+03,0.000000e+00
3.284181e+03,0.000000e+00
3.287073e+03,0.000000e+00
3.289966e+03,0.000000e+00
3.292859e+03,0.000000e+00
3.295751e+03,0.000000e+00
3.298644e+03,0.000000e+00
3.301537e+03,0.000000e+00
3.304430e+03,0.000000e+00
3.307322e+03,0.000000e+00
3.310215e+03,0.000000e+00
3.313108e+03,0.000000e+00
3.316000e+03,0.000000e+00
3.318893e+03,0.000000e+00
3.321786e+03,0.000000e+00
3.324678e+03,0.000000e+00
3.327571e+03,0.000000e+00
3.330464e+03,0.000000e+00
3.333357e+03,0.000000e+00
3.336249e+03,0.000000e+00
3.339142e+03,0.000000e+00
3.342035e+03,0.000000e+00
3.344927e+03,0.000000e+00
3.347820e+03,0.000000e+00
3.350713e+03,0.000000e+00
3.353605e+03,0.000000e+00
3.356498e+03,0.000000e+00
3.359391e+03,0.000000e+00
3.362284e+03,0.000000e+00
3.365176e+03,0.000000e+00
3.368069e+03,0.000000e+00
3.370962e+03,0.000000e+00
3.373854e+03,0.000000e+00
3.376747e+03,0.000000e+00
3.379640e+03,0.000000e+00
3.382532e+03,0.000000e+00
3.385425e+03,0.000000e+00
3.388318e+03,0.000000e+00
3.391211e+03,0.000000e+00
3.394103e+03,0.000000e+00
3.396996e+03,0.000000e+00
3.399889e+03,0.000000e+00
3.402781e+03,0.000000e+00
3.405674e+03,0.000000e+00
3.408567e+03,0.000000e+00
3.411459e+03,0.000000e+00
3.414352e+03,0.000000e+00
3.417245e+03,0.000000e+00
3.420138e+03,0.000000e+00
3.423030e+03,0.000000e+00
3.425923e+03,0.000000e+00
3.428816e+03,0.000000e+00
3.431708e+03,0.000000e+00
3.434601e+03,0.000000e+00
3.437494e+03,0.000000e+00
3.440386e+03,0.000000e+00
3.443279e+03,0.000000e+00
3.446172e+03,0.000000e+00
3.449065e+03,0.000000e+00
3.451957e+03,0.000000e+00
3.454850e+03,0.000000e+00
3.457743e+03,0.000000e+00
3.460635e+03,0.000000e+00
3.463528e+03,0.000000e+00
3.466421e+03,0.000000e+00
3.469313e+03,0.000000e+00
3.472206e+03,0.000000e+00
3.475099e+03,0.000000e+00
3.477992e+03,0.000000e+00
3.480884e+03,0.000000e+00
3.483777e+03,0.000000e+00
3.486670e+03,0.000000e+00
3.489563e+03,0.000000e+00
3.492455e+03,0.000000e+00
3.495348e+03,0.000000e+00
3.498240e+03,0.000000e+00
3.500169e+03,0.000000e+00