File: RAMAN_data/06022023_r2/blue fibre4.CSV
9.931763e+01,0.000000e+00
1.022103e+02,0.000000e+00
1.051030e+02,0.000000e+00
1.079957e+02,0.000000e+00
1.108884e+02,0.000000e+00
1.137811e+02,0.000000e+00
1.166738e+02,0.000000e+00
1.195665e+02,0.000000e+00
1.224592e+02,0.000000e+00
1.253519e+02,0.000000e+00
1.282446e+02,0.000000e+00
1.311373e+02,0.000000e+00
1.340300e+02,0.000000e+00
1.369227e+02,0.000000e+00
1.398154e+02,0.000000e+00
1.427081e+02,0.000000e+00
1.456008e+02,0.000000e+00
1.484935e+02,0.000000e+00
1.513862e+02,0.000000e+00
1.542789e+02,0.000000e+00
1.571716e+02,0.000000e+00
1.600643e+02,0.000000e+00
1.629570e+02,0.000000e+00
1.658497e+02,0.000000e+00
1.687424e+02,0.000000e+00
1.716351e+02,0.000000e+00
1.745278e+02,0.000000e+00
1.774205e+02,0.000000e+00
1.803132e+02,0.000000e+00
1.832059e+02,0.000000e+00
1.860986e+02,0.000000e+00
1.889913e+02,0.000000e+00
1.918840e+02,0.000000e+00
1.947767e+02,0.000000e+00
1.976694e+02,0.000000e+00
2.005621e+02,4.017260e+03
2.034548e+02,4.052792e+03
2.063475e+02,4.073281e+03
2.092402e+02,4.049425e+03
2.121329e+02,4.056208e+03
2.150256e+02,4.072547e+03
2.179183e+02,4.085157e+03
2.208110e+02,4.089166e+03
2.237037e+02,4.098950e+03
2.265964e+02,4.090398e+03
2.294892e+02,4.097270e+03
2.323819e+02,4.112759e+03
2.352746e+02,4.121855e+03
2.381673e+02,4.128150e+03
2.410600e+02,4.118024e+03
2.439527e+02,4.107141e+03
2.468454e+02,4.135391e+03
2.497381e+02,4.158381e+03
2.526308e+02,4.152255e+03
2.555235e+02,4.158963e+03
2.584161e+02,4.152185e+03
2.613088e+02,4.162732e+03
2.642015e+02,4.177972e+03
2.670942e+02,4.206830e+03
2.699869e+02,4.222145e+03
2.728796e+02,4.203695e+03
2.757723e+02,4.206347e+03
2.786650e+02,4.224880e+03
2.815577e+02,4.232769e+03
2.844504e+02,4.244678e+03
2.873431e+02,4.232367e+03
2.902358e+02,4.224947e+03
2.931285e+02,4.235479e+03
2.960212e+02,4.232540e+03
2.989139e+02,4.234325e+03
3.018066e+02,4.261476e+03
3.046993e+02,4.239346e+03
3.075920e+02,4.264881e+03
3.104847e+02,4.239610e+03
3.133774e+02,4.281523e+03
3.162701e+02,4.273533e+03
3.191628e+02,4.265648e+03
3.220555e+02,4.278931e+03
3.249482e+02,4.282242e+03
3.278409e+02,4.294808e+03
3.307336e+02,4.293706e+03
3.336263e+02,4.291513e+03
3.365190e+02,4.285216e+03
3.394117e+02,4.293825e+03
3.423044e+02,4.286967e+03
3.451971e+02,4.309838e+03
3.480898e+02,4.302203e+03
3.509825e+02,4.301710e+03
3.538752e+02,4.313053e+03
3.567680e+02,4.321793e+03
3.596607e+02,4.323189e+03
3.625534e+02,4.327222e+03
3.654461e+02,4.317912e+03
3.683388e+02,4.318630e+03
3.712315e+02,4.342924e+03
3.741242e+02,4.350517e+03
3.770169e+02,4.355846e+03
3.799096e+02,4.370253e+03
3.828023e+02,4.343494e+03
3.856950e+02,4.332243e+03
3.885877e+02,4.352568e+03
3.914804e+02,4.358212e+03
3.943731e+02,4.349888e+03
3.972658e+02,4.350117e+03
4.001585e+02,4.337506e+03
4.030512e+02,4.369599e+03
4.059439e+02,4.351903e+03
4.088366e+02,4.345107e+03
4.117293e+02,4.363508e+03
4.146220e+02,4.364884e+03
4.175147e+02,4.356447e+03
4.204074e+02,4.353866e+03
4.233001e+02,4.351162e+03
4.261928e+02,4.364633e+03
4.290855e+02,4.357144e+03
4.319782e+02,4.358994e+03
4.348709e+02,4.379826e+03
4.377636e+02,4.379357e+03
4.406563e+02,4.363055e+03
4.435490e+02,4.371365e+03
4.464417e+02,4.352474e+03
4.493344e+02,4.370925e+03
4.522271e+02,4.373413e+03
4.551198e+02,4.375230e+03
4.580125e+02,4.376601e+03
4.609052e+02,4.375142e+03
4.637979e+02,4.350732e+03
4.666906e+02,4.375904e+03
4.695833e+02,4.340985e+03
4.724760e+02,4.342022e+03
4.753687e+02,4.359848e+03
4.782614e+02,4.368792e+03
4.811541e+02,4.381265e+03
4.840468e+02,4.426464e+03
4.869395e+02,4.416262e+03
4.898322e+02,4.413234e+03
4.927249e+02,4.403212e+03
4.956176e+02,4.382070e+03
4.985103e+02,4.385258e+03
5.014030e+02,4.363532e+03
5.042957e+02,4.378390e+03
5.071884e+02,4.380794e+03
5.100811e+02,4.358247e+03
5.129738e+02,4.344983e+03
5.158665e+02,4.379931e+03
5.187592e+02,4.351649e+03
5.216519e+02,4.364451e+03
5.245446e+02,4.351502e+03
5.274373e+02,4.345753e+03
5.303300e+02,4.331531e+03
5.332227e+02,4.323814e+03
5.361154e+02,4.312578e+03
5.390081e+02,4.327194e+03
5.419008e+02,4.334882e+03
5.447935e+02,4.341191e+03
5.476862e+02,4.324642e+03
5.505789e+02,4.315787e+03
5.534716e+02,4.321905e+03
5.563643e+02,4.311933e+03
5.592570e+02,4.319799e+03
5.621497e+02,4.342604e+03
5.650424e+02,4.318825e+03
5.679351e+02,4.293463e+03
5.708278e+02,4.299087e+03
5.737205e+02,4.323138e+03
5.766132e+02,4.330575e+03
5.795059e+02,4.308681e+03
5.823986e+02,4.294430e+03
5.852913e+02,4.292479e+03
5.881840e+02,4.300468e+03
5.910767e+02,4.322754e+03
5.939694e+02,4.321575e+03
5.968621e+02,4.318563e+03
5.997548e+02,4.297740e+03
6.026475e+02,4.295041e+03
6.055402e+02,4.311013e+03
6.084329e+02,4.319798e+03
6.113256e+02,4.292823e+03
6.142183e+02,4.288534e+03
6.171110e+02,4.292909e+03
6.200037e+02,4.316264e+03
6.228964e+02,4.292365e+03
6.257891e+02,4.276212e+03
6.286818e+02,4.279034e+03
6.315745e+02,4.285144e+03
6.344672e+02,4.285385e+03
6.373599e+02,4.282882e+03
6.402526e+02,4.282778e+03
6.431453e+02,4.256922e+03
6.460380e+02,4.248026e+03
6.489307e+02,4.293515e+03
6.518234e+02,4.268903e+03
6.547161e+02,4.274373e+03
6.576088e+02,4.249309e+03
6.605015e+02,4.246097e+03
6.633942e+02,4.253918e+03
6.662869e+02,4.237506e+03
6.691796e+02,4.233940e+03
6.720723e+02,4.228084e+03
6.749650e+02,4.224117e+03
6.778577e+02,4.222551e+03
6.807504e+02,4.221782e+03
6.836431e+02,4.216463e+03
6.865358e+02,4.200407e+03
6.894285e+02,4.185322e+03
6.923212e+02,4.215495e+03
6.952139e+02,4.205061e+03
6.981066e+02,4.205120e+03
7.009993e+02,4.216014e+03
7.038920e+02,4.186759e+03
7.067847e+02,4.178770e+03
7.096774e+02,4.172699e+03
7.125701e+02,4.192964e+03
7.154628e+02,4.190704e+03
7.183555e+02,4.177736e+03
7.212482e+02,4.175221e+03
7.241409e+02,4.148159e+03
7.270336e+02,4.149509e+03
7.299263e+02,4.152134e+03
7.328190e+02,4.155178e+03
7.357117e+02,4.140388e+03
7.386044e+02,4.136114e+03
7.414971e+02,4.133966e+03
7.443898e+02,4.119698e+03
7.472825e+02,4.143750e+03
7.501752e+02,4.120408e+03
7.530679e+02,4.112203e+03
7.559606e+02,4.101041e+03
7.588533e+02,4.097877e+03
7.617460e+02,4.096114e+03
7.646387e+02,4.108943e+03
7.675314e+02,4.086887e+03
7.704241e+02,4.068909e+03
7.733168e+02,4.084383e+03
7.762095e+02,4.096305e+03
7.791022e+02,4.093773e+03
7.819949e+02,4.069052e+03
7.848876e+02,4.077332e+03
7.877803e+02,4.080811e+03
7.906730e+02,4.067560e+03
7.935657e+02,4.063661e+03
7.964584e+02,4.051720e+03
7.993511e+02,4.057348e+03
8.022438e+02,4.034196e+03
8.051365e+02,4.045226e+03
8.080292e+02,4.038147e+03
8.109219e+02,4.028707e+03
8.138146e+02,4.015228e+03
8.167073e+02,4.004992e+03
8.196000e+02,4.038302e+03
8.224927e+02,4.020717e+03
8.253854e+02,4.007276e+03
8.282781e+02,3.997853e+03
8.311708e+02,4.008294e+03
8.340635e+02,4.001662e+03
8.369562e+02,3.977840e+03
8.398489e+02,3.997984e+03
8.427416e+02,3.992174e+03
8.456343e+02,3.975012e+03
8.485270e+02,3.973159e+03
8.514197e+02,3.983717e+03
8.543124e+02,3.964370e+03
8.572051e+02,3.946372e+03
8.600978e+02,3.959242e+03
8.629905e+02,3.950751e+03
8.658832e+02,3.940642e+03
8.687759e+02,3.933924e+03
8.716686e+02,3.929952e+03
8.745613e+02,3.905564e+03
8.774540e+02,3.922538e+03
8.803467e+02,3.942046e+03
8.832394e+02,3.922347e+03
8.861321e+02,3.921820e+03
8.890248e+02,3.911866e+03
8.919175e+02,3.906355e+03
8.948102e+02,3.897819e+03
8.977029e+02,3.891008e+03
9.005956e+02,3.885961e+03
9.034883e+02,3.874024e+03
9.063810e+02,3.873265e+03
9.092737e+02,3.870880e+03
9.121664e+02,3.858915e+03
9.150591e+02,3.857717e+03
9.179518e+02,3.857777e+03
9.208445e+02,3.821534e+03
9.237372e+02,3.821530e+03
9.266299e+02,3.818766e+03
9.295226e+02,3.797505e+03
9.324153e+02,3.794870e+03
9.353080e+02,3.805347e+03
9.382007e+02,3.800430e+03
9.410934e+02,3.783438e+03
9.439861e+02,3.794402e+03
9.468788e+02,3.786270e+03
9.497715e+02,3.779778e+03
9.526642e+02,3.770522e+03
9.555569e+02,3.770351e+03
9.584496e+02,3.754527e+03
9.613423e+02,3.747319e+03
9.642350e+02,3.749492e+03
9.671277e+02,3.749784e+03
9.700204e+02,3.737353e+03
9.729131e+02,3.720538e+03
9.758058e+02,3.735137e+03
9.786985e+02,3.710898e+03
9.815912e+02,3.732973e+03
9.844839e+02,3.714505e+03
9.873766e+02,3.689910e+03
9.902693e+02,3.692287e+03
9.931620e+02,3.694248e+03
9.960547e+02,3.705328e+03
9.989474e+02,3.690369e+03
1.001840e+03,3.684352e+03
1.004733e+03,3.677468e+03
1.007626e+03,3.681311e+03
1.010518e+03,3.670706e+03
1.013411e+03,3.644522e+03
1.016304e+03,3.634668e+03
1.019196e+03,3.633125e+03
1.022089e+03,3.640367e+03
1.024982e+03,3.639358e+03
1.027875e+03,3.621440e+03
1.030767e+03,3.612885e+03
1.033660e+03,3.630113e+03
1.036552e+03,3.616414e+03
1.039445e+03,3.603029e+03
1.042338e+03,3.618205e+03
1.045231e+03,3.608551e+03
1.048123e+03,3.602387e+03
1.051016e+03,3.600422e+03
1.053909e+03,3.581837e+03
1.056802e+03,3.585399e+03
1.059694e+03,3.590024e+03
1.062587e+03,3.559944e+03
1.065479e+03,3.548755e+03
1.068372e+03,3.552006e+03
1.071265e+03,3.550429e+03
1.074158e+03,3.559437e+03
1.077050e+03,3.552149e+03
1.079943e+03,3.553993e+03
1.082836e+03,3.560485e+03
1.085729e+03,3.548857e+03
1.088621e+03,3.567883e+03
1.091514e+03,3.567875e+03
1.094406e+03,3.540785e+03
1.097299e+03,3.534984e+03
1.100192e+03,3.527557e+03
1.103085e+03,3.537575e+03
1.105977e+03,3.527111e+03
1.108870e+03,3.530031e+03
1.111763e+03,3.518027e+03
1.114656e+03,3.528030e+03
1.117548e+03,3.534992e+03
1.120441e+03,3.534230e+03
1.123334e+03,3.523895e+03
1.126226e+03,3.557551e+03
1.129119e+03,3.532819e+03
1.132012e+03,3.524455e+03
1.134904e+03,3.517616e+03
1.137797e+03,3.505145e+03
1.140690e+03,3.505436e+03
1.143583e+03,3.500153e+03
1.146475e+03,3.491886e+03
1.149368e+03,3.505816e+03
1.152261e+03,3.508011e+03
1.155153e+03,3.490062e+03
1.158046e+03,3.479410e+03
1.160939e+03,3.453344e+03
1.163831e+03,3.454549e+03
1.166724e+03,3.427542e+03
1.169617e+03,3.404444e+03
1.172510e+03,3.395210e+03
1.175402e+03,3.415385e+03
1.178295e+03,3.435509e+03
1.181188e+03,3.405253e+03
1.184080e+03,3.405273e+03
1.186973e+03,3.392969e+03
1.189866e+03,3.395997e+03
1.192758e+03,3.375188e+03
1.195651e+03,3.384728e+03
1.198544e+03,3.389868e+03
1.201437e+03,3.355921e+03
1.204329e+03,3.360613e+03
1.207222e+03,3.356366e+03
1.210115e+03,3.349013e+03
1.213007e+03,3.364699e+03
1.215900e+03,3.350953e+03
1.218793e+03,3.334207e+03
1.221685e+03,3.331239e+03
1.224578e+03,3.335914e+03
1.227471e+03,3.330769e+03
1.230364e+03,3.311146e+03
1.233256e+03,3.283224e+03
1.236149e+03,3.278385e+03
1.239042e+03,3.302682e+03
1.241934e+03,3.289972e+03
1.244827e+03,3.293628e+03
1.247720e+03,3.279641e+03
1.250612e+03,3.268754e+03
1.253505e+03,3.263635e+03
1.256398e+03,3.249832e+03
1.259291e+03,3.260147e+03
1.262183e+03,3.252735e+03
1.265076e+03,3.254699e+03
1.267969e+03,3.250934e+03
1.270861e+03,3.261192e+03
1.273754e+03,3.281793e+03
1.276647e+03,3.276538e+03
1.279539e+03,3.265224e+03
1.282432e+03,3.275576e+03
1.285325e+03,3.269442e+03
1.288218e+03,3.266848e+03
1.291110e+03,3.233041e+03
1.294003e+03,3.217441e+03
1.296896e+03,3.217240e+03
1.299788e+03,3.194093e+03
1.302681e+03,3.192770e+03
1.305574e+03,3.195296e+03
1.308466e+03,3.185774e+03
1.311359e+03,3.175728e+03
1.314252e+03,3.163026e+03
1.317145e+03,3.173555e+03
1.320037e+03,3.170996e+03
1.322930e+03,3.168928e+03
1.325823e+03,3.160280e+03
1.328715e+03,3.160219e+03
1.331608e+03,3.156012e+03
1.334501e+03,3.174776e+03
1.337393e+03,3.172771e+03
1.340286e+03,3.167882e+03
1.343179e+03,3.163015e+03
1.346072e+03,3.144651e+03
1.348964e+03,3.156709e+03
1.351857e+03,3.137249e+03
1.354750e+03,3.155922e+03
1.357642e+03,3.116339e+03
1.360535e+03,3.127480e+03
1.363428e+03,3.120681e+03
1.366320e+03,3.102924e+03
1.369213e+03,3.087497e+03
1.372106e+03,3.080814e+03
1.374999e+03,3.085645e+03
1.377891e+03,3.088103e+03
1.380784e+03,3.069238e+03
1.383677e+03,3.068272e+03
1.386569e+03,3.064294e+03
1.389462e+03,3.040136e+03
1.392355e+03,3.028284e+03
1.395247e+03,3.029381e+03
1.398140e+03,3.041891e+03
1.401033e+03,3.030812e+03
1.403926e+03,3.015958e+03
1.406818e+03,3.010593e+03
1.409711e+03,3.026372e+03
1.412604e+03,3.044002e+03
1.415496e+03,3.026962e+03
1.418389e+03,3.002881e+03
1.421282e+03,2.995360e+03
1.424174e+03,2.987367e+03
1.427067e+03,2.997542e+03
1.429960e+03,2.969744e+03
1.432853e+03,2.966465e+03
1.435745e+03,2.981171e+03
1.438638e+03,2.933924e+03
1.441531e+03,2.932138e+03
1.444423e+03,2.969340e+03
1.447316e+03,2.930325e+03
1.450209e+03,2.926949e+03
1.453101e+03,2.921622e+03
1.455994e+03,2.923181e+03
1.458887e+03,2.911980e+03
1.461780e+03,2.907952e+03
1.464672e+03,2.906678e+03
1.467565e+03,2.894202e+03
1.470458e+03,2.898293e+03
1.473350e+03,2.883316e+03
1.476243e+03,2.888805e+03
1.479136e+03,2.872130e+03
1.482028e+03,2.869835e+03
1.484921e+03,2.880310e+03
1.487814e+03,2.879707e+03
1.490707e+03,2.863999e+03
1.493599e+03,2.862227e+03
1.496492e+03,2.855254e+03
1.499385e+03,2.851910e+03
1.502277e+03,2.857629e+03
1.505170e+03,2.853043e+03
1.508063e+03,2.826188e+03
1.510955e+03,2.827071e+03
1.513848e+03,2.837573e+03
1.516741e+03,2.828131e+03
1.519634e+03,2.819859e+03
1.522526e+03,2.826572e+03
1.525419e+03,2.805078e+03
1.528312e+03,2.800727e+03
1.531204e+03,2.800990e+03
1.534097e+03,2.806279e+03
1.536990e+03,2.791133e+03
1.539882e+03,2.775171e+03
1.542775e+03,2.774831e+03
1.545668e+03,2.781163e+03
1.548561e+03,2.767270e+03
1.551453e+03,2.789253e+03
1.554346e+03,2.787740e+03
1.557239e+03,2.771031e+03
1.560131e+03,2.764863e+03
1.563024e+03,2.766734e+03
1.565917e+03,2.771229e+03
1.568809e+03,2.773263e+03
1.571702e+03,2.783392e+03
1.574595e+03,2.785927e+03
1.577488e+03,2.782479e+03
1.580380e+03,2.750121e+03
1.583273e+03,2.776259e+03
1.586166e+03,2.798224e+03
1.589058e+03,2.760265e+03
1.591951e+03,2.739004e+03
1.594844e+03,2.750147e+03
1.597736e+03,2.731664e+03
1.600629e+03,2.705388e+03
1.603522e+03,2.699707e+03
1.606415e+03,2.679891e+03
1.609307e+03,2.687401e+03
1.612200e+03,2.683401e+03
1.615093e+03,2.703636e+03
1.617985e+03,2.678851e+03
1.620878e+03,2.666145e+03
1.623771e+03,2.653410e+03
1.626663e+03,2.635927e+03
1.629556e+03,2.637722e+03
1.632449e+03,2.645730e+03
1.635342e+03,2.622307e+03
1.638234e+03,2.619320e+03
1.641127e+03,2.619445e+03
1.644020e+03,2.606844e+03
1.646912e+03,2.598720e+03
1.649805e+03,2.608813e+03
1.652698e+03,2.607375e+03
1.655590e+03,2.592360e+03
1.658483e+03,2.600711e+03
1.661376e+03,2.586322e+03
1.664269e+03,2.566519e+03
1.667161e+03,2.565240e+03
1.670054e+03,2.556588e+03
1.672947e+03,2.547048e+03
1.675839e+03,2.554828e+03
1.678732e+03,2.558514e+03
1.681625e+03,2.541331e+03
1.684517e+03,2.530847e+03
1.687410e+03,2.537960e+03
1.690303e+03,2.542840e+03
1.693196e+03,2.546055e+03
1.696088e+03,2.522892e+03
1.698981e+03,2.521385e+03
1.701874e+03,2.505282e+03
1.704766e+03,2.517180e+03
1.707659e+03,2.503895e+03
1.710552e+03,2.510927e+03
1.713444e+03,2.514494e+03
1.716337e+03,2.487487e+03
1.719230e+03,2.490609e+03
1.722123e+03,2.488072e+03
1.725015e+03,2.461708e+03
1.727908e+03,2.462861e+03
1.730801e+03,2.494869e+03
1.733693e+03,2.464414e+03
1.736586e+03,2.455974e+03
1.739479e+03,2.446543e+03
1.742371e+03,2.453205e+03
1.745264e+03,2.433546e+03
1.748157e+03,2.441065e+03
1.751050e+03,2.432648e+03
1.753942e+03,2.417640e+03
1.756835e+03,2.419572e+03
1.759728e+03,2.401091e+03
1.762620e+03,2.407134e+03
1.765513e+03,2.414309e+03
1.768406e+03,2.407512e+03
1.771298e+03,2.416042e+03
1.774191e+03,2.387594e+03
1.777084e+03,2.396009e+03
1.779977e+03,2.384800e+03
1.782869e+03,2.373927e+03
1.785762e+03,2.373933e+03
1.788655e+03,2.344661e+03
1.791547e+03,2.355694e+03
1.794440e+03,2.352852e+03
1.797333e+03,2.359782e+03
1.800225e+03,2.355487e+03
1.803118e+03,2.355328e+03
1.806011e+03,2.337109e+03
1.808904e+03,2.329718e+03
1.811796e+03,2.323797e+03
1.814689e+03,2.334726e+03
1.817582e+03,2.319394e+03
1.820474e+03,2.305901e+03
1.823367e+03,2.321527e+03
1.826260e+03,2.298604e+03
1.829152e+03,2.284837e+03
1.832045e+03,2.302483e+03
1.834938e+03,2.284047e+03
1.837831e+03,2.280163e+03
1.840723e+03,2.278068e+03
1.843616e+03,2.293859e+03
1.846509e+03,2.276995e+03
1.849401e+03,2.266356e+03
1.852294e+03,2.269095e+03
1.855187e+03,2.247780e+03
1.858079e+03,2.237007e+03
1.860972e+03,2.238941e+03
1.863865e+03,2.255083e+03
1.866758e+03,2.244857e+03
1.869650e+03,2.211066e+03
1.872543e+03,2.220669e+03
1.875436e+03,2.215681e+03
1.878328e+03,2.218444e+03
1.881221e+03,2.188536e+03
1.884114e+03,2.178035e+03
1.887006e+03,2.189964e+03
1.889899e+03,2.201916e+03
1.892792e+03,2.166325e+03
1.895685e+03,2.168380e+03
1.898577e+03,2.160422e+03
1.901470e+03,2.181704e+03
1.904363e+03,2.156248e+03
1.907255e+03,2.157857e+03
1.910148e+03,2.129305e+03
1.913041e+03,2.140392e+03
1.915933e+03,2.150075e+03
1.918826e+03,2.131178e+03
1.921719e+03,2.139097e+03
1.924612e+03,2.141820e+03
1.927504e+03,2.113439e+03
1.930397e+03,2.112621e+03
1.933290e+03,2.105768e+03
1.936182e+03,2.103306e+03
1.939075e+03,2.099066e+03
1.941968e+03,2.095880e+03
1.944860e+03,2.072906e+03
1.947753e+03,2.081157e+03
1.950646e+03,2.081436e+03
1.953539e+03,2.086750e+03
1.956431e+03,2.090152e+03
1.959324e+03,2.058257e+03
1.962217e+03,2.063027e+03
1.965109e+03,2.042858e+03
1.968002e+03,2.069673e+03
1.970895e+03,2.042268e+03
1.973787e+03,2.058977e+03
1.976680e+03,2.051829e+03
1.979573e+03,2.015424e+03
1.982466e+03,2.028124e+03
1.985358e+03,2.008210e+03
1.988251e+03,2.009741e+03
1.991144e+03,2.013438e+03
1.994036e+03,2.003957e+03
1.996929e+03,1.987920e+03
1.999822e+03,1.994660e+03
2.002714e+03,1.985468e+03
2.005607e+03,1.993798e+03
2.008500e+03,1.963729e+03
2.011393e+03,1.973903e+03
2.014285e+03,1.977575e+03
2.017178e+03,1.977936e+03
2.020071e+03,1.957383e+03
2.022963e+03,1.934617e+03
2.025856e+03,1.936129e+03
2.028749e+03,1.933228e+03
2.031641e+03,1.925855e+03
2.034534e+03,1.927912e+03
2.037427e+03,1.930074e+03
2.040320e+03,1.918749e+03
2.043212e+03,1.895518e+03
2.046105e+03,1.909773e+03
2.048998e+03,1.916476e+03
2.051890e+03,1.910673e+03
2.054783e+03,1.881220e+03
2.057676e+03,1.885488e+03
2.060568e+03,1.885189e+03
2.063461e+03,1.885038e+03
2.066354e+03,1.873903e+03
2.069247e+03,1.858398e+03
2.072139e+03,1.853400e+03
2.075032e+03,1.849715e+03
2.077925e+03,1.828224e+03
2.080817e+03,1.846442e+03
2.083710e+03,1.855183e+03
2.086603e+03,1.824425e+03
2.089496e+03,1.823613e+03
2.092388e+03,1.835227e+03
2.095281e+03,1.811493e+03
2.098174e+03,1.820640e+03
2.101066e+03,1.815767e+03
2.103959e+03,1.798798e+03
2.106852e+03,1.815020e+03
2.109744e+03,1.791736e+03
2.112637e+03,1.777674e+03
2.115530e+03,1.786339e+03
2.118422e+03,1.770721e+03
2.121315e+03,1.776059e+03
2.124208e+03,1.778145e+03
2.127101e+03,1.746319e+03
2.129993e+03,1.755972e+03
2.132886e+03,1.754697e+03
2.135779e+03,1.738535e+03
2.138671e+03,1.752409e+03
2.141564e+03,1.726858e+03
2.144457e+03,1.718212e+03
2.147350e+03,1.724446e+03
2.150242e+03,1.719076e+03
2.153135e+03,1.718354e+03
2.156028e+03,1.708532e+03
2.158920e+03,1.700274e+03
2.161813e+03,1.719043e+03
2.164706e+03,1.701533e+03
2.167598e+03,1.699170e+03
2.170491e+03,1.683306e+03
2.173384e+03,1.697845e+03
2.176277e+03,1.688613e+03
2.179169e+03,1.668170e+03
2.182062e+03,1.663925e+03
2.184955e+03,1.685656e+03
2.187847e+03,1.653030e+03
2.190740e+03,1.648916e+03
2.193633e+03,1.642959e+03
2.196525e+03,1.643756e+03
2.199418e+03,1.635761e+03
2.202311e+03,1.635364e+03
2.205204e+03,1.642892e+03
2.208096e+03,1.629581e+03
2.210989e+03,1.611200e+03
2.213882e+03,1.599258e+03
2.216774e+03,1.626625e+03
2.219667e+03,1.605439e+03
2.222560e+03,1.597775e+03
2.225452e+03,1.587885e+03
2.228345e+03,1.600606e+03
2.231238e+03,1.590079e+03
2.234131e+03,1.586405e+03
2.237023e+03,1.579680e+03
2.239916e+03,1.561632e+03
2.242809e+03,1.557682e+03
2.245701e+03,1.547243e+03
2.248594e+03,1.555807e+03
2.251487e+03,1.559654e+03
2.254379e+03,1.548341e+03
2.257272e+03,1.535031e+03
2.260165e+03,1.528264e+03
2.263058e+03,1.544844e+03
2.265950e+03,1.518182e+03
2.268843e+03,1.524016e+03
2.271736e+03,1.512033e+03
2.274628e+03,1.498768e+03
2.277521e+03,1.499703e+03
2.280414e+03,1.515346e+03
2.283306e+03,1.507604e+03
2.286199e+03,1.493020e+03
2.289092e+03,1.476179e+03
2.291985e+03,1.484400e+03
2.294877e+03,1.478266e+03
2.297770e+03,1.507102e+03
2.300663e+03,1.477001e+03
2.303555e+03,1.467995e+03
2.306448e+03,1.467521e+03
2.309341e+03,1.457298e+03
2.312233e+03,1.443429e+03
2.315126e+03,1.444555e+03
2.318019e+03,1.458261e+03
2.320912e+03,1.453909e+03
2.323804e+03,1.441539e+03
2.326697e+03,1.448753e+03
2.329590e+03,1.432806e+03
2.332482e+03,1.410991e+03
2.335375e+03,1.404572e+03
2.338268e+03,1.416829e+03
2.341160e+03,1.416190e+03
2.344053e+03,1.424160e+03
2.346946e+03,1.417701e+03
2.349839e+03,1.406547e+03
2.352731e+03,1.372654e+03
2.355624e+03,1.397925e+03
2.358517e+03,1.404120e+03
2.361409e+03,1.392484e+03
2.364302e+03,1.373228e+03
2.367195e+03,1.363557e+03
2.370087e+03,1.381893e+03
2.372980e+03,1.365926e+03
2.375873e+03,1.357465e+03
2.378766e+03,1.362042e+03
2.381658e+03,1.352384e+03
2.384551e+03,1.348971e+03
2.387444e+03,1.347515e+03
2.390336e+03,1.341653e+03
2.393229e+03,1.355004e+03
2.396122e+03,1.332905e+03
2.399014e+03,1.315781e+03
2.401907e+03,1.334674e+03
2.404800e+03,1.325329e+03
2.407693e+03,1.305967e+03
2.410585e+03,1.326842e+03
2.413478e+03,1.303306e+03
2.416371e+03,1.308440e+03
2.419263e+03,1.299416e+03
2.422156e+03,1.312787e+03
2.425049e+03,1.278603e+03
2.427941e+03,1.297785e+03
2.430834e+03,1.291715e+03
2.433727e+03,1.273836e+03
2.436620e+03,1.286066e+03
2.439512e+03,1.275564e+03
2.442405e+03,1.265860e+03
2.445298e+03,1.272374e+03
2.448190e+03,1.274486e+03
2.451083e+03,1.264631e+03
2.453976e+03,1.266890e+03
2.456868e+03,1.248438e+03
2.459761e+03,1.245540e+03
2.462654e+03,1.237846e+03
2.465547e+03,1.245179e+03
2.468439e+03,1.243963e+03
2.471332e+03,1.237160e+03
2.474225e+03,1.236192e+03
2.477117e+03,1.227680e+03
2.480010e+03,1.231585e+03
2.482903e+03,1.226462e+03
2.485795e+03,1.234313e+03
2.488688e+03,1.231315e+03
2.491581e+03,1.216712e+03
2.494474e+03,1.198242e+03
2.497366e+03,1.214268e+03
2.500259e+03,1.201651e+03
2.503152e+03,1.189591e+03
2.506044e+03,1.204182e+03
2.508937e+03,1.197476e+03
2.511830e+03,1.196196e+03
2.514722e+03,1.210634e+03
2.517615e+03,1.193731e+03
2.520508e+03,1.179785e+03
2.523401e+03,1.179920e+03
2.526293e+03,1.167234e+03
2.529186e+03,1.161317e+03
2.532079e+03,1.170970e+03
2.534971e+03,1.171815e+03
2.537864e+03,1.149500e+03
2.540757e+03,1.147779e+03
2.543649e+03,1.155652e+03
2.546542e+03,1.167516e+03
2.549435e+03,1.157266e+03
2.552328e+03,1.156565e+03
2.555220e+03,1.151805e+03
2.558113e+03,1.139854e+03
2.561006e+03,1.135668e+03
2.563898e+03,1.138346e+03
2.566791e+03,1.120518e+03
2.569684e+03,1.120542e+03
2.572576e+03,1.136625e+03
2.575469e+03,1.126992e+03
2.578362e+03,1.122238e+03
2.581255e+03,1.115629e+03
2.584147e+03,1.107094e+03
2.587040e+03,1.102719e+03
2.589933e+03,1.122612e+03
2.592825e+03,1.096991e+03
2.595718e+03,1.098051e+03
2.598611e+03,1.080844e+03
2.601503e+03,1.092191e+03
2.604396e+03,1.086654e+03
2.607289e+03,1.098570e+03
2.610182e+03,1.087890e+03
2.613074e+03,1.077536e+03
2.615967e+03,1.088144e+03
2.618860e+03,1.076117e+03
2.621752e+03,1.058549e+03
2.624645e+03,1.072158e+03
2.627538e+03,1.072584e+03
2.630430e+03,1.067974e+03
2.633323e+03,1.061496e+03
2.636216e+03,1.040320e+03
2.639109e+03,1.059607e+03
2.642001e+03,1.042248e+03
2.644894e+03,1.025670e+03
2.647787e+03,1.042365e+03
2.650679e+03,1.041157e+03
2.653572e+03,1.038005e+03
2.656465e+03,1.047724e+03
2.659357e+03,1.022638e+03
2.662250e+03,1.023547e+03
2.665143e+03,1.046265e+03
2.668036e+03,1.028848e+03
2.670928e+03,1.044257e+03
2.673821e+03,1.028567e+03
2.676714e+03,1.025786e+03
2.679606e+03,1.009693e+03
2.682499e+03,1.015810e+03
2.685392e+03,9.991946e+02
2.688284e+03,1.015831e+03
2.691177e+03,1.014802e+03
2.694070e+03,9.962683e+02
2.696963e+03,9.920683e+02
2.699855e+03,1.006196e+03
2.702748e+03,1.005481e+03
2.705641e+03,9.853994e+02
2.708533e+03,9.882781e+02
2.711426e+03,1.002114e+03
2.714319e+03,9.952144e+02
2.717211e+03,9.938604e+02
2.720104e+03,9.929540e+02
2.722997e+03,9.675496e+02
2.725890e+03,9.879039e+02
2.728782e+03,9.781066e+02
2.731675e+03,9.859859e+02
2.734568e+03,9.586830e+02
2.737460e+03,9.608041e+02
2.740353e+03,9.637242e+02
2.743246e+03,9.386115e+02
2.746138e+03,9.654628e+02
2.749031e+03,9.621385e+02
2.751924e+03,9.377711e+02
2.754817e+03,9.491591e+02
2.757709e+03,9.603221e+02
2.760602e+03,9.325856e+02
2.763495e+03,9.447883e+02
2.766387e+03,9.384697e+02
2.769280e+03,9.483093e+02
2.772173e+03,9.274446e+02
2.775065e+03,9.138732e+02
2.777958e+03,9.094820e+02
2.780851e+03,9.262604e+02
2.783744e+03,9.359345e+02
2.786636e+03,9.187857e+02
2.789529e+03,9.240043e+02
2.792422e+03,9.203336e+02
2.795314e+03,9.171708e+02
2.798207e+03,9.049937e+02
2.801100e+03,9.160259e+02
2.803992e+03,9.185225e+02
2.806885e+03,9.127550e+02
2.809778e+03,9.274256e+02
2.812671e+03,9.124499e+02
2.815563e+03,9.029393e+02
2.818456e+03,9.030217e+02
2.821349e+03,8.782761e+02
2.824241e+03,9.082993e+02
2.827134e+03,9.056776e+02
2.830027e+03,8.819742e+02
2.832919e+03,8.974167e+02
2.835812e+03,9.081783e+02
2.838705e+03,9.131891e+02
2.841598e+03,8.904240e+02
2.844490e+03,9.069045e+02
2.847383e+03,9.081802e+02
2.850276e+03,8.918339e+02
2.853168e+03,9.092772e+02
2.856061e+03,8.837023e+02
2.858954e+03,8.919637e+02
2.861846e+03,8.932328e+02
2.864739e+03,8.785501e+02
2.867632e+03,8.824072e+02
2.870525e+03,8.836640e+02
2.873417e+03,8.854140e+02
2.876310e+03,9.022645e+02
2.879203e+03,8.932255e+02
2.882095e+03,8.848014e+02
2.884988e+03,8.974303e+02
2.887881e+03,9.106617e+02
2.890773e+03,8.863112e+02
2.893666e+03,8.932318e+02
2.896559e+03,9.028291e+02
2.899452e+03,8.892059e+02
2.902344e+03,8.868225e+02
2.905237e+03,8.386984e+02
2.908130e+03,8.581652e+02
2.911022e+03,8.911895e+02
2.913915e+03,8.801786e+02
2.916808e+03,8.833673e+02
2.919700e+03,8.587386e+02
2.922593e+03,8.367151e+02
2.925486e+03,8.546605e+02
2.928379e+03,8.300510e+02
2.931271e+03,8.435074e+02
2.934164e+03,8.486254e+02
2.937057e+03,8.333055e+02
2.939949e+03,8.481930e+02
2.942842e+03,8.462826e+02
2.945735e+03,8.449905e+02
2.948627e+03,8.249853e+02
2.951520e+03,8.287978e+02
2.954413e+03,8.396872e+02
2.957306e+03,8.849046e+02
2.960198e+03,8.364708e+02
2.963091e+03,8.108075e+02
2.965984e+03,8.378864e+02
2.968876e+03,8.341523e+02
2.971769e+03,8.069395e+02
2.974662e+03,7.908917e+02
2.977554e+03,8.192112e+02
2.980447e+03,7.922015e+02
2.983340e+03,7.984507e+02
2.986233e+03,7.724643e+02
2.989125e+03,7.967431e+02
2.992018e+03,8.040327e+02
2.994911e+03,7.705118e+02
2.997803e+03,8.006039e+02
3.000696e+03,7.819355e+02
3.003589e+03,7.948310e+02
3.006481e+03,7.901345e+02
3.009374e+03,8.055516e+02
3.012267e+03,7.719912e+02
3.015160e+03,7.753762e+02
3.018052e+03,7.555320e+02
3.020945e+03,8.051456e+02
3.023838e+03,7.715199e+02
3.026730e+03,7.707201e+02
3.029623e+03,7.676158e+02
3.032516e+03,7.417054e+02
3.035408e+03,7.627380e+02
3.038301e+03,8.140012e+02
3.041194e+03,7.352582e+02
3.044087e+03,7.792753e+02
3.046979e+03,7.822418e+02
3.049872e+03,7.832752e+02
3.052765e+03,7.808199e+02
3.055657e+03,7.435543e+02
3.058550e+03,7.636335e+02
3.061443e+03,7.704212e+02
3.064335e+03,7.250079e+02
3.067228e+03,7.505494e+02
3.070121e+03,7.492418e+02
3.073014e+03,7.557670e+02
3.075906e+03,7.672855e+02
3.078799e+03,7.315219e+02
3.081692e+03,7.450648e+02
3.084584e+03,7.512546e+02
3.087477e+03,7.579130e+02
3.090370e+03,7.516511e+02
3.093262e+03,7.553652e+02
3.096155e+03,7.353826e+02
3.099048e+03,7.694202e+02
3.101941e+03,7.616844e+02
3.104833e+03,7.463084e+02
3.107726e+03,7.936637e+02
3.110619e+03,7.290094e+02
3.113511e+03,7.508836e+02
3.116404e+03,7.665051e+02
3.119297e+03,7.736243e+02
3.122189e+03,7.229634e+02
3.125082e+03,7.563529e+02
3.127975e+03,7.138704e+02
3.130868e+03,8.003073e+02
3.133760e+03,7.789777e+02
3.136653e+03,7.197409e+02
3.139546e+03,7.478591e+02
3.142438e+03,7.583855e+02
3.145331e+03,7.161868e+02
3.148224e+03,7.781516e+02
3.151116e+03,7.521144e+02
3.154009e+03,7.466925e+02
3.156902e+03,7.655839e+02
3.159795e+03,6.924317e+02
3.162687e+03,7.617882e+02
3.165580e+03,7.568998e+02
3.168473e+03,7.797449e+02
3.171365e+03,7.249328e+02
3.174258e+03,7.560649e+02
3.177151e+03,7.422745e+02
3.180043e+03,7.710545e+02
3.182936e+03,7.506381e+02
3.185829e+03,7.248121e+02
3.188722e+03,7.691182e+02
3.191614e+03,7.767300e+02
3.194507e+03,7.843194e+02
3.197400e+03,7.250216e+02
3.200292e+03,7.586008e+02
3.203185e+03,0.000000e+00
3.206078e+03,0.000000e+00
3.208970e+03,0.000000e+00
3.211863e+03,0.000000e+00
3.214756e+03,0.000000e+00
3.217649e+03,0.000000e+00
3.220541e+03,0.000000e+00
3.223434e+03,0.000000e+00
3.226327e+03,0.000000e+00
3.229219e+03,0.000000e+00
3.232112e+03,0.000000e+00
3.235005e+03,0.000000e+00
3.237897e+03,0.000000e+00
3.240790e+03,0.000000e+00
3.243683e+03,0.000000e+00
3.246576e+03,0.000000e+00
3.249468e+03,0.000000e+00
3.252361e+03,0.000000e+00
3.255254e+03,0.000000e+00
3.258146e+03,0.000000e+00
3.261039e+03,0.000000e+00
3.263932e+03,0.000000e+00
3.266824e+03,0.000000e+00
3.269717e+03,0.000000e+00
3.272610e+03,0.000000e+00
3.275503e+03,0.000000e+00
3.278395e+03,0.000000e+00
3.281288e+03,0.000000e+00
3.284181e+03,0.000000e+00
3.287073e+03,0.000000e+00
3.289966e+03,0.000000e+00
3.292859e+03,0.000000e+00
3.295751e+03,0.000000e+00
3.298644e+03,0.000000e+00
3.301537e+03,0.000000e+00
3.304430e+03,0.000000e+00
3.307322e+03,0.000000e+00
3.310215e+03,0.000000e+00
3.313108e+03,0.000000e+00
3.316000e+03,0.000000e+00
3.318893e+03,0.000000e+00
3.321786e+03,0.000000e+00
3.324678e+03,0.000000e+00
3.327571e+03,0.000000e+00
3.330464e+03,0.000000e+00
3.333357e+03,0.000000e+00
3.336249e+03,0.000000e+00
3.339142e+03,0.000000e+00
3.342035e+03,0.000000e+00
3.344927e+03,0.000000e+00
3.347820e+03,0.000000e+00
3.350713e+03,0.000000e+00
3.353605e+03,0.000000e+00
3.356498e+03,0.000000e+00
3.359391e+03,0.000000e+00
3.362284e+03,0.000000e+00
3.365176e+03,0.000000e+00
3.368069e+03,0.000000e+00
3.370962e+03,0.000000e+00
3.373854e+03,0.000000e+00
3.376747e+03,0.000000e+00
3.379640e+03,0.000000e+00
3.382532e+03,0.000000e+00
3.385425e+03,0.000000e+00
3.388318e+03,0.000000e+00
3.391211e+03,0.000000e+00
3.394103e+03,0.000000e+00
3.396996e+03,0.000000e+00
3.399889e+03,0.000000e+00
3.402781e+03,0.000000e+00
3.405674e+03,0.000000e+00
3.408567e+03,0.000000e+00
3.411459e+03,0.000000e+00
3.414352e+03,0.000000e+00
3.417245e+03,0.000000e+00
3.420138e+03,0.000000e+00
3.423030e+03,0.000000e+00
3.425923e+03,0.000000e+00
3.428816e+03,0.000000e+00
3.431708e+03,0.000000e+00
3.434601e+03,0.000000e+00
3.437494e+03,0.000000e+00
3.440386e+03,0.000000e+00
3.443279e+03,0.000000e+00
3.446172e+03,0.000000e+00
3.449065e+03,0.000000e+00
3.451957e+03,0.000000e+00
3.454850e+03,0.000000e+00
3.457743e+03,0.000000e+00
3.460635e+03,0.000000e+00
3.463528e+03,0.000000e+00
3.466421e+03,0.000000e+00
3.469313e+03,0.000000e+00
3.472206e+03,0.000000e+00
3.475099e+03,0.000000e+00
3.477992e+03,0.000000e+00
3.480884e+03,0.000000e+00
3.483777e+03,0.000000e+00
3.486670e+03,0.000000e+00
3.489563e+03,0.000000e+00
3.492455e+03,0.000000e+00
3.495348e+03,0.000000e+00
3.498240e+03,0.000000e+00
3.500169e+03,0.000000e+00