File: RAMAN_data/06022023_r2/blue fibre2.CSV
9.931763e+01,0.000000e+00
1.022103e+02,0.000000e+00
1.051030e+02,0.000000e+00
1.079957e+02,0.000000e+00
1.108884e+02,0.000000e+00
1.137811e+02,0.000000e+00
1.166738e+02,0.000000e+00
1.195665e+02,0.000000e+00
1.224592e+02,0.000000e+00
1.253519e+02,0.000000e+00
1.282446e+02,0.000000e+00
1.311373e+02,0.000000e+00
1.340300e+02,0.000000e+00
1.369227e+02,0.000000e+00
1.398154e+02,0.000000e+00
1.427081e+02,0.000000e+00
1.456008e+02,0.000000e+00
1.484935e+02,0.000000e+00
1.513862e+02,0.000000e+00
1.542789e+02,0.000000e+00
1.571716e+02,0.000000e+00
1.600643e+02,0.000000e+00
1.629570e+02,0.000000e+00
1.658497e+02,0.000000e+00
1.687424e+02,0.000000e+00
1.716351e+02,0.000000e+00
1.745278e+02,0.000000e+00
1.774205e+02,0.000000e+00
1.803132e+02,0.000000e+00
1.832059e+02,0.000000e+00
1.860986e+02,0.000000e+00
1.889913e+02,0.000000e+00
1.918840e+02,0.000000e+00
1.947767e+02,0.000000e+00
1.976694e+02,0.000000e+00
2.005621e+02,2.030773e+03
2.034548e+02,2.032616e+03
2.063475e+02,2.042319e+03
2.092402e+02,2.045293e+03
2.121329e+02,2.042356e+03
2.150256e+02,2.035187e+03
2.179183e+02,2.052377e+03
2.208110e+02,2.060600e+03
2.237037e+02,2.054457e+03
2.265964e+02,2.049426e+03
2.294892e+02,2.050775e+03
2.323819e+02,2.053790e+03
2.352746e+02,2.065285e+03
2.381673e+02,2.069355e+03
2.410600e+02,2.052588e+03
2.439527e+02,2.065696e+03
2.468454e+02,2.077652e+03
2.497381e+02,2.066588e+03
2.526308e+02,2.082245e+03
2.555235e+02,2.082544e+03
2.584161e+02,2.081874e+03
2.613088e+02,2.095126e+03
2.642015e+02,2.097951e+03
2.670942e+02,2.096734e+03
2.699869e+02,2.099862e+03
2.728796e+02,2.100946e+03
2.757723e+02,2.099597e+03
2.786650e+02,2.094860e+03
2.815577e+02,2.103926e+03
2.844504e+02,2.106032e+03
2.873431e+02,2.106706e+03
2.902358e+02,2.101033e+03
2.931285e+02,2.115760e+03
2.960212e+02,2.101345e+03
2.989139e+02,2.115917e+03
3.018066e+02,2.122119e+03
3.046993e+02,2.118128e+03
3.075920e+02,2.118088e+03
3.104847e+02,2.117802e+03
3.133774e+02,2.127500e+03
3.162701e+02,2.126702e+03
3.191628e+02,2.127321e+03
3.220555e+02,2.133161e+03
3.249482e+02,2.132767e+03
3.278409e+02,2.135992e+03
3.307336e+02,2.144660e+03
3.336263e+02,2.136985e+03
3.365190e+02,2.123705e+03
3.394117e+02,2.130837e+03
3.423044e+02,2.135728e+03
3.451971e+02,2.134707e+03
3.480898e+02,2.138853e+03
3.509825e+02,2.141748e+03
3.538752e+02,2.131893e+03
3.567680e+02,2.136387e+03
3.596607e+02,2.143848e+03
3.625534e+02,2.135383e+03
3.654461e+02,2.129907e+03
3.683388e+02,2.145863e+03
3.712315e+02,2.159873e+03
3.741242e+02,2.153620e+03
3.770169e+02,2.168737e+03
3.799096e+02,2.167350e+03
3.828023e+02,2.156486e+03
3.856950e+02,2.150153e+03
3.885877e+02,2.152996e+03
3.914804e+02,2.144259e+03
3.943731e+02,2.148118e+03
3.972658e+02,2.160764e+03
4.001585e+02,2.154298e+03
4.030512e+02,2.152706e+03
4.059439e+02,2.156182e+03
4.088366e+02,2.147173e+03
4.117293e+02,2.141783e+03
4.146220e+02,2.146606e+03
4.175147e+02,2.142448e+03
4.204074e+02,2.149875e+03
4.233001e+02,2.144281e+03
4.261928e+02,2.161911e+03
4.290855e+02,2.157329e+03
4.319782e+02,2.166727e+03
4.348709e+02,2.174424e+03
4.377636e+02,2.166208e+03
4.406563e+02,2.144118e+03
4.435490e+02,2.147131e+03
4.464417e+02,2.168508e+03
4.493344e+02,2.161746e+03
4.522271e+02,2.177212e+03
4.551198e+02,2.165943e+03
4.580125e+02,2.169657e+03
4.609052e+02,2.170899e+03
4.637979e+02,2.143180e+03
4.666906e+02,2.140250e+03
4.695833e+02,2.152956e+03
4.724760e+02,2.145391e+03
4.753687e+02,2.143911e+03
4.782614e+02,2.152426e+03
4.811541e+02,2.163866e+03
4.840468e+02,2.179388e+03
4.869395e+02,2.170910e+03
4.898322e+02,2.176817e+03
4.927249e+02,2.170417e+03
4.956176e+02,2.166632e+03
4.985103e+02,2.172774e+03
5.014030e+02,2.161951e+03
5.042957e+02,2.144379e+03
5.071884e+02,2.126844e+03
5.100811e+02,2.142478e+03
5.129738e+02,2.146535e+03
5.158665e+02,2.164023e+03
5.187592e+02,2.146286e+03
5.216519e+02,2.136167e+03
5.245446e+02,2.140130e+03
5.274373e+02,2.129359e+03
5.303300e+02,2.130165e+03
5.332227e+02,2.116125e+03
5.361154e+02,2.124378e+03
5.390081e+02,2.120310e+03
5.419008e+02,2.113989e+03
5.447935e+02,2.120202e+03
5.476862e+02,2.122842e+03
5.505789e+02,2.115915e+03
5.534716e+02,2.101696e+03
5.563643e+02,2.118640e+03
5.592570e+02,2.122126e+03
5.621497e+02,2.129816e+03
5.650424e+02,2.121373e+03
5.679351e+02,2.109039e+03
5.708278e+02,2.100190e+03
5.737205e+02,2.109716e+03
5.766132e+02,2.101558e+03
5.795059e+02,2.107036e+03
5.823986e+02,2.098064e+03
5.852913e+02,2.110897e+03
5.881840e+02,2.103472e+03
5.910767e+02,2.115068e+03
5.939694e+02,2.117680e+03
5.968621e+02,2.105065e+03
5.997548e+02,2.099469e+03
6.026475e+02,2.121286e+03
6.055402e+02,2.108763e+03
6.084329e+02,2.111592e+03
6.113256e+02,2.112421e+03
6.142183e+02,2.096344e+03
6.171110e+02,2.096192e+03
6.200037e+02,2.093191e+03
6.228964e+02,2.089075e+03
6.257891e+02,2.093569e+03
6.286818e+02,2.085979e+03
6.315745e+02,2.087718e+03
6.344672e+02,2.085826e+03
6.373599e+02,2.071104e+03
6.402526e+02,2.094490e+03
6.431453e+02,2.089773e+03
6.460380e+02,2.077729e+03
6.489307e+02,2.076497e+03
6.518234e+02,2.065726e+03
6.547161e+02,2.069036e+03
6.576088e+02,2.068805e+03
6.605015e+02,2.065707e+03
6.633942e+02,2.071045e+03
6.662869e+02,2.054227e+03
6.691796e+02,2.063232e+03
6.720723e+02,2.050427e+03
6.749650e+02,2.053946e+03
6.778577e+02,2.038384e+03
6.807504e+02,2.044299e+03
6.836431e+02,2.048350e+03
6.865358e+02,2.041042e+03
6.894285e+02,2.039456e+03
6.923212e+02,2.052517e+03
6.952139e+02,2.039224e+03
6.981066e+02,2.034238e+03
7.009993e+02,2.041408e+03
7.038920e+02,2.031292e+03
7.067847e+02,2.023383e+03
7.096774e+02,2.028219e+03
7.125701e+02,2.037975e+03
7.154628e+02,2.029442e+03
7.183555e+02,2.027380e+03
7.212482e+02,2.028768e+03
7.241409e+02,2.021172e+03
7.270336e+02,2.023817e+03
7.299263e+02,2.026485e+03
7.328190e+02,2.012912e+03
7.357117e+02,2.020918e+03
7.386044e+02,2.000720e+03
7.414971e+02,2.008691e+03
7.443898e+02,2.012291e+03
7.472825e+02,2.015595e+03
7.501752e+02,1.998274e+03
7.530679e+02,2.001959e+03
7.559606e+02,1.995738e+03
7.588533e+02,1.992227e+03
7.617460e+02,1.988401e+03
7.646387e+02,1.998901e+03
7.675314e+02,1.993885e+03
7.704241e+02,1.984771e+03
7.733168e+02,1.976380e+03
7.762095e+02,1.983173e+03
7.791022e+02,1.974434e+03
7.819949e+02,1.968479e+03
7.848876e+02,1.972348e+03
7.877803e+02,1.973473e+03
7.906730e+02,1.978007e+03
7.935657e+02,1.967222e+03
7.964584e+02,1.963630e+03
7.993511e+02,1.958889e+03
8.022438e+02,1.956730e+03
8.051365e+02,1.950830e+03
8.080292e+02,1.973242e+03
8.109219e+02,1.957602e+03
8.138146e+02,1.952895e+03
8.167073e+02,1.950176e+03
8.196000e+02,1.943081e+03
8.224927e+02,1.941692e+03
8.253854e+02,1.954020e+03
8.282781e+02,1.955771e+03
8.311708e+02,1.936721e+03
8.340635e+02,1.941416e+03
8.369562e+02,1.942003e+03
8.398489e+02,1.939798e+03
8.427416e+02,1.936507e+03
8.456343e+02,1.916544e+03
8.485270e+02,1.920829e+03
8.514197e+02,1.917055e+03
8.543124e+02,1.925642e+03
8.572051e+02,1.923630e+03
8.600978e+02,1.911348e+03
8.629905e+02,1.913178e+03
8.658832e+02,1.900790e+03
8.687759e+02,1.899669e+03
8.716686e+02,1.916036e+03
8.745613e+02,1.897627e+03
8.774540e+02,1.901871e+03
8.803467e+02,1.911430e+03
8.832394e+02,1.895074e+03
8.861321e+02,1.898755e+03
8.890248e+02,1.912788e+03
8.919175e+02,1.884664e+03
8.948102e+02,1.888011e+03
8.977029e+02,1.898392e+03
9.005956e+02,1.891331e+03
9.034883e+02,1.880887e+03
9.063810e+02,1.872144e+03
9.092737e+02,1.868486e+03
9.121664e+02,1.853343e+03
9.150591e+02,1.880202e+03
9.179518e+02,1.874802e+03
9.208445e+02,1.842049e+03
9.237372e+02,1.851376e+03
9.266299e+02,1.848495e+03
9.295226e+02,1.854048e+03
9.324153e+02,1.851708e+03
9.353080e+02,1.851636e+03
9.382007e+02,1.835278e+03
9.410934e+02,1.833869e+03
9.439861e+02,1.829356e+03
9.468788e+02,1.834117e+03
9.497715e+02,1.831544e+03
9.526642e+02,1.818127e+03
9.555569e+02,1.822229e+03
9.584496e+02,1.818701e+03
9.613423e+02,1.820450e+03
9.642350e+02,1.818829e+03
9.671277e+02,1.818551e+03
9.700204e+02,1.812720e+03
9.729131e+02,1.803339e+03
9.758058e+02,1.813781e+03
9.786985e+02,1.804763e+03
9.815912e+02,1.799699e+03
9.844839e+02,1.792536e+03
9.873766e+02,1.799297e+03
9.902693e+02,1.793720e+03
9.931620e+02,1.797437e+03
9.960547e+02,1.788793e+03
9.989474e+02,1.782915e+03
1.001840e+03,1.787941e+03
1.004733e+03,1.782180e+03
1.007626e+03,1.784441e+03
1.010518e+03,1.783814e+03
1.013411e+03,1.779605e+03
1.016304e+03,1.761635e+03
1.019196e+03,1.767627e+03
1.022089e+03,1.761890e+03
1.024982e+03,1.765803e+03
1.027875e+03,1.741848e+03
1.030767e+03,1.753929e+03
1.033660e+03,1.762667e+03
1.036552e+03,1.748750e+03
1.039445e+03,1.756492e+03
1.042338e+03,1.754763e+03
1.045231e+03,1.752735e+03
1.048123e+03,1.751476e+03
1.051016e+03,1.738104e+03
1.053909e+03,1.749158e+03
1.056802e+03,1.728124e+03
1.059694e+03,1.745223e+03
1.062587e+03,1.740885e+03
1.065479e+03,1.731294e+03
1.068372e+03,1.733055e+03
1.071265e+03,1.728766e+03
1.074158e+03,1.742523e+03
1.077050e+03,1.725452e+03
1.079943e+03,1.727056e+03
1.082836e+03,1.740642e+03
1.085729e+03,1.732256e+03
1.088621e+03,1.736566e+03
1.091514e+03,1.751948e+03
1.094406e+03,1.749567e+03
1.097299e+03,1.741098e+03
1.100192e+03,1.732928e+03
1.103085e+03,1.722294e+03
1.105977e+03,1.727129e+03
1.108870e+03,1.722951e+03
1.111763e+03,1.718621e+03
1.114656e+03,1.742446e+03
1.117548e+03,1.745149e+03
1.120441e+03,1.732999e+03
1.123334e+03,1.731898e+03
1.126226e+03,1.726483e+03
1.129119e+03,1.723209e+03
1.132012e+03,1.713494e+03
1.134904e+03,1.714131e+03
1.137797e+03,1.705313e+03
1.140690e+03,1.697073e+03
1.143583e+03,1.692038e+03
1.146475e+03,1.708578e+03
1.149368e+03,1.704414e+03
1.152261e+03,1.706961e+03
1.155153e+03,1.694875e+03
1.158046e+03,1.700125e+03
1.160939e+03,1.671266e+03
1.163831e+03,1.654611e+03
1.166724e+03,1.643780e+03
1.169617e+03,1.639485e+03
1.172510e+03,1.640641e+03
1.175402e+03,1.642265e+03
1.178295e+03,1.656245e+03
1.181188e+03,1.652090e+03
1.184080e+03,1.641784e+03
1.186973e+03,1.631427e+03
1.189866e+03,1.635861e+03
1.192758e+03,1.629507e+03
1.195651e+03,1.635043e+03
1.198544e+03,1.625186e+03
1.201437e+03,1.619151e+03
1.204329e+03,1.607863e+03
1.207222e+03,1.623446e+03
1.210115e+03,1.624299e+03
1.213007e+03,1.624657e+03
1.215900e+03,1.617265e+03
1.218793e+03,1.605799e+03
1.221685e+03,1.600967e+03
1.224578e+03,1.601223e+03
1.227471e+03,1.598745e+03
1.230364e+03,1.597271e+03
1.233256e+03,1.589727e+03
1.236149e+03,1.588463e+03
1.239042e+03,1.587935e+03
1.241934e+03,1.584572e+03
1.244827e+03,1.581992e+03
1.247720e+03,1.581999e+03
1.250612e+03,1.576203e+03
1.253505e+03,1.570007e+03
1.256398e+03,1.566526e+03
1.259291e+03,1.576121e+03
1.262183e+03,1.562643e+03
1.265076e+03,1.564379e+03
1.267969e+03,1.573936e+03
1.270861e+03,1.571327e+03
1.273754e+03,1.578158e+03
1.276647e+03,1.585554e+03
1.279539e+03,1.588278e+03
1.282432e+03,1.584287e+03
1.285325e+03,1.588033e+03
1.288218e+03,1.576054e+03
1.291110e+03,1.567976e+03
1.294003e+03,1.567756e+03
1.296896e+03,1.551864e+03
1.299788e+03,1.544597e+03
1.302681e+03,1.546365e+03
1.305574e+03,1.540106e+03
1.308466e+03,1.539612e+03
1.311359e+03,1.529486e+03
1.314252e+03,1.536004e+03
1.317145e+03,1.542992e+03
1.320037e+03,1.533690e+03
1.322930e+03,1.540089e+03
1.325823e+03,1.530707e+03
1.328715e+03,1.525155e+03
1.331608e+03,1.526539e+03
1.334501e+03,1.549800e+03
1.337393e+03,1.544925e+03
1.340286e+03,1.543410e+03
1.343179e+03,1.528030e+03
1.346072e+03,1.529631e+03
1.348964e+03,1.536820e+03
1.351857e+03,1.528920e+03
1.354750e+03,1.517965e+03
1.357642e+03,1.512644e+03
1.360535e+03,1.497993e+03
1.363428e+03,1.502771e+03
1.366320e+03,1.499015e+03
1.369213e+03,1.502996e+03
1.372106e+03,1.509062e+03
1.374999e+03,1.497239e+03
1.377891e+03,1.481154e+03
1.380784e+03,1.483252e+03
1.383677e+03,1.488257e+03
1.386569e+03,1.473717e+03
1.389462e+03,1.477409e+03
1.392355e+03,1.463853e+03
1.395247e+03,1.461232e+03
1.398140e+03,1.468889e+03
1.401033e+03,1.448382e+03
1.403926e+03,1.444687e+03
1.406818e+03,1.452088e+03
1.409711e+03,1.456088e+03
1.412604e+03,1.460388e+03
1.415496e+03,1.452602e+03
1.418389e+03,1.444083e+03
1.421282e+03,1.434078e+03
1.424174e+03,1.438023e+03
1.427067e+03,1.438853e+03
1.429960e+03,1.420466e+03
1.432853e+03,1.431632e+03
1.435745e+03,1.419705e+03
1.438638e+03,1.409974e+03
1.441531e+03,1.402994e+03
1.444423e+03,1.403116e+03
1.447316e+03,1.407125e+03
1.450209e+03,1.400163e+03
1.453101e+03,1.394449e+03
1.455994e+03,1.395201e+03
1.458887e+03,1.390354e+03
1.461780e+03,1.387751e+03
1.464672e+03,1.395166e+03
1.467565e+03,1.377464e+03
1.470458e+03,1.395542e+03
1.473350e+03,1.384489e+03
1.476243e+03,1.383500e+03
1.479136e+03,1.382101e+03
1.482028e+03,1.381105e+03
1.484921e+03,1.372862e+03
1.487814e+03,1.379558e+03
1.490707e+03,1.371567e+03
1.493599e+03,1.364898e+03
1.496492e+03,1.362265e+03
1.499385e+03,1.357455e+03
1.502277e+03,1.352886e+03
1.505170e+03,1.355574e+03
1.508063e+03,1.358576e+03
1.510955e+03,1.351191e+03
1.513848e+03,1.344460e+03
1.516741e+03,1.346508e+03
1.519634e+03,1.335927e+03
1.522526e+03,1.340094e+03
1.525419e+03,1.340660e+03
1.528312e+03,1.329726e+03
1.531204e+03,1.329700e+03
1.534097e+03,1.323566e+03
1.536990e+03,1.328022e+03
1.539882e+03,1.328005e+03
1.542775e+03,1.331965e+03
1.545668e+03,1.320908e+03
1.548561e+03,1.319931e+03
1.551453e+03,1.337285e+03
1.554346e+03,1.326659e+03
1.557239e+03,1.332131e+03
1.560131e+03,1.318041e+03
1.563024e+03,1.319154e+03
1.565917e+03,1.320699e+03
1.568809e+03,1.332489e+03
1.571702e+03,1.321965e+03
1.574595e+03,1.325487e+03
1.577488e+03,1.321822e+03
1.580380e+03,1.326438e+03
1.583273e+03,1.331054e+03
1.586166e+03,1.333662e+03
1.589058e+03,1.319635e+03
1.591951e+03,1.319005e+03
1.594844e+03,1.301225e+03
1.597736e+03,1.293350e+03
1.600629e+03,1.285727e+03
1.603522e+03,1.283709e+03
1.606415e+03,1.286813e+03
1.609307e+03,1.293949e+03
1.612200e+03,1.282669e+03
1.615093e+03,1.284724e+03
1.617985e+03,1.276023e+03
1.620878e+03,1.269946e+03
1.623771e+03,1.260343e+03
1.626663e+03,1.255523e+03
1.629556e+03,1.257235e+03
1.632449e+03,1.255229e+03
1.635342e+03,1.257472e+03
1.638234e+03,1.249394e+03
1.641127e+03,1.238308e+03
1.644020e+03,1.246876e+03
1.646912e+03,1.239257e+03
1.649805e+03,1.244779e+03
1.652698e+03,1.241560e+03
1.655590e+03,1.227577e+03
1.658483e+03,1.232471e+03
1.661376e+03,1.231965e+03
1.664269e+03,1.218316e+03
1.667161e+03,1.222007e+03
1.670054e+03,1.212082e+03
1.672947e+03,1.221747e+03
1.675839e+03,1.221596e+03
1.678732e+03,1.207668e+03
1.681625e+03,1.205977e+03
1.684517e+03,1.211179e+03
1.687410e+03,1.217960e+03
1.690303e+03,1.211875e+03
1.693196e+03,1.203831e+03
1.696088e+03,1.191379e+03
1.698981e+03,1.196905e+03
1.701874e+03,1.193213e+03
1.704766e+03,1.189948e+03
1.707659e+03,1.195171e+03
1.710552e+03,1.207304e+03
1.713444e+03,1.195406e+03
1.716337e+03,1.180322e+03
1.719230e+03,1.188610e+03
1.722123e+03,1.186230e+03
1.725015e+03,1.170836e+03
1.727908e+03,1.179192e+03
1.730801e+03,1.176503e+03
1.733693e+03,1.165923e+03
1.736586e+03,1.176448e+03
1.739479e+03,1.158377e+03
1.742371e+03,1.158434e+03
1.745264e+03,1.154344e+03
1.748157e+03,1.161129e+03
1.751050e+03,1.164821e+03
1.753942e+03,1.157978e+03
1.756835e+03,1.150588e+03
1.759728e+03,1.136629e+03
1.762620e+03,1.143345e+03
1.765513e+03,1.135523e+03
1.768406e+03,1.150933e+03
1.771298e+03,1.144600e+03
1.774191e+03,1.129073e+03
1.777084e+03,1.140457e+03
1.779977e+03,1.128692e+03
1.782869e+03,1.131057e+03
1.785762e+03,1.132608e+03
1.788655e+03,1.127649e+03
1.791547e+03,1.123667e+03
1.794440e+03,1.111119e+03
1.797333e+03,1.116952e+03
1.800225e+03,1.120497e+03
1.803118e+03,1.119071e+03
1.806011e+03,1.112001e+03
1.808904e+03,1.101695e+03
1.811796e+03,1.118401e+03
1.814689e+03,1.114302e+03
1.817582e+03,1.107406e+03
1.820474e+03,1.102961e+03
1.823367e+03,1.097444e+03
1.826260e+03,1.092108e+03
1.829152e+03,1.084850e+03
1.832045e+03,1.092339e+03
1.834938e+03,1.090627e+03
1.837831e+03,1.076406e+03
1.840723e+03,1.069872e+03
1.843616e+03,1.081326e+03
1.846509e+03,1.085508e+03
1.849401e+03,1.081679e+03
1.852294e+03,1.067639e+03
1.855187e+03,1.069209e+03
1.858079e+03,1.068114e+03
1.860972e+03,1.071499e+03
1.863865e+03,1.066989e+03
1.866758e+03,1.051687e+03
1.869650e+03,1.067457e+03
1.872543e+03,1.047155e+03
1.875436e+03,1.054725e+03
1.878328e+03,1.047131e+03
1.881221e+03,1.048821e+03
1.884114e+03,1.044344e+03
1.887006e+03,1.038016e+03
1.889899e+03,1.047226e+03
1.892792e+03,1.050378e+03
1.895685e+03,1.032982e+03
1.898577e+03,1.029330e+03
1.901470e+03,1.037020e+03
1.904363e+03,1.029738e+03
1.907255e+03,1.027898e+03
1.910148e+03,1.039719e+03
1.913041e+03,1.028761e+03
1.915933e+03,1.019678e+03
1.918826e+03,1.016228e+03
1.921719e+03,1.010976e+03
1.924612e+03,1.009882e+03
1.927504e+03,1.002693e+03
1.930397e+03,9.959096e+02
1.933290e+03,1.012770e+03
1.936182e+03,1.012237e+03
1.939075e+03,9.948358e+02
1.941968e+03,9.853398e+02
1.944860e+03,9.929098e+02
1.947753e+03,9.881712e+02
1.950646e+03,9.993284e+02
1.953539e+03,9.921960e+02
1.956431e+03,9.760823e+02
1.959324e+03,9.797495e+02
1.962217e+03,9.731411e+02
1.965109e+03,9.603150e+02
1.968002e+03,9.702113e+02
1.970895e+03,9.747545e+02
1.973787e+03,9.717453e+02
1.976680e+03,9.781472e+02
1.979573e+03,9.510776e+02
1.982466e+03,9.442918e+02
1.985358e+03,9.602471e+02
1.988251e+03,9.564754e+02
1.991144e+03,9.445761e+02
1.994036e+03,9.534086e+02
1.996929e+03,9.521671e+02
1.999822e+03,9.503405e+02
2.002714e+03,9.543331e+02
2.005607e+03,9.504366e+02
2.008500e+03,9.348788e+02
2.011393e+03,9.402955e+02
2.014285e+03,9.398405e+02
2.017178e+03,9.350801e+02
2.020071e+03,9.248215e+02
2.022963e+03,9.239468e+02
2.025856e+03,9.253535e+02
2.028749e+03,9.093813e+02
2.031641e+03,9.165828e+02
2.034534e+03,9.222234e+02
2.037427e+03,9.063087e+02
2.040320e+03,9.088302e+02
2.043212e+03,9.078942e+02
2.046105e+03,9.130128e+02
2.048998e+03,8.994073e+02
2.051890e+03,8.928467e+02
2.054783e+03,8.966271e+02
2.057676e+03,8.879349e+02
2.060568e+03,8.897947e+02
2.063461e+03,8.911984e+02
2.066354e+03,8.865032e+02
2.069247e+03,8.872304e+02
2.072139e+03,8.730959e+02
2.075032e+03,8.826004e+02
2.077925e+03,8.716047e+02
2.080817e+03,8.874208e+02
2.083710e+03,8.748077e+02
2.086603e+03,8.661234e+02
2.089496e+03,8.742805e+02
2.092388e+03,8.601163e+02
2.095281e+03,8.708005e+02
2.098174e+03,8.664783e+02
2.101066e+03,8.485339e+02
2.103959e+03,8.535154e+02
2.106852e+03,8.457599e+02
2.109744e+03,8.526991e+02
2.112637e+03,8.466611e+02
2.115530e+03,8.393981e+02
2.118422e+03,8.306833e+02
2.121315e+03,8.440572e+02
2.124208e+03,8.480371e+02
2.127101e+03,8.289976e+02
2.129993e+03,8.352877e+02
2.132886e+03,8.327478e+02
2.135779e+03,8.286541e+02
2.138671e+03,8.159876e+02
2.141564e+03,8.192365e+02
2.144457e+03,8.214486e+02
2.147350e+03,8.027382e+02
2.150242e+03,8.029940e+02
2.153135e+03,8.197339e+02
2.156028e+03,8.121268e+02
2.158920e+03,8.071851e+02
2.161813e+03,8.105480e+02
2.164706e+03,8.019777e+02
2.167598e+03,7.994509e+02
2.170491e+03,8.104267e+02
2.173384e+03,8.000093e+02
2.176277e+03,7.830405e+02
2.179169e+03,7.859860e+02
2.182062e+03,7.885670e+02
2.184955e+03,7.994280e+02
2.187847e+03,7.831675e+02
2.190740e+03,7.921788e+02
2.193633e+03,7.770908e+02
2.196525e+03,7.802302e+02
2.199418e+03,7.768214e+02
2.202311e+03,7.814340e+02
2.205204e+03,7.777747e+02
2.208096e+03,7.664376e+02
2.210989e+03,7.590828e+02
2.213882e+03,7.728564e+02
2.216774e+03,7.714010e+02
2.219667e+03,7.572009e+02
2.222560e+03,7.536845e+02
2.225452e+03,7.535862e+02
2.228345e+03,7.500929e+02
2.231238e+03,7.627785e+02
2.234131e+03,7.322683e+02
2.237023e+03,7.401554e+02
2.239916e+03,7.529648e+02
2.242809e+03,7.343962e+02
2.245701e+03,7.401113e+02
2.248594e+03,7.354420e+02
2.251487e+03,7.239920e+02
2.254379e+03,7.383432e+02
2.257272e+03,7.348574e+02
2.260165e+03,7.241980e+02
2.263058e+03,7.342812e+02
2.265950e+03,7.229983e+02
2.268843e+03,7.194577e+02
2.271736e+03,7.130974e+02
2.274628e+03,7.213728e+02
2.277521e+03,7.179835e+02
2.280414e+03,7.128661e+02
2.283306e+03,7.106696e+02
2.286199e+03,6.958012e+02
2.289092e+03,6.901605e+02
2.291985e+03,6.998879e+02
2.294877e+03,6.866373e+02
2.297770e+03,7.092159e+02
2.300663e+03,6.979267e+02
2.303555e+03,6.979940e+02
2.306448e+03,6.875699e+02
2.309341e+03,6.827272e+02
2.312233e+03,6.866765e+02
2.315126e+03,6.853165e+02
2.318019e+03,7.002265e+02
2.320912e+03,6.820643e+02
2.323804e+03,6.796277e+02
2.326697e+03,6.683032e+02
2.329590e+03,6.697071e+02
2.332482e+03,6.773711e+02
2.335375e+03,6.625367e+02
2.338268e+03,6.637620e+02
2.341160e+03,6.628890e+02
2.344053e+03,6.626630e+02
2.346946e+03,6.624564e+02
2.349839e+03,6.636880e+02
2.352731e+03,6.620831e+02
2.355624e+03,6.603447e+02
2.358517e+03,6.548658e+02
2.361409e+03,6.567327e+02
2.364302e+03,6.482171e+02
2.367195e+03,6.396194e+02
2.370087e+03,6.430867e+02
2.372980e+03,6.447628e+02
2.375873e+03,6.506921e+02
2.378766e+03,6.481332e+02
2.381658e+03,6.424034e+02
2.384551e+03,6.330030e+02
2.387444e+03,6.383906e+02
2.390336e+03,6.368845e+02
2.393229e+03,6.333879e+02
2.396122e+03,6.340349e+02
2.399014e+03,6.310165e+02
2.401907e+03,6.291232e+02
2.404800e+03,6.127731e+02
2.407693e+03,6.262883e+02
2.410585e+03,6.202200e+02
2.413478e+03,6.151400e+02
2.416371e+03,6.144103e+02
2.419263e+03,6.127785e+02
2.422156e+03,6.185270e+02
2.425049e+03,6.035275e+02
2.427941e+03,6.049475e+02
2.430834e+03,5.964586e+02
2.433727e+03,6.042004e+02
2.436620e+03,6.061744e+02
2.439512e+03,6.051057e+02
2.442405e+03,6.011639e+02
2.445298e+03,5.974166e+02
2.448190e+03,5.992338e+02
2.451083e+03,6.027870e+02
2.453976e+03,5.950745e+02
2.456868e+03,5.970400e+02
2.459761e+03,5.914894e+02
2.462654e+03,5.850545e+02
2.465547e+03,5.900120e+02
2.468439e+03,5.810496e+02
2.471332e+03,5.776571e+02
2.474225e+03,5.759120e+02
2.477117e+03,5.848837e+02
2.480010e+03,5.959199e+02
2.482903e+03,5.744492e+02
2.485795e+03,5.771906e+02
2.488688e+03,5.737780e+02
2.491581e+03,5.615599e+02
2.494474e+03,5.610413e+02
2.497366e+03,5.675794e+02
2.500259e+03,5.675777e+02
2.503152e+03,5.656573e+02
2.506044e+03,5.651918e+02
2.508937e+03,5.623282e+02
2.511830e+03,5.541740e+02
2.514722e+03,5.524764e+02
2.517615e+03,5.661699e+02
2.520508e+03,5.566411e+02
2.523401e+03,5.516190e+02
2.526293e+03,5.514466e+02
2.529186e+03,5.518332e+02
2.532079e+03,5.498224e+02
2.534971e+03,5.403927e+02
2.537864e+03,5.420484e+02
2.540757e+03,5.304245e+02
2.543649e+03,5.511435e+02
2.546542e+03,5.458189e+02
2.549435e+03,5.438707e+02
2.552328e+03,5.475333e+02
2.555220e+03,5.648896e+02
2.558113e+03,5.376067e+02
2.561006e+03,5.434711e+02
2.563898e+03,5.393694e+02
2.566791e+03,5.325706e+02
2.569684e+03,5.314901e+02
2.572576e+03,5.263304e+02
2.575469e+03,5.378594e+02
2.578362e+03,5.267258e+02
2.581255e+03,5.234263e+02
2.584147e+03,5.158295e+02
2.587040e+03,5.130046e+02
2.589933e+03,5.272341e+02
2.592825e+03,5.160660e+02
2.595718e+03,5.193275e+02
2.598611e+03,5.077175e+02
2.601503e+03,5.091178e+02
2.604396e+03,5.109973e+02
2.607289e+03,5.133572e+02
2.610182e+03,5.171647e+02
2.613074e+03,5.106666e+02
2.615967e+03,5.014528e+02
2.618860e+03,5.038228e+02
2.621752e+03,5.124652e+02
2.624645e+03,5.026474e+02
2.627538e+03,5.025195e+02
2.630430e+03,4.982781e+02
2.633323e+03,5.087176e+02
2.636216e+03,4.970810e+02
2.639109e+03,4.899151e+02
2.642001e+03,4.989765e+02
2.644894e+03,5.072219e+02
2.647787e+03,4.804480e+02
2.650679e+03,4.807555e+02
2.653572e+03,5.051486e+02
2.656465e+03,4.879703e+02
2.659357e+03,4.942542e+02
2.662250e+03,4.758498e+02
2.665143e+03,5.010759e+02
2.668036e+03,4.788676e+02
2.670928e+03,4.904092e+02
2.673821e+03,4.837815e+02
2.676714e+03,4.768524e+02
2.679606e+03,4.807401e+02
2.682499e+03,4.800775e+02
2.685392e+03,4.919121e+02
2.688284e+03,4.837662e+02
2.691177e+03,4.756858e+02
2.694070e+03,4.711120e+02
2.696963e+03,4.773739e+02
2.699855e+03,4.640982e+02
2.702748e+03,4.681322e+02
2.705641e+03,4.633814e+02
2.708533e+03,4.629995e+02
2.711426e+03,4.679669e+02
2.714319e+03,4.777716e+02
2.717211e+03,4.693617e+02
2.720104e+03,4.631537e+02
2.722997e+03,4.647939e+02
2.725890e+03,4.580793e+02
2.728782e+03,4.674050e+02
2.731675e+03,4.568914e+02
2.734568e+03,4.651450e+02
2.737460e+03,4.582198e+02
2.740353e+03,4.606041e+02
2.743246e+03,4.572511e+02
2.746138e+03,4.574604e+02
2.749031e+03,4.525178e+02
2.751924e+03,4.374911e+02
2.754817e+03,4.499265e+02
2.757709e+03,4.615185e+02
2.760602e+03,4.427460e+02
2.763495e+03,4.440324e+02
2.766387e+03,4.575443e+02
2.769280e+03,4.382484e+02
2.772173e+03,4.550396e+02
2.775065e+03,4.421140e+02
2.777958e+03,4.430763e+02
2.780851e+03,4.560051e+02
2.783744e+03,4.476152e+02
2.786636e+03,4.213341e+02
2.789529e+03,4.474795e+02
2.792422e+03,4.482716e+02
2.795314e+03,4.405147e+02
2.798207e+03,4.357100e+02
2.801100e+03,4.259424e+02
2.803992e+03,4.402154e+02
2.806885e+03,4.182867e+02
2.809778e+03,4.302494e+02
2.812671e+03,4.533436e+02
2.815563e+03,4.206442e+02
2.818456e+03,4.152842e+02
2.821349e+03,4.234655e+02
2.824241e+03,4.324437e+02
2.827134e+03,4.236649e+02
2.830027e+03,4.223033e+02
2.832919e+03,4.313555e+02
2.835812e+03,4.277521e+02
2.838705e+03,4.334779e+02
2.841598e+03,4.379851e+02
2.844490e+03,4.400553e+02
2.847383e+03,4.141625e+02
2.850276e+03,4.393999e+02
2.853168e+03,4.382296e+02
2.856061e+03,4.428639e+02
2.858954e+03,4.429916e+02
2.861846e+03,4.354678e+02
2.864739e+03,4.381705e+02
2.867632e+03,4.516134e+02
2.870525e+03,4.454695e+02
2.873417e+03,4.452637e+02
2.876310e+03,4.198817e+02
2.879203e+03,4.381007e+02
2.882095e+03,4.558053e+02
2.884988e+03,4.371944e+02
2.887881e+03,4.722236e+02
2.890773e+03,4.517296e+02
2.893666e+03,4.569518e+02
2.896559e+03,4.726129e+02
2.899452e+03,4.598674e+02
2.902344e+03,4.632424e+02
2.905237e+03,4.407711e+02
2.908130e+03,4.436940e+02
2.911022e+03,4.419249e+02
2.913915e+03,4.324264e+02
2.916808e+03,4.253910e+02
2.919700e+03,4.419653e+02
2.922593e+03,4.162509e+02
2.925486e+03,4.487237e+02
2.928379e+03,4.202890e+02
2.931271e+03,4.230653e+02
2.934164e+03,4.321284e+02
2.937057e+03,4.026356e+02
2.939949e+03,4.272747e+02
2.942842e+03,4.290833e+02
2.945735e+03,4.173653e+02
2.948627e+03,4.134815e+02
2.951520e+03,4.071074e+02
2.954413e+03,4.192242e+02
2.957306e+03,4.248443e+02
2.960198e+03,4.311666e+02
2.963091e+03,4.097253e+02
2.965984e+03,4.035063e+02
2.968876e+03,3.999775e+02
2.971769e+03,4.111718e+02
2.974662e+03,3.742692e+02
2.977554e+03,3.899654e+02
2.980447e+03,3.982851e+02
2.983340e+03,3.818508e+02
2.986233e+03,3.894405e+02
2.989125e+03,3.626036e+02
2.992018e+03,3.959156e+02
2.994911e+03,3.708950e+02
2.997803e+03,3.722455e+02
3.000696e+03,3.861631e+02
3.003589e+03,3.707482e+02
3.006481e+03,3.839316e+02
3.009374e+03,3.826435e+02
3.012267e+03,3.735217e+02
3.015160e+03,3.722856e+02
3.018052e+03,3.668125e+02
3.020945e+03,3.505058e+02
3.023838e+03,3.609946e+02
3.026730e+03,3.700706e+02
3.029623e+03,3.798391e+02
3.032516e+03,3.791730e+02
3.035408e+03,3.434096e+02
3.038301e+03,3.756403e+02
3.041194e+03,3.564041e+02
3.044087e+03,3.666290e+02
3.046979e+03,3.707868e+02
3.049872e+03,3.547870e+02
3.052765e+03,3.680747e+02
3.055657e+03,3.739793e+02
3.058550e+03,3.738112e+02
3.061443e+03,3.457310e+02
3.064335e+03,3.710976e+02
3.067228e+03,3.597349e+02
3.070121e+03,3.563508e+02
3.073014e+03,3.578476e+02
3.075906e+03,3.850951e+02
3.078799e+03,3.456562e+02
3.081692e+03,3.603398e+02
3.084584e+03,3.602871e+02
3.087477e+03,3.542623e+02
3.090370e+03,3.592903e+02
3.093262e+03,3.479199e+02
3.096155e+03,3.492657e+02
3.099048e+03,3.596887e+02
3.101941e+03,3.558941e+02
3.104833e+03,3.560385e+02
3.107726e+03,3.650794e+02
3.110619e+03,3.673864e+02
3.113511e+03,3.424893e+02
3.116404e+03,3.465535e+02
3.119297e+03,3.633899e+02
3.122189e+03,3.489341e+02
3.125082e+03,3.693942e+02
3.127975e+03,3.779828e+02
3.130868e+03,3.550871e+02
3.133760e+03,3.594919e+02
3.136653e+03,3.581358e+02
3.139546e+03,3.487888e+02
3.142438e+03,3.841518e+02
3.145331e+03,3.153036e+02
3.148224e+03,3.792797e+02
3.151116e+03,3.461173e+02
3.154009e+03,3.755953e+02
3.156902e+03,3.637099e+02
3.159795e+03,2.743575e+02
3.162687e+03,3.687977e+02
3.165580e+03,3.378357e+02
3.168473e+03,3.793748e+02
3.171365e+03,3.351907e+02
3.174258e+03,3.776927e+02
3.177151e+03,3.513150e+02
3.180043e+03,3.804914e+02
3.182936e+03,3.659917e+02
3.185829e+03,3.366838e+02
3.188722e+03,3.573042e+02
3.191614e+03,3.887769e+02
3.194507e+03,3.507759e+02
3.197400e+03,3.539112e+02
3.200292e+03,3.876109e+02
3.203185e+03,0.000000e+00
3.206078e+03,0.000000e+00
3.208970e+03,0.000000e+00
3.211863e+03,0.000000e+00
3.214756e+03,0.000000e+00
3.217649e+03,0.000000e+00
3.220541e+03,0.000000e+00
3.223434e+03,0.000000e+00
3.226327e+03,0.000000e+00
3.229219e+03,0.000000e+00
3.232112e+03,0.000000e+00
3.235005e+03,0.000000e+00
3.237897e+03,0.000000e+00
3.240790e+03,0.000000e+00
3.243683e+03,0.000000e+00
3.246576e+03,0.000000e+00
3.249468e+03,0.000000e+00
3.252361e+03,0.000000e+00
3.255254e+03,0.000000e+00
3.258146e+03,0.000000e+00
3.261039e+03,0.000000e+00
3.263932e+03,0.000000e+00
3.266824e+03,0.000000e+00
3.269717e+03,0.000000e+00
3.272610e+03,0.000000e+00
3.275503e+03,0.000000e+00
3.278395e+03,0.000000e+00
3.281288e+03,0.000000e+00
3.284181e+03,0.000000e+00
3.287073e+03,0.000000e+00
3.289966e+03,0.000000e+00
3.292859e+03,0.000000e+00
3.295751e+03,0.000000e+00
3.298644e+03,0.000000e+00
3.301537e+03,0.000000e+00
3.304430e+03,0.000000e+00
3.307322e+03,0.000000e+00
3.310215e+03,0.000000e+00
3.313108e+03,0.000000e+00
3.316000e+03,0.000000e+00
3.318893e+03,0.000000e+00
3.321786e+03,0.000000e+00
3.324678e+03,0.000000e+00
3.327571e+03,0.000000e+00
3.330464e+03,0.000000e+00
3.333357e+03,0.000000e+00
3.336249e+03,0.000000e+00
3.339142e+03,0.000000e+00
3.342035e+03,0.000000e+00
3.344927e+03,0.000000e+00
3.347820e+03,0.000000e+00
3.350713e+03,0.000000e+00
3.353605e+03,0.000000e+00
3.356498e+03,0.000000e+00
3.359391e+03,0.000000e+00
3.362284e+03,0.000000e+00
3.365176e+03,0.000000e+00
3.368069e+03,0.000000e+00
3.370962e+03,0.000000e+00
3.373854e+03,0.000000e+00
3.376747e+03,0.000000e+00
3.379640e+03,0.000000e+00
3.382532e+03,0.000000e+00
3.385425e+03,0.000000e+00
3.388318e+03,0.000000e+00
3.391211e+03,0.000000e+00
3.394103e+03,0.000000e+00
3.396996e+03,0.000000e+00
3.399889e+03,0.000000e+00
3.402781e+03,0.000000e+00
3.405674e+03,0.000000e+00
3.408567e+03,0.000000e+00
3.411459e+03,0.000000e+00
3.414352e+03,0.000000e+00
3.417245e+03,0.000000e+00
3.420138e+03,0.000000e+00
3.423030e+03,0.000000e+00
3.425923e+03,0.000000e+00
3.428816e+03,0.000000e+00
3.431708e+03,0.000000e+00
3.434601e+03,0.000000e+00
3.437494e+03,0.000000e+00
3.440386e+03,0.000000e+00
3.443279e+03,0.000000e+00
3.446172e+03,0.000000e+00
3.449065e+03,0.000000e+00
3.451957e+03,0.000000e+00
3.454850e+03,0.000000e+00
3.457743e+03,0.000000e+00
3.460635e+03,0.000000e+00
3.463528e+03,0.000000e+00
3.466421e+03,0.000000e+00
3.469313e+03,0.000000e+00
3.472206e+03,0.000000e+00
3.475099e+03,0.000000e+00
3.477992e+03,0.000000e+00
3.480884e+03,0.000000e+00
3.483777e+03,0.000000e+00
3.486670e+03,0.000000e+00
3.489563e+03,0.000000e+00
3.492455e+03,0.000000e+00
3.495348e+03,0.000000e+00
3.498240e+03,0.000000e+00
3.500169e+03,0.000000e+00