File: RAMAN_data/06022023_r2/blue fibre1.CSV
9.931763e+01,0.000000e+00
1.022103e+02,0.000000e+00
1.051030e+02,0.000000e+00
1.079957e+02,0.000000e+00
1.108884e+02,0.000000e+00
1.137811e+02,0.000000e+00
1.166738e+02,0.000000e+00
1.195665e+02,0.000000e+00
1.224592e+02,0.000000e+00
1.253519e+02,0.000000e+00
1.282446e+02,0.000000e+00
1.311373e+02,0.000000e+00
1.340300e+02,0.000000e+00
1.369227e+02,0.000000e+00
1.398154e+02,0.000000e+00
1.427081e+02,0.000000e+00
1.456008e+02,0.000000e+00
1.484935e+02,0.000000e+00
1.513862e+02,0.000000e+00
1.542789e+02,0.000000e+00
1.571716e+02,0.000000e+00
1.600643e+02,0.000000e+00
1.629570e+02,0.000000e+00
1.658497e+02,0.000000e+00
1.687424e+02,0.000000e+00
1.716351e+02,0.000000e+00
1.745278e+02,0.000000e+00
1.774205e+02,0.000000e+00
1.803132e+02,0.000000e+00
1.832059e+02,0.000000e+00
1.860986e+02,0.000000e+00
1.889913e+02,0.000000e+00
1.918840e+02,0.000000e+00
1.947767e+02,0.000000e+00
1.976694e+02,0.000000e+00
2.005621e+02,2.248128e+03
2.034548e+02,2.256707e+03
2.063475e+02,2.257510e+03
2.092402e+02,2.265325e+03
2.121329e+02,2.248131e+03
2.150256e+02,2.262457e+03
2.179183e+02,2.273891e+03
2.208110e+02,2.265023e+03
2.237037e+02,2.259897e+03
2.265964e+02,2.261305e+03
2.294892e+02,2.256819e+03
2.323819e+02,2.264067e+03
2.352746e+02,2.270940e+03
2.381673e+02,2.279446e+03
2.410600e+02,2.281442e+03
2.439527e+02,2.278555e+03
2.468454e+02,2.272087e+03
2.497381e+02,2.283999e+03
2.526308e+02,2.294121e+03
2.555235e+02,2.291058e+03
2.584161e+02,2.281723e+03
2.613088e+02,2.286867e+03
2.642015e+02,2.290364e+03
2.670942e+02,2.296070e+03
2.699869e+02,2.290990e+03
2.728796e+02,2.294887e+03
2.757723e+02,2.284264e+03
2.786650e+02,2.297758e+03
2.815577e+02,2.309678e+03
2.844504e+02,2.303773e+03
2.873431e+02,2.293805e+03
2.902358e+02,2.295879e+03
2.931285e+02,2.296878e+03
2.960212e+02,2.293569e+03
2.989139e+02,2.297759e+03
3.018066e+02,2.305766e+03
3.046993e+02,2.304284e+03
3.075920e+02,2.304823e+03
3.104847e+02,2.299812e+03
3.133774e+02,2.317507e+03
3.162701e+02,2.304648e+03
3.191628e+02,2.309745e+03
3.220555e+02,2.299491e+03
3.249482e+02,2.298582e+03
3.278409e+02,2.302244e+03
3.307336e+02,2.322295e+03
3.336263e+02,2.305786e+03
3.365190e+02,2.291315e+03
3.394117e+02,2.306718e+03
3.423044e+02,2.307859e+03
3.451971e+02,2.314082e+03
3.480898e+02,2.300930e+03
3.509825e+02,2.300998e+03
3.538752e+02,2.304257e+03
3.567680e+02,2.302044e+03
3.596607e+02,2.305551e+03
3.625534e+02,2.306207e+03
3.654461e+02,2.300813e+03
3.683388e+02,2.293528e+03
3.712315e+02,2.312329e+03
3.741242e+02,2.334187e+03
3.770169e+02,2.331285e+03
3.799096e+02,2.335289e+03
3.828023e+02,2.307491e+03
3.856950e+02,2.286824e+03
3.885877e+02,2.295012e+03
3.914804e+02,2.300914e+03
3.943731e+02,2.280046e+03
3.972658e+02,2.279935e+03
4.001585e+02,2.288212e+03
4.030512e+02,2.297120e+03
4.059439e+02,2.290550e+03
4.088366e+02,2.293731e+03
4.117293e+02,2.289049e+03
4.146220e+02,2.281637e+03
4.175147e+02,2.265855e+03
4.204074e+02,2.283194e+03
4.233001e+02,2.267103e+03
4.261928e+02,2.269563e+03
4.290855e+02,2.286827e+03
4.319782e+02,2.288325e+03
4.348709e+02,2.287545e+03
4.377636e+02,2.274662e+03
4.406563e+02,2.276895e+03
4.435490e+02,2.289154e+03
4.464417e+02,2.279413e+03
4.493344e+02,2.276000e+03
4.522271e+02,2.283865e+03
4.551198e+02,2.268363e+03
4.580125e+02,2.266735e+03
4.609052e+02,2.260026e+03
4.637979e+02,2.258434e+03
4.666906e+02,2.250899e+03
4.695833e+02,2.244611e+03
4.724760e+02,2.242806e+03
4.753687e+02,2.235663e+03
4.782614e+02,2.248905e+03
4.811541e+02,2.244621e+03
4.840468e+02,2.251539e+03
4.869395e+02,2.253380e+03
4.898322e+02,2.241232e+03
4.927249e+02,2.242347e+03
4.956176e+02,2.246980e+03
4.985103e+02,2.252208e+03
5.014030e+02,2.239085e+03
5.042957e+02,2.223878e+03
5.071884e+02,2.230196e+03
5.100811e+02,2.225207e+03
5.129738e+02,2.234570e+03
5.158665e+02,2.233793e+03
5.187592e+02,2.230782e+03
5.216519e+02,2.226372e+03
5.245446e+02,2.223951e+03
5.274373e+02,2.220970e+03
5.303300e+02,2.203644e+03
5.332227e+02,2.189325e+03
5.361154e+02,2.194919e+03
5.390081e+02,2.194642e+03
5.419008e+02,2.199871e+03
5.447935e+02,2.187108e+03
5.476862e+02,2.180464e+03
5.505789e+02,2.186802e+03
5.534716e+02,2.177388e+03
5.563643e+02,2.185087e+03
5.592570e+02,2.187314e+03
5.621497e+02,2.174337e+03
5.650424e+02,2.181765e+03
5.679351e+02,2.165703e+03
5.708278e+02,2.168892e+03
5.737205e+02,2.181718e+03
5.766132e+02,2.170324e+03
5.795059e+02,2.147391e+03
5.823986e+02,2.163256e+03
5.852913e+02,2.151384e+03
5.881840e+02,2.143429e+03
5.910767e+02,2.146903e+03
5.939694e+02,2.159970e+03
5.968621e+02,2.169815e+03
5.997548e+02,2.156659e+03
6.026475e+02,2.151788e+03
6.055402e+02,2.157403e+03
6.084329e+02,2.152650e+03
6.113256e+02,2.132389e+03
6.142183e+02,2.123531e+03
6.171110e+02,2.138097e+03
6.200037e+02,2.131628e+03
6.228964e+02,2.133463e+03
6.257891e+02,2.125635e+03
6.286818e+02,2.126039e+03
6.315745e+02,2.122597e+03
6.344672e+02,2.102049e+03
6.373599e+02,2.110907e+03
6.402526e+02,2.113399e+03
6.431453e+02,2.116952e+03
6.460380e+02,2.097614e+03
6.489307e+02,2.087365e+03
6.518234e+02,2.097014e+03
6.547161e+02,2.093216e+03
6.576088e+02,2.082324e+03
6.605015e+02,2.087774e+03
6.633942e+02,2.064115e+03
6.662869e+02,2.082136e+03
6.691796e+02,2.092225e+03
6.720723e+02,2.066319e+03
6.749650e+02,2.065781e+03
6.778577e+02,2.060421e+03
6.807504e+02,2.070198e+03
6.836431e+02,2.047561e+03
6.865358e+02,2.060636e+03
6.894285e+02,2.061790e+03
6.923212e+02,2.064983e+03
6.952139e+02,2.046428e+03
6.981066e+02,2.059081e+03
7.009993e+02,2.030252e+03
7.038920e+02,2.039093e+03
7.067847e+02,2.029127e+03
7.096774e+02,2.031823e+03
7.125701e+02,2.037024e+03
7.154628e+02,2.035637e+03
7.183555e+02,2.035083e+03
7.212482e+02,2.025301e+03
7.241409e+02,2.022624e+03
7.270336e+02,2.023205e+03
7.299263e+02,2.007128e+03
7.328190e+02,2.009216e+03
7.357117e+02,2.003088e+03
7.386044e+02,2.006589e+03
7.414971e+02,1.996648e+03
7.443898e+02,1.992732e+03
7.472825e+02,1.985914e+03
7.501752e+02,1.997448e+03
7.530679e+02,1.990002e+03
7.559606e+02,1.979939e+03
7.588533e+02,1.983031e+03
7.617460e+02,1.990971e+03
7.646387e+02,1.961287e+03
7.675314e+02,1.968130e+03
7.704241e+02,1.951072e+03
7.733168e+02,1.953966e+03
7.762095e+02,1.953226e+03
7.791022e+02,1.960645e+03
7.819949e+02,1.942817e+03
7.848876e+02,1.962612e+03
7.877803e+02,1.960882e+03
7.906730e+02,1.949910e+03
7.935657e+02,1.945434e+03
7.964584e+02,1.937254e+03
7.993511e+02,1.926848e+03
8.022438e+02,1.927582e+03
8.051365e+02,1.926389e+03
8.080292e+02,1.925272e+03
8.109219e+02,1.931550e+03
8.138146e+02,1.906605e+03
8.167073e+02,1.905497e+03
8.196000e+02,1.909854e+03
8.224927e+02,1.920118e+03
8.253854e+02,1.901463e+03
8.282781e+02,1.909515e+03
8.311708e+02,1.909402e+03
8.340635e+02,1.897189e+03
8.369562e+02,1.893896e+03
8.398489e+02,1.886581e+03
8.427416e+02,1.893649e+03
8.456343e+02,1.877538e+03
8.485270e+02,1.889926e+03
8.514197e+02,1.873554e+03
8.543124e+02,1.878910e+03
8.572051e+02,1.874525e+03
8.600978e+02,1.858541e+03
8.629905e+02,1.863366e+03
8.658832e+02,1.859698e+03
8.687759e+02,1.859083e+03
8.716686e+02,1.857135e+03
8.745613e+02,1.855079e+03
8.774540e+02,1.847906e+03
8.803467e+02,1.831046e+03
8.832394e+02,1.844433e+03
8.861321e+02,1.832843e+03
8.890248e+02,1.832198e+03
8.919175e+02,1.845202e+03
8.948102e+02,1.833025e+03
8.977029e+02,1.836681e+03
9.005956e+02,1.823281e+03
9.034883e+02,1.821548e+03
9.063810e+02,1.812934e+03
9.092737e+02,1.810532e+03
9.121664e+02,1.800741e+03
9.150591e+02,1.800930e+03
9.179518e+02,1.800594e+03
9.208445e+02,1.783394e+03
9.237372e+02,1.788881e+03
9.266299e+02,1.777694e+03
9.295226e+02,1.787185e+03
9.324153e+02,1.781093e+03
9.353080e+02,1.785401e+03
9.382007e+02,1.764340e+03
9.410934e+02,1.762887e+03
9.439861e+02,1.761674e+03
9.468788e+02,1.764701e+03
9.497715e+02,1.767496e+03
9.526642e+02,1.760764e+03
9.555569e+02,1.757311e+03
9.584496e+02,1.746998e+03
9.613423e+02,1.750401e+03
9.642350e+02,1.753068e+03
9.671277e+02,1.747811e+03
9.700204e+02,1.740030e+03
9.729131e+02,1.722653e+03
9.758058e+02,1.730247e+03
9.786985e+02,1.730592e+03
9.815912e+02,1.722443e+03
9.844839e+02,1.721040e+03
9.873766e+02,1.711343e+03
9.902693e+02,1.716479e+03
9.931620e+02,1.728185e+03
9.960547e+02,1.715562e+03
9.989474e+02,1.706429e+03
1.001840e+03,1.708821e+03
1.004733e+03,1.704793e+03
1.007626e+03,1.711553e+03
1.010518e+03,1.695276e+03
1.013411e+03,1.688829e+03
1.016304e+03,1.684872e+03
1.019196e+03,1.695223e+03
1.022089e+03,1.689110e+03
1.024982e+03,1.686408e+03
1.027875e+03,1.671181e+03
1.030767e+03,1.675357e+03
1.033660e+03,1.679673e+03
1.036552e+03,1.677458e+03
1.039445e+03,1.679232e+03
1.042338e+03,1.677930e+03
1.045231e+03,1.668164e+03
1.048123e+03,1.662670e+03
1.051016e+03,1.655291e+03
1.053909e+03,1.668310e+03
1.056802e+03,1.661255e+03
1.059694e+03,1.650137e+03
1.062587e+03,1.650605e+03
1.065479e+03,1.651078e+03
1.068372e+03,1.644635e+03
1.071265e+03,1.646109e+03
1.074158e+03,1.657325e+03
1.077050e+03,1.630761e+03
1.079943e+03,1.638078e+03
1.082836e+03,1.642561e+03
1.085729e+03,1.653695e+03
1.088621e+03,1.637569e+03
1.091514e+03,1.659374e+03
1.094406e+03,1.658150e+03
1.097299e+03,1.656355e+03
1.100192e+03,1.628325e+03
1.103085e+03,1.638720e+03
1.105977e+03,1.623875e+03
1.108870e+03,1.622198e+03
1.111763e+03,1.613362e+03
1.114656e+03,1.630792e+03
1.117548e+03,1.626340e+03
1.120441e+03,1.637173e+03
1.123334e+03,1.619609e+03
1.126226e+03,1.608055e+03
1.129119e+03,1.601971e+03
1.132012e+03,1.601376e+03
1.134904e+03,1.587414e+03
1.137797e+03,1.578170e+03
1.140690e+03,1.577395e+03
1.143583e+03,1.584877e+03
1.146475e+03,1.589689e+03
1.149368e+03,1.583766e+03
1.152261e+03,1.587465e+03
1.155153e+03,1.583030e+03
1.158046e+03,1.564790e+03
1.160939e+03,1.568999e+03
1.163831e+03,1.569746e+03
1.166724e+03,1.559891e+03
1.169617e+03,1.549515e+03
1.172510e+03,1.544196e+03
1.175402e+03,1.538866e+03
1.178295e+03,1.540739e+03
1.181188e+03,1.549903e+03
1.184080e+03,1.535058e+03
1.186973e+03,1.539805e+03
1.189866e+03,1.522147e+03
1.192758e+03,1.535297e+03
1.195651e+03,1.528763e+03
1.198544e+03,1.537118e+03
1.201437e+03,1.517476e+03
1.204329e+03,1.523306e+03
1.207222e+03,1.516096e+03
1.210115e+03,1.519935e+03
1.213007e+03,1.504764e+03
1.215900e+03,1.506653e+03
1.218793e+03,1.514231e+03
1.221685e+03,1.510524e+03
1.224578e+03,1.505069e+03
1.227471e+03,1.507681e+03
1.230364e+03,1.501112e+03
1.233256e+03,1.501135e+03
1.236149e+03,1.502520e+03
1.239042e+03,1.500491e+03
1.241934e+03,1.497276e+03
1.244827e+03,1.487321e+03
1.247720e+03,1.486051e+03
1.250612e+03,1.482791e+03
1.253505e+03,1.478947e+03
1.256398e+03,1.472536e+03
1.259291e+03,1.481049e+03
1.262183e+03,1.470461e+03
1.265076e+03,1.474453e+03
1.267969e+03,1.468519e+03
1.270861e+03,1.477732e+03
1.273754e+03,1.488568e+03
1.276647e+03,1.470968e+03
1.279539e+03,1.471039e+03
1.282432e+03,1.467870e+03
1.285325e+03,1.469185e+03
1.288218e+03,1.460716e+03
1.291110e+03,1.465616e+03
1.294003e+03,1.460608e+03
1.296896e+03,1.458589e+03
1.299788e+03,1.444295e+03
1.302681e+03,1.456873e+03
1.305574e+03,1.445931e+03
1.308466e+03,1.443168e+03
1.311359e+03,1.445145e+03
1.314252e+03,1.446235e+03
1.317145e+03,1.450322e+03
1.320037e+03,1.449909e+03
1.322930e+03,1.433239e+03
1.325823e+03,1.443272e+03
1.328715e+03,1.437577e+03
1.331608e+03,1.437633e+03
1.334501e+03,1.437872e+03
1.337393e+03,1.440384e+03
1.340286e+03,1.434159e+03
1.343179e+03,1.423746e+03
1.346072e+03,1.421017e+03
1.348964e+03,1.430059e+03
1.351857e+03,1.431209e+03
1.354750e+03,1.429587e+03
1.357642e+03,1.411816e+03
1.360535e+03,1.417800e+03
1.363428e+03,1.417622e+03
1.366320e+03,1.411624e+03
1.369213e+03,1.418840e+03
1.372106e+03,1.401916e+03
1.374999e+03,1.398238e+03
1.377891e+03,1.400423e+03
1.380784e+03,1.395289e+03
1.383677e+03,1.393611e+03
1.386569e+03,1.381628e+03
1.389462e+03,1.379996e+03
1.392355e+03,1.380006e+03
1.395247e+03,1.367594e+03
1.398140e+03,1.370385e+03
1.401033e+03,1.377742e+03
1.403926e+03,1.379177e+03
1.406818e+03,1.366450e+03
1.409711e+03,1.372596e+03
1.412604e+03,1.370213e+03
1.415496e+03,1.359826e+03
1.418389e+03,1.376210e+03
1.421282e+03,1.347887e+03
1.424174e+03,1.342570e+03
1.427067e+03,1.342647e+03
1.429960e+03,1.342338e+03
1.432853e+03,1.337222e+03
1.435745e+03,1.342483e+03
1.438638e+03,1.326563e+03
1.441531e+03,1.329259e+03
1.444423e+03,1.325831e+03
1.447316e+03,1.329489e+03
1.450209e+03,1.320994e+03
1.453101e+03,1.318623e+03
1.455994e+03,1.323002e+03
1.458887e+03,1.326541e+03
1.461780e+03,1.328186e+03
1.464672e+03,1.312766e+03
1.467565e+03,1.320805e+03
1.470458e+03,1.314365e+03
1.473350e+03,1.318117e+03
1.476243e+03,1.308307e+03
1.479136e+03,1.305428e+03
1.482028e+03,1.309331e+03
1.484921e+03,1.300482e+03
1.487814e+03,1.293152e+03
1.490707e+03,1.298136e+03
1.493599e+03,1.293020e+03
1.496492e+03,1.288953e+03
1.499385e+03,1.286335e+03
1.502277e+03,1.287193e+03
1.505170e+03,1.286656e+03
1.508063e+03,1.282380e+03
1.510955e+03,1.275674e+03
1.513848e+03,1.276426e+03
1.516741e+03,1.272753e+03
1.519634e+03,1.277705e+03
1.522526e+03,1.271133e+03
1.525419e+03,1.269870e+03
1.528312e+03,1.265542e+03
1.531204e+03,1.258109e+03
1.534097e+03,1.257466e+03
1.536990e+03,1.260929e+03
1.539882e+03,1.260123e+03
1.542775e+03,1.255920e+03
1.545668e+03,1.245677e+03
1.548561e+03,1.251907e+03
1.551453e+03,1.249557e+03
1.554346e+03,1.250307e+03
1.557239e+03,1.247062e+03
1.560131e+03,1.232863e+03
1.563024e+03,1.248444e+03
1.565917e+03,1.237940e+03
1.568809e+03,1.232327e+03
1.571702e+03,1.233809e+03
1.574595e+03,1.233727e+03
1.577488e+03,1.230263e+03
1.580380e+03,1.230186e+03
1.583273e+03,1.239845e+03
1.586166e+03,1.235072e+03
1.589058e+03,1.221411e+03
1.591951e+03,1.232441e+03
1.594844e+03,1.226756e+03
1.597736e+03,1.216986e+03
1.600629e+03,1.216549e+03
1.603522e+03,1.224500e+03
1.606415e+03,1.212197e+03
1.609307e+03,1.210090e+03
1.612200e+03,1.204609e+03
1.615093e+03,1.206247e+03
1.617985e+03,1.205441e+03
1.620878e+03,1.203000e+03
1.623771e+03,1.182182e+03
1.626663e+03,1.194082e+03
1.629556e+03,1.192357e+03
1.632449e+03,1.193638e+03
1.635342e+03,1.192623e+03
1.638234e+03,1.170793e+03
1.641127e+03,1.169413e+03
1.644020e+03,1.182555e+03
1.646912e+03,1.162092e+03
1.649805e+03,1.162504e+03
1.652698e+03,1.167839e+03
1.655590e+03,1.156519e+03
1.658483e+03,1.156832e+03
1.661376e+03,1.166327e+03
1.664269e+03,1.160037e+03
1.667161e+03,1.148313e+03
1.670054e+03,1.141563e+03
1.672947e+03,1.147610e+03
1.675839e+03,1.149117e+03
1.678732e+03,1.146533e+03
1.681625e+03,1.128284e+03
1.684517e+03,1.134227e+03
1.687410e+03,1.141527e+03
1.690303e+03,1.133092e+03
1.693196e+03,1.131055e+03
1.696088e+03,1.121268e+03
1.698981e+03,1.120142e+03
1.701874e+03,1.120302e+03
1.704766e+03,1.117478e+03
1.707659e+03,1.117615e+03
1.710552e+03,1.122401e+03
1.713444e+03,1.122961e+03
1.716337e+03,1.096204e+03
1.719230e+03,1.104171e+03
1.722123e+03,1.104051e+03
1.725015e+03,1.097169e+03
1.727908e+03,1.100795e+03
1.730801e+03,1.106388e+03
1.733693e+03,1.094196e+03
1.736586e+03,1.088807e+03
1.739479e+03,1.093309e+03
1.742371e+03,1.091628e+03
1.745264e+03,1.095305e+03
1.748157e+03,1.074626e+03
1.751050e+03,1.090785e+03
1.753942e+03,1.065098e+03
1.756835e+03,1.080627e+03
1.759728e+03,1.067279e+03
1.762620e+03,1.070926e+03
1.765513e+03,1.064027e+03
1.768406e+03,1.064633e+03
1.771298e+03,1.055197e+03
1.774191e+03,1.060264e+03
1.777084e+03,1.048251e+03
1.779977e+03,1.051768e+03
1.782869e+03,1.041639e+03
1.785762e+03,1.050158e+03
1.788655e+03,1.050860e+03
1.791547e+03,1.047546e+03
1.794440e+03,1.037325e+03
1.797333e+03,1.047349e+03
1.800225e+03,1.032851e+03
1.803118e+03,1.042029e+03
1.806011e+03,1.025167e+03
1.808904e+03,1.030602e+03
1.811796e+03,1.025400e+03
1.814689e+03,1.035429e+03
1.817582e+03,1.028592e+03
1.820474e+03,1.012447e+03
1.823367e+03,1.006381e+03
1.826260e+03,1.022021e+03
1.829152e+03,1.016466e+03
1.832045e+03,1.013876e+03
1.834938e+03,1.017417e+03
1.837831e+03,1.002054e+03
1.840723e+03,1.007257e+03
1.843616e+03,1.007669e+03
1.846509e+03,9.978420e+02
1.849401e+03,1.007961e+03
1.852294e+03,9.876967e+02
1.855187e+03,9.954832e+02
1.858079e+03,9.896394e+02
1.860972e+03,9.918045e+02
1.863865e+03,9.869598e+02
1.866758e+03,9.748227e+02
1.869650e+03,9.780167e+02
1.872543e+03,9.692020e+02
1.875436e+03,9.856568e+02
1.878328e+03,9.628594e+02
1.881221e+03,9.716181e+02
1.884114e+03,9.628086e+02
1.887006e+03,9.592459e+02
1.889899e+03,9.609050e+02
1.892792e+03,9.634729e+02
1.895685e+03,9.655093e+02
1.898577e+03,9.429451e+02
1.901470e+03,9.575977e+02
1.904363e+03,9.345975e+02
1.907255e+03,9.344905e+02
1.910148e+03,9.433712e+02
1.913041e+03,9.383398e+02
1.915933e+03,9.381289e+02
1.918826e+03,9.351359e+02
1.921719e+03,9.365416e+02
1.924612e+03,9.136295e+02
1.927504e+03,9.389567e+02
1.930397e+03,9.401155e+02
1.933290e+03,9.206451e+02
1.936182e+03,9.369301e+02
1.939075e+03,9.104080e+02
1.941968e+03,9.226661e+02
1.944860e+03,9.188370e+02
1.947753e+03,9.062010e+02
1.950646e+03,9.045066e+02
1.953539e+03,8.949318e+02
1.956431e+03,8.940262e+02
1.959324e+03,8.980706e+02
1.962217e+03,9.006272e+02
1.965109e+03,9.019475e+02
1.968002e+03,8.920640e+02
1.970895e+03,8.943367e+02
1.973787e+03,8.824229e+02
1.976680e+03,8.847230e+02
1.979573e+03,8.811867e+02
1.982466e+03,8.874876e+02
1.985358e+03,8.840239e+02
1.988251e+03,8.785604e+02
1.991144e+03,8.665105e+02
1.994036e+03,8.849875e+02
1.996929e+03,8.648096e+02
1.999822e+03,8.654319e+02
2.002714e+03,8.537672e+02
2.005607e+03,8.710206e+02
2.008500e+03,8.598235e+02
2.011393e+03,8.565139e+02
2.014285e+03,8.579150e+02
2.017178e+03,8.526866e+02
2.020071e+03,8.495040e+02
2.022963e+03,8.462145e+02
2.025856e+03,8.339103e+02
2.028749e+03,8.582879e+02
2.031641e+03,8.370694e+02
2.034534e+03,8.333276e+02
2.037427e+03,8.375367e+02
2.040320e+03,8.379897e+02
2.043212e+03,8.190714e+02
2.046105e+03,8.274625e+02
2.048998e+03,8.254873e+02
2.051890e+03,8.106953e+02
2.054783e+03,8.220133e+02
2.057676e+03,8.196882e+02
2.060568e+03,8.227913e+02
2.063461e+03,8.033259e+02
2.066354e+03,8.189156e+02
2.069247e+03,7.935507e+02
2.072139e+03,8.063063e+02
2.075032e+03,7.950123e+02
2.077925e+03,7.896940e+02
2.080817e+03,7.911331e+02
2.083710e+03,7.879863e+02
2.086603e+03,7.872292e+02
2.089496e+03,7.920410e+02
2.092388e+03,7.694246e+02
2.095281e+03,7.799529e+02
2.098174e+03,7.845795e+02
2.101066e+03,7.624453e+02
2.103959e+03,7.768839e+02
2.106852e+03,7.705392e+02
2.109744e+03,7.714397e+02
2.112637e+03,7.719067e+02
2.115530e+03,7.623870e+02
2.118422e+03,7.540276e+02
2.121315e+03,7.662562e+02
2.124208e+03,7.697718e+02
2.127101e+03,7.603627e+02
2.129993e+03,7.510109e+02
2.132886e+03,7.571742e+02
2.135779e+03,7.578452e+02
2.138671e+03,7.495037e+02
2.141564e+03,7.521777e+02
2.144457e+03,7.453414e+02
2.147350e+03,7.433271e+02
2.150242e+03,7.319199e+02
2.153135e+03,7.462244e+02
2.156028e+03,7.373301e+02
2.158920e+03,7.278878e+02
2.161813e+03,7.303143e+02
2.164706e+03,7.309520e+02
2.167598e+03,7.431623e+02
2.170491e+03,7.287673e+02
2.173384e+03,7.162394e+02
2.176277e+03,7.200012e+02
2.179169e+03,7.128695e+02
2.182062e+03,7.230653e+02
2.184955e+03,7.092434e+02
2.187847e+03,7.133257e+02
2.190740e+03,7.052204e+02
2.193633e+03,7.113715e+02
2.196525e+03,6.996589e+02
2.199418e+03,7.000508e+02
2.202311e+03,6.952518e+02
2.205204e+03,6.971545e+02
2.208096e+03,6.985771e+02
2.210989e+03,6.904718e+02
2.213882e+03,6.775342e+02
2.216774e+03,6.872942e+02
2.219667e+03,6.958571e+02
2.222560e+03,6.855955e+02
2.225452e+03,6.680141e+02
2.228345e+03,6.771826e+02
2.231238e+03,6.714077e+02
2.234131e+03,6.734128e+02
2.237023e+03,6.723174e+02
2.239916e+03,6.738616e+02
2.242809e+03,6.609537e+02
2.245701e+03,6.764095e+02
2.248594e+03,6.632809e+02
2.251487e+03,6.559424e+02
2.254379e+03,6.527664e+02
2.257272e+03,6.699871e+02
2.260165e+03,6.534342e+02
2.263058e+03,6.580790e+02
2.265950e+03,6.516213e+02
2.268843e+03,6.507266e+02
2.271736e+03,6.481760e+02
2.274628e+03,6.578047e+02
2.277521e+03,6.433264e+02
2.280414e+03,6.373424e+02
2.283306e+03,6.401522e+02
2.286199e+03,6.368777e+02
2.289092e+03,6.311941e+02
2.291985e+03,6.232673e+02
2.294877e+03,6.359706e+02
2.297770e+03,6.295582e+02
2.300663e+03,6.287343e+02
2.303555e+03,6.225724e+02
2.306448e+03,6.260586e+02
2.309341e+03,6.202552e+02
2.312233e+03,6.265231e+02
2.315126e+03,6.240807e+02
2.318019e+03,6.206152e+02
2.320912e+03,6.223830e+02
2.323804e+03,6.069127e+02
2.326697e+03,6.249681e+02
2.329590e+03,6.195422e+02
2.332482e+03,6.132838e+02
2.335375e+03,5.999654e+02
2.338268e+03,5.949948e+02
2.341160e+03,6.027840e+02
2.344053e+03,6.113466e+02
2.346946e+03,5.932441e+02
2.349839e+03,5.955953e+02
2.352731e+03,5.960878e+02
2.355624e+03,5.870391e+02
2.358517e+03,5.880795e+02
2.361409e+03,5.815733e+02
2.364302e+03,5.804784e+02
2.367195e+03,5.849684e+02
2.370087e+03,5.766225e+02
2.372980e+03,5.796714e+02
2.375873e+03,5.762204e+02
2.378766e+03,5.859258e+02
2.381658e+03,5.730554e+02
2.384551e+03,5.683484e+02
2.387444e+03,5.792376e+02
2.390336e+03,5.702908e+02
2.393229e+03,5.700720e+02
2.396122e+03,5.649486e+02
2.399014e+03,5.703077e+02
2.401907e+03,5.781068e+02
2.404800e+03,5.616409e+02
2.407693e+03,5.592874e+02
2.410585e+03,5.616810e+02
2.413478e+03,5.567892e+02
2.416371e+03,5.574043e+02
2.419263e+03,5.519916e+02
2.422156e+03,5.573657e+02
2.425049e+03,5.577943e+02
2.427941e+03,5.473110e+02
2.430834e+03,5.460943e+02
2.433727e+03,5.506212e+02
2.436620e+03,5.427634e+02
2.439512e+03,5.385861e+02
2.442405e+03,5.286841e+02
2.445298e+03,5.448786e+02
2.448190e+03,5.352137e+02
2.451083e+03,5.368091e+02
2.453976e+03,5.319064e+02
2.456868e+03,5.354817e+02
2.459761e+03,5.370611e+02
2.462654e+03,5.199881e+02
2.465547e+03,5.294764e+02
2.468439e+03,5.281981e+02
2.471332e+03,5.208323e+02
2.474225e+03,5.217654e+02
2.477117e+03,5.197734e+02
2.480010e+03,5.238024e+02
2.482903e+03,5.215303e+02
2.485795e+03,5.229174e+02
2.488688e+03,5.156390e+02
2.491581e+03,5.125259e+02
2.494474e+03,5.083585e+02
2.497366e+03,5.129828e+02
2.500259e+03,5.044340e+02
2.503152e+03,5.150812e+02
2.506044e+03,5.178629e+02
2.508937e+03,5.047081e+02
2.511830e+03,5.157031e+02
2.514722e+03,5.037973e+02
2.517615e+03,4.981531e+02
2.520508e+03,4.991913e+02
2.523401e+03,5.004806e+02
2.526293e+03,4.850507e+02
2.529186e+03,5.044167e+02
2.532079e+03,4.942367e+02
2.534971e+03,5.050457e+02
2.537864e+03,4.867699e+02
2.540757e+03,4.833940e+02
2.543649e+03,4.899204e+02
2.546542e+03,5.081267e+02
2.549435e+03,4.835645e+02
2.552328e+03,5.002851e+02
2.555220e+03,5.053772e+02
2.558113e+03,4.966158e+02
2.561006e+03,4.918316e+02
2.563898e+03,4.875176e+02
2.566791e+03,4.887525e+02
2.569684e+03,4.807002e+02
2.572576e+03,4.811864e+02
2.575469e+03,4.828448e+02
2.578362e+03,4.755995e+02
2.581255e+03,4.765152e+02
2.584147e+03,4.817604e+02
2.587040e+03,4.716396e+02
2.589933e+03,4.750726e+02
2.592825e+03,4.648119e+02
2.595718e+03,4.714339e+02
2.598611e+03,4.645439e+02
2.601503e+03,4.762833e+02
2.604396e+03,4.649879e+02
2.607289e+03,4.620993e+02
2.610182e+03,4.642639e+02
2.613074e+03,4.545156e+02
2.615967e+03,4.629889e+02
2.618860e+03,4.616064e+02
2.621752e+03,4.680603e+02
2.624645e+03,4.629920e+02
2.627538e+03,4.658592e+02
2.630430e+03,4.521650e+02
2.633323e+03,4.570095e+02
2.636216e+03,4.459765e+02
2.639109e+03,4.563777e+02
2.642001e+03,4.576782e+02
2.644894e+03,4.482889e+02
2.647787e+03,4.549936e+02
2.650679e+03,4.574081e+02
2.653572e+03,4.456563e+02
2.656465e+03,4.561330e+02
2.659357e+03,4.525489e+02
2.662250e+03,4.332200e+02
2.665143e+03,4.490013e+02
2.668036e+03,4.526494e+02
2.670928e+03,4.329527e+02
2.673821e+03,4.348258e+02
2.676714e+03,4.386673e+02
2.679606e+03,4.465761e+02
2.682499e+03,4.372253e+02
2.685392e+03,4.352582e+02
2.688284e+03,4.388883e+02
2.691177e+03,4.335899e+02
2.694070e+03,4.208988e+02
2.696963e+03,4.404821e+02
2.699855e+03,4.377609e+02
2.702748e+03,4.343174e+02
2.705641e+03,4.260474e+02
2.708533e+03,4.388621e+02
2.711426e+03,4.332021e+02
2.714319e+03,4.235729e+02
2.717211e+03,4.365184e+02
2.720104e+03,4.352174e+02
2.722997e+03,4.280464e+02
2.725890e+03,4.196908e+02
2.728782e+03,4.348483e+02
2.731675e+03,4.202931e+02
2.734568e+03,4.025896e+02
2.737460e+03,4.131285e+02
2.740353e+03,4.213491e+02
2.743246e+03,4.185658e+02
2.746138e+03,4.272752e+02
2.749031e+03,4.120081e+02
2.751924e+03,4.109605e+02
2.754817e+03,4.171873e+02
2.757709e+03,4.167851e+02
2.760602e+03,4.145656e+02
2.763495e+03,4.154299e+02
2.766387e+03,4.195021e+02
2.769280e+03,4.082158e+02
2.772173e+03,4.124130e+02
2.775065e+03,4.033967e+02
2.777958e+03,4.119047e+02
2.780851e+03,4.062236e+02
2.783744e+03,4.113441e+02
2.786636e+03,4.006960e+02
2.789529e+03,4.139684e+02
2.792422e+03,4.208683e+02
2.795314e+03,3.953412e+02
2.798207e+03,3.988139e+02
2.801100e+03,3.997701e+02
2.803992e+03,4.051364e+02
2.806885e+03,3.794718e+02
2.809778e+03,4.054416e+02
2.812671e+03,4.124061e+02
2.815563e+03,3.987587e+02
2.818456e+03,3.907199e+02
2.821349e+03,3.880112e+02
2.824241e+03,3.958661e+02
2.827134e+03,3.964238e+02
2.830027e+03,3.828859e+02
2.832919e+03,3.988458e+02
2.835812e+03,3.903374e+02
2.838705e+03,3.871240e+02
2.841598e+03,4.027311e+02
2.844490e+03,4.005571e+02
2.847383e+03,4.083004e+02
2.850276e+03,4.107719e+02
2.853168e+03,3.972424e+02
2.856061e+03,4.066551e+02
2.858954e+03,3.974896e+02
2.861846e+03,4.102030e+02
2.864739e+03,4.031473e+02
2.867632e+03,4.012934e+02
2.870525e+03,4.162956e+02
2.873417e+03,4.200257e+02
2.876310e+03,4.187786e+02
2.879203e+03,4.189596e+02
2.882095e+03,4.134662e+02
2.884988e+03,4.245865e+02
2.887881e+03,4.203206e+02
2.890773e+03,4.257694e+02
2.893666e+03,4.191671e+02
2.896559e+03,4.242423e+02
2.899452e+03,4.196837e+02
2.902344e+03,4.178736e+02
2.905237e+03,4.166849e+02
2.908130e+03,4.085718e+02
2.911022e+03,4.223548e+02
2.913915e+03,3.870624e+02
2.916808e+03,4.062746e+02
2.919700e+03,3.872538e+02
2.922593e+03,3.918810e+02
2.925486e+03,4.152088e+02
2.928379e+03,3.972760e+02
2.931271e+03,3.893053e+02
2.934164e+03,3.927879e+02
2.937057e+03,3.775207e+02
2.939949e+03,3.871456e+02
2.942842e+03,3.721885e+02
2.945735e+03,3.939503e+02
2.948627e+03,4.057859e+02
2.951520e+03,3.740078e+02
2.954413e+03,3.677512e+02
2.957306e+03,4.144754e+02
2.960198e+03,3.920258e+02
2.963091e+03,3.709741e+02
2.965984e+03,3.819214e+02
2.968876e+03,3.678875e+02
2.971769e+03,3.787682e+02
2.974662e+03,3.643944e+02
2.977554e+03,3.737289e+02
2.980447e+03,3.613608e+02
2.983340e+03,3.769505e+02
2.986233e+03,3.584366e+02
2.989125e+03,3.734053e+02
2.992018e+03,3.523320e+02
2.994911e+03,3.437538e+02
2.997803e+03,3.597784e+02
3.000696e+03,3.580497e+02
3.003589e+03,3.652754e+02
3.006481e+03,3.686750e+02
3.009374e+03,3.502043e+02
3.012267e+03,3.587195e+02
3.015160e+03,3.516324e+02
3.018052e+03,3.548543e+02
3.020945e+03,3.605947e+02
3.023838e+03,3.366515e+02
3.026730e+03,3.414262e+02
3.029623e+03,3.482368e+02
3.032516e+03,3.406708e+02
3.035408e+03,3.290543e+02
3.038301e+03,3.272281e+02
3.041194e+03,3.443192e+02
3.044087e+03,3.503574e+02
3.046979e+03,3.626532e+02
3.049872e+03,3.451572e+02
3.052765e+03,3.329037e+02
3.055657e+03,3.644250e+02
3.058550e+03,3.549849e+02
3.061443e+03,3.489281e+02
3.064335e+03,3.331073e+02
3.067228e+03,3.435601e+02
3.070121e+03,3.577106e+02
3.073014e+03,3.476932e+02
3.075906e+03,3.382668e+02
3.078799e+03,3.468382e+02
3.081692e+03,3.187397e+02
3.084584e+03,3.537047e+02
3.087477e+03,3.253743e+02
3.090370e+03,3.658786e+02
3.093262e+03,3.319145e+02
3.096155e+03,3.533764e+02
3.099048e+03,3.323020e+02
3.101941e+03,3.546496e+02
3.104833e+03,3.193664e+02
3.107726e+03,3.307204e+02
3.110619e+03,3.346023e+02
3.113511e+03,3.272994e+02
3.116404e+03,3.234693e+02
3.119297e+03,3.407437e+02
3.122189e+03,3.448192e+02
3.125082e+03,3.418796e+02
3.127975e+03,3.570608e+02
3.130868e+03,3.409510e+02
3.133760e+03,3.571741e+02
3.136653e+03,3.202452e+02
3.139546e+03,3.688665e+02
3.142438e+03,3.350187e+02
3.145331e+03,2.961401e+02
3.148224e+03,3.398055e+02
3.151116e+03,3.457319e+02
3.154009e+03,3.819475e+02
3.156902e+03,3.346802e+02
3.159795e+03,3.148856e+02
3.162687e+03,3.270225e+02
3.165580e+03,3.544252e+02
3.168473e+03,3.430276e+02
3.171365e+03,3.377116e+02
3.174258e+03,3.544220e+02
3.177151e+03,3.164525e+02
3.180043e+03,3.439627e+02
3.182936e+03,3.535422e+02
3.185829e+03,3.479626e+02
3.188722e+03,3.221377e+02
3.191614e+03,3.600934e+02
3.194507e+03,3.405556e+02
3.197400e+03,3.240590e+02
3.200292e+03,3.367529e+02
3.203185e+03,0.000000e+00
3.206078e+03,0.000000e+00
3.208970e+03,0.000000e+00
3.211863e+03,0.000000e+00
3.214756e+03,0.000000e+00
3.217649e+03,0.000000e+00
3.220541e+03,0.000000e+00
3.223434e+03,0.000000e+00
3.226327e+03,0.000000e+00
3.229219e+03,0.000000e+00
3.232112e+03,0.000000e+00
3.235005e+03,0.000000e+00
3.237897e+03,0.000000e+00
3.240790e+03,0.000000e+00
3.243683e+03,0.000000e+00
3.246576e+03,0.000000e+00
3.249468e+03,0.000000e+00
3.252361e+03,0.000000e+00
3.255254e+03,0.000000e+00
3.258146e+03,0.000000e+00
3.261039e+03,0.000000e+00
3.263932e+03,0.000000e+00
3.266824e+03,0.000000e+00
3.269717e+03,0.000000e+00
3.272610e+03,0.000000e+00
3.275503e+03,0.000000e+00
3.278395e+03,0.000000e+00
3.281288e+03,0.000000e+00
3.284181e+03,0.000000e+00
3.287073e+03,0.000000e+00
3.289966e+03,0.000000e+00
3.292859e+03,0.000000e+00
3.295751e+03,0.000000e+00
3.298644e+03,0.000000e+00
3.301537e+03,0.000000e+00
3.304430e+03,0.000000e+00
3.307322e+03,0.000000e+00
3.310215e+03,0.000000e+00
3.313108e+03,0.000000e+00
3.316000e+03,0.000000e+00
3.318893e+03,0.000000e+00
3.321786e+03,0.000000e+00
3.324678e+03,0.000000e+00
3.327571e+03,0.000000e+00
3.330464e+03,0.000000e+00
3.333357e+03,0.000000e+00
3.336249e+03,0.000000e+00
3.339142e+03,0.000000e+00
3.342035e+03,0.000000e+00
3.344927e+03,0.000000e+00
3.347820e+03,0.000000e+00
3.350713e+03,0.000000e+00
3.353605e+03,0.000000e+00
3.356498e+03,0.000000e+00
3.359391e+03,0.000000e+00
3.362284e+03,0.000000e+00
3.365176e+03,0.000000e+00
3.368069e+03,0.000000e+00
3.370962e+03,0.000000e+00
3.373854e+03,0.000000e+00
3.376747e+03,0.000000e+00
3.379640e+03,0.000000e+00
3.382532e+03,0.000000e+00
3.385425e+03,0.000000e+00
3.388318e+03,0.000000e+00
3.391211e+03,0.000000e+00
3.394103e+03,0.000000e+00
3.396996e+03,0.000000e+00
3.399889e+03,0.000000e+00
3.402781e+03,0.000000e+00
3.405674e+03,0.000000e+00
3.408567e+03,0.000000e+00
3.411459e+03,0.000000e+00
3.414352e+03,0.000000e+00
3.417245e+03,0.000000e+00
3.420138e+03,0.000000e+00
3.423030e+03,0.000000e+00
3.425923e+03,0.000000e+00
3.428816e+03,0.000000e+00
3.431708e+03,0.000000e+00
3.434601e+03,0.000000e+00
3.437494e+03,0.000000e+00
3.440386e+03,0.000000e+00
3.443279e+03,0.000000e+00
3.446172e+03,0.000000e+00
3.449065e+03,0.000000e+00
3.451957e+03,0.000000e+00
3.454850e+03,0.000000e+00
3.457743e+03,0.000000e+00
3.460635e+03,0.000000e+00
3.463528e+03,0.000000e+00
3.466421e+03,0.000000e+00
3.469313e+03,0.000000e+00
3.472206e+03,0.000000e+00
3.475099e+03,0.000000e+00
3.477992e+03,0.000000e+00
3.480884e+03,0.000000e+00
3.483777e+03,0.000000e+00
3.486670e+03,0.000000e+00
3.489563e+03,0.000000e+00
3.492455e+03,0.000000e+00
3.495348e+03,0.000000e+00
3.498240e+03,0.000000e+00
3.500169e+03,0.000000e+00