File: RAMAN_data/06022023_r2/blue fibre3.CSV
9.931763e+01,0.000000e+00
1.022103e+02,0.000000e+00
1.051030e+02,0.000000e+00
1.079957e+02,0.000000e+00
1.108884e+02,0.000000e+00
1.137811e+02,0.000000e+00
1.166738e+02,0.000000e+00
1.195665e+02,0.000000e+00
1.224592e+02,0.000000e+00
1.253519e+02,0.000000e+00
1.282446e+02,0.000000e+00
1.311373e+02,0.000000e+00
1.340300e+02,0.000000e+00
1.369227e+02,0.000000e+00
1.398154e+02,0.000000e+00
1.427081e+02,0.000000e+00
1.456008e+02,0.000000e+00
1.484935e+02,0.000000e+00
1.513862e+02,0.000000e+00
1.542789e+02,0.000000e+00
1.571716e+02,0.000000e+00
1.600643e+02,0.000000e+00
1.629570e+02,0.000000e+00
1.658497e+02,0.000000e+00
1.687424e+02,0.000000e+00
1.716351e+02,0.000000e+00
1.745278e+02,0.000000e+00
1.774205e+02,0.000000e+00
1.803132e+02,0.000000e+00
1.832059e+02,0.000000e+00
1.860986e+02,0.000000e+00
1.889913e+02,0.000000e+00
1.918840e+02,0.000000e+00
1.947767e+02,0.000000e+00
1.976694e+02,0.000000e+00
2.005621e+02,1.838557e+03
2.034548e+02,1.855725e+03
2.063475e+02,1.860922e+03
2.092402e+02,1.856093e+03
2.121329e+02,1.850996e+03
2.150256e+02,1.858919e+03
2.179183e+02,1.854105e+03
2.208110e+02,1.865074e+03
2.237037e+02,1.857327e+03
2.265964e+02,1.844042e+03
2.294892e+02,1.837877e+03
2.323819e+02,1.835873e+03
2.352746e+02,1.849140e+03
2.381673e+02,1.844976e+03
2.410600e+02,1.835698e+03
2.439527e+02,1.834524e+03
2.468454e+02,1.833086e+03
2.497381e+02,1.849531e+03
2.526308e+02,1.842615e+03
2.555235e+02,1.838337e+03
2.584161e+02,1.838854e+03
2.613088e+02,1.827329e+03
2.642015e+02,1.841363e+03
2.670942e+02,1.845659e+03
2.699869e+02,1.841387e+03
2.728796e+02,1.825618e+03
2.757723e+02,1.835950e+03
2.786650e+02,1.843378e+03
2.815577e+02,1.856820e+03
2.844504e+02,1.842002e+03
2.873431e+02,1.835648e+03
2.902358e+02,1.840170e+03
2.931285e+02,1.839293e+03
2.960212e+02,1.832852e+03
2.989139e+02,1.844286e+03
3.018066e+02,1.830244e+03
3.046993e+02,1.835605e+03
3.075920e+02,1.834563e+03
3.104847e+02,1.836775e+03
3.133774e+02,1.840538e+03
3.162701e+02,1.832598e+03
3.191628e+02,1.829742e+03
3.220555e+02,1.828397e+03
3.249482e+02,1.839037e+03
3.278409e+02,1.842930e+03
3.307336e+02,1.833198e+03
3.336263e+02,1.822535e+03
3.365190e+02,1.821828e+03
3.394117e+02,1.822001e+03
3.423044e+02,1.830203e+03
3.451971e+02,1.820943e+03
3.480898e+02,1.819667e+03
3.509825e+02,1.813095e+03
3.538752e+02,1.813854e+03
3.567680e+02,1.817697e+03
3.596607e+02,1.821543e+03
3.625534e+02,1.814532e+03
3.654461e+02,1.814010e+03
3.683388e+02,1.807559e+03
3.712315e+02,1.812956e+03
3.741242e+02,1.821700e+03
3.770169e+02,1.836011e+03
3.799096e+02,1.826194e+03
3.828023e+02,1.809417e+03
3.856950e+02,1.811340e+03
3.885877e+02,1.802275e+03
3.914804e+02,1.798382e+03
3.943731e+02,1.799930e+03
3.972658e+02,1.787602e+03
4.001585e+02,1.797636e+03
4.030512e+02,1.784428e+03
4.059439e+02,1.794575e+03
4.088366e+02,1.791816e+03
4.117293e+02,1.780855e+03
4.146220e+02,1.785191e+03
4.175147e+02,1.784500e+03
4.204074e+02,1.785858e+03
4.233001e+02,1.790946e+03
4.261928e+02,1.783144e+03
4.290855e+02,1.778350e+03
4.319782e+02,1.792521e+03
4.348709e+02,1.792226e+03
4.377636e+02,1.788312e+03
4.406563e+02,1.763205e+03
4.435490e+02,1.768235e+03
4.464417e+02,1.762397e+03
4.493344e+02,1.776890e+03
4.522271e+02,1.767662e+03
4.551198e+02,1.770157e+03
4.580125e+02,1.762804e+03
4.609052e+02,1.757280e+03
4.637979e+02,1.748651e+03
4.666906e+02,1.746016e+03
4.695833e+02,1.755633e+03
4.724760e+02,1.740165e+03
4.753687e+02,1.743884e+03
4.782614e+02,1.735217e+03
4.811541e+02,1.745635e+03
4.840468e+02,1.750465e+03
4.869395e+02,1.735743e+03
4.898322e+02,1.739661e+03
4.927249e+02,1.728281e+03
4.956176e+02,1.727769e+03
4.985103e+02,1.741510e+03
5.014030e+02,1.723432e+03
5.042957e+02,1.718102e+03
5.071884e+02,1.726675e+03
5.100811e+02,1.707026e+03
5.129738e+02,1.725774e+03
5.158665e+02,1.718346e+03
5.187592e+02,1.725369e+03
5.216519e+02,1.716327e+03
5.245446e+02,1.713292e+03
5.274373e+02,1.726217e+03
5.303300e+02,1.711967e+03
5.332227e+02,1.704064e+03
5.361154e+02,1.697741e+03
5.390081e+02,1.705313e+03
5.419008e+02,1.694092e+03
5.447935e+02,1.688839e+03
5.476862e+02,1.693415e+03
5.505789e+02,1.681322e+03
5.534716e+02,1.677567e+03
5.563643e+02,1.676308e+03
5.592570e+02,1.681127e+03
5.621497e+02,1.665843e+03
5.650424e+02,1.684297e+03
5.679351e+02,1.680242e+03
5.708278e+02,1.662161e+03
5.737205e+02,1.661070e+03
5.766132e+02,1.659698e+03
5.795059e+02,1.667519e+03
5.823986e+02,1.663100e+03
5.852913e+02,1.645904e+03
5.881840e+02,1.665221e+03
5.910767e+02,1.660342e+03
5.939694e+02,1.645850e+03
5.968621e+02,1.650302e+03
5.997548e+02,1.639955e+03
6.026475e+02,1.643789e+03
6.055402e+02,1.650910e+03
6.084329e+02,1.636358e+03
6.113256e+02,1.639568e+03
6.142183e+02,1.639575e+03
6.171110e+02,1.638708e+03
6.200037e+02,1.633699e+03
6.228964e+02,1.618478e+03
6.257891e+02,1.636936e+03
6.286818e+02,1.638989e+03
6.315745e+02,1.626964e+03
6.344672e+02,1.612961e+03
6.373599e+02,1.626543e+03
6.402526e+02,1.608479e+03
6.431453e+02,1.613750e+03
6.460380e+02,1.610809e+03
6.489307e+02,1.614695e+03
6.518234e+02,1.606170e+03
6.547161e+02,1.602483e+03
6.576088e+02,1.600753e+03
6.605015e+02,1.601796e+03
6.633942e+02,1.594362e+03
6.662869e+02,1.583895e+03
6.691796e+02,1.587934e+03
6.720723e+02,1.582885e+03
6.749650e+02,1.589131e+03
6.778577e+02,1.576443e+03
6.807504e+02,1.585281e+03
6.836431e+02,1.575409e+03
6.865358e+02,1.569156e+03
6.894285e+02,1.574022e+03
6.923212e+02,1.579446e+03
6.952139e+02,1.562950e+03
6.981066e+02,1.572027e+03
7.009993e+02,1.549648e+03
7.038920e+02,1.560717e+03
7.067847e+02,1.551043e+03
7.096774e+02,1.551962e+03
7.125701e+02,1.549224e+03
7.154628e+02,1.559588e+03
7.183555e+02,1.549055e+03
7.212482e+02,1.536761e+03
7.241409e+02,1.550224e+03
7.270336e+02,1.535516e+03
7.299263e+02,1.528441e+03
7.328190e+02,1.526517e+03
7.357117e+02,1.531934e+03
7.386044e+02,1.533552e+03
7.414971e+02,1.531333e+03
7.443898e+02,1.529316e+03
7.472825e+02,1.536810e+03
7.501752e+02,1.520421e+03
7.530679e+02,1.514490e+03
7.559606e+02,1.513961e+03
7.588533e+02,1.515934e+03
7.617460e+02,1.503569e+03
7.646387e+02,1.501520e+03
7.675314e+02,1.495171e+03
7.704241e+02,1.495303e+03
7.733168e+02,1.496448e+03
7.762095e+02,1.495727e+03
7.791022e+02,1.498966e+03
7.819949e+02,1.496483e+03
7.848876e+02,1.479513e+03
7.877803e+02,1.480832e+03
7.906730e+02,1.474663e+03
7.935657e+02,1.491252e+03
7.964584e+02,1.488999e+03
7.993511e+02,1.468631e+03
8.022438e+02,1.475494e+03
8.051365e+02,1.465766e+03
8.080292e+02,1.471726e+03
8.109219e+02,1.465508e+03
8.138146e+02,1.462873e+03
8.167073e+02,1.474582e+03
8.196000e+02,1.453805e+03
8.224927e+02,1.459614e+03
8.253854e+02,1.459359e+03
8.282781e+02,1.456440e+03
8.311708e+02,1.452646e+03
8.340635e+02,1.439589e+03
8.369562e+02,1.449213e+03
8.398489e+02,1.449581e+03
8.427416e+02,1.456294e+03
8.456343e+02,1.433411e+03
8.485270e+02,1.441077e+03
8.514197e+02,1.441682e+03
8.543124e+02,1.435260e+03
8.572051e+02,1.434901e+03
8.600978e+02,1.444589e+03
8.629905e+02,1.428085e+03
8.658832e+02,1.427667e+03
8.687759e+02,1.427581e+03
8.716686e+02,1.430926e+03
8.745613e+02,1.416211e+03
8.774540e+02,1.429692e+03
8.803467e+02,1.436029e+03
8.832394e+02,1.423759e+03
8.861321e+02,1.438436e+03
8.890248e+02,1.428584e+03
8.919175e+02,1.415687e+03
8.948102e+02,1.414551e+03
8.977029e+02,1.412406e+03
9.005956e+02,1.401465e+03
9.034883e+02,1.410709e+03
9.063810e+02,1.394419e+03
9.092737e+02,1.392240e+03
9.121664e+02,1.394894e+03
9.150591e+02,1.386424e+03
9.179518e+02,1.383182e+03
9.208445e+02,1.385388e+03
9.237372e+02,1.379380e+03
9.266299e+02,1.389924e+03
9.295226e+02,1.376521e+03
9.324153e+02,1.375898e+03
9.353080e+02,1.380864e+03
9.382007e+02,1.361044e+03
9.410934e+02,1.359836e+03
9.439861e+02,1.377102e+03
9.468788e+02,1.373074e+03
9.497715e+02,1.367396e+03
9.526642e+02,1.358646e+03
9.555569e+02,1.352440e+03
9.584496e+02,1.345951e+03
9.613423e+02,1.354489e+03
9.642350e+02,1.357934e+03
9.671277e+02,1.349208e+03
9.700204e+02,1.342510e+03
9.729131e+02,1.334100e+03
9.758058e+02,1.346011e+03
9.786985e+02,1.339507e+03
9.815912e+02,1.343112e+03
9.844839e+02,1.332267e+03
9.873766e+02,1.323528e+03
9.902693e+02,1.336056e+03
9.931620e+02,1.336994e+03
9.960547e+02,1.332651e+03
9.989474e+02,1.331787e+03
1.001840e+03,1.325345e+03
1.004733e+03,1.329120e+03
1.007626e+03,1.319339e+03
1.010518e+03,1.319113e+03
1.013411e+03,1.309276e+03
1.016304e+03,1.306172e+03
1.019196e+03,1.309901e+03
1.022089e+03,1.309684e+03
1.024982e+03,1.311461e+03
1.027875e+03,1.298904e+03
1.030767e+03,1.299222e+03
1.033660e+03,1.304812e+03
1.036552e+03,1.306223e+03
1.039445e+03,1.305812e+03
1.042338e+03,1.302189e+03
1.045231e+03,1.303363e+03
1.048123e+03,1.298104e+03
1.051016e+03,1.292533e+03
1.053909e+03,1.304047e+03
1.056802e+03,1.292918e+03
1.059694e+03,1.300247e+03
1.062587e+03,1.292682e+03
1.065479e+03,1.297566e+03
1.068372e+03,1.293298e+03
1.071265e+03,1.290182e+03
1.074158e+03,1.300405e+03
1.077050e+03,1.300348e+03
1.079943e+03,1.291501e+03
1.082836e+03,1.290896e+03
1.085729e+03,1.296702e+03
1.088621e+03,1.303030e+03
1.091514e+03,1.316873e+03
1.094406e+03,1.324641e+03
1.097299e+03,1.308920e+03
1.100192e+03,1.294820e+03
1.103085e+03,1.294232e+03
1.105977e+03,1.288864e+03
1.108870e+03,1.281393e+03
1.111763e+03,1.293511e+03
1.114656e+03,1.285083e+03
1.117548e+03,1.299833e+03
1.120441e+03,1.285920e+03
1.123334e+03,1.300383e+03
1.126226e+03,1.289595e+03
1.129119e+03,1.281386e+03
1.132012e+03,1.272181e+03
1.134904e+03,1.272234e+03
1.137797e+03,1.257885e+03
1.140690e+03,1.267614e+03
1.143583e+03,1.264876e+03
1.146475e+03,1.268919e+03
1.149368e+03,1.270563e+03
1.152261e+03,1.265840e+03
1.155153e+03,1.254630e+03
1.158046e+03,1.240226e+03
1.160939e+03,1.247252e+03
1.163831e+03,1.249081e+03
1.166724e+03,1.240138e+03
1.169617e+03,1.236471e+03
1.172510e+03,1.228383e+03
1.175402e+03,1.229260e+03
1.178295e+03,1.228821e+03
1.181188e+03,1.227601e+03
1.184080e+03,1.213421e+03
1.186973e+03,1.213035e+03
1.189866e+03,1.209297e+03
1.192758e+03,1.204598e+03
1.195651e+03,1.214242e+03
1.198544e+03,1.204646e+03
1.201437e+03,1.205619e+03
1.204329e+03,1.202302e+03
1.207222e+03,1.202444e+03
1.210115e+03,1.212323e+03
1.213007e+03,1.211499e+03
1.215900e+03,1.194033e+03
1.218793e+03,1.199362e+03
1.221685e+03,1.205942e+03
1.224578e+03,1.197082e+03
1.227471e+03,1.201927e+03
1.230364e+03,1.190999e+03
1.233256e+03,1.183387e+03
1.236149e+03,1.188582e+03
1.239042e+03,1.188193e+03
1.241934e+03,1.185773e+03
1.244827e+03,1.190197e+03
1.247720e+03,1.184390e+03
1.250612e+03,1.190105e+03
1.253505e+03,1.181378e+03
1.256398e+03,1.174987e+03
1.259291e+03,1.184805e+03
1.262183e+03,1.172031e+03
1.265076e+03,1.163686e+03
1.267969e+03,1.166369e+03
1.270861e+03,1.175100e+03
1.273754e+03,1.181895e+03
1.276647e+03,1.178381e+03
1.279539e+03,1.175149e+03
1.282432e+03,1.164306e+03
1.285325e+03,1.165416e+03
1.288218e+03,1.172604e+03
1.291110e+03,1.170230e+03
1.294003e+03,1.176442e+03
1.296896e+03,1.163678e+03
1.299788e+03,1.160340e+03
1.302681e+03,1.167826e+03
1.305574e+03,1.173737e+03
1.308466e+03,1.169486e+03
1.311359e+03,1.174323e+03
1.314252e+03,1.175158e+03
1.317145e+03,1.176379e+03
1.320037e+03,1.179641e+03
1.322930e+03,1.182101e+03
1.325823e+03,1.179659e+03
1.328715e+03,1.165258e+03
1.331608e+03,1.173503e+03
1.334501e+03,1.179279e+03
1.337393e+03,1.169159e+03
1.340286e+03,1.158035e+03
1.343179e+03,1.148840e+03
1.346072e+03,1.148209e+03
1.348964e+03,1.151902e+03
1.351857e+03,1.138655e+03
1.354750e+03,1.145994e+03
1.357642e+03,1.134970e+03
1.360535e+03,1.143701e+03
1.363428e+03,1.143240e+03
1.366320e+03,1.149990e+03
1.369213e+03,1.142178e+03
1.372106e+03,1.145917e+03
1.374999e+03,1.145742e+03
1.377891e+03,1.143803e+03
1.380784e+03,1.142754e+03
1.383677e+03,1.133355e+03
1.386569e+03,1.144557e+03
1.389462e+03,1.124399e+03
1.392355e+03,1.126580e+03
1.395247e+03,1.120222e+03
1.398140e+03,1.124387e+03
1.401033e+03,1.108061e+03
1.403926e+03,1.118823e+03
1.406818e+03,1.115186e+03
1.409711e+03,1.108664e+03
1.412604e+03,1.110663e+03
1.415496e+03,1.104477e+03
1.418389e+03,1.099924e+03
1.421282e+03,1.101775e+03
1.424174e+03,1.096822e+03
1.427067e+03,1.105893e+03
1.429960e+03,1.097579e+03
1.432853e+03,1.095002e+03
1.435745e+03,1.084104e+03
1.438638e+03,1.088270e+03
1.441531e+03,1.083631e+03
1.444423e+03,1.096048e+03
1.447316e+03,1.087121e+03
1.450209e+03,1.078412e+03
1.453101e+03,1.076304e+03
1.455994e+03,1.083168e+03
1.458887e+03,1.090165e+03
1.461780e+03,1.078834e+03
1.464672e+03,1.085203e+03
1.467565e+03,1.079825e+03
1.470458e+03,1.080929e+03
1.473350e+03,1.065835e+03
1.476243e+03,1.080882e+03
1.479136e+03,1.070434e+03
1.482028e+03,1.069075e+03
1.484921e+03,1.072088e+03
1.487814e+03,1.078692e+03
1.490707e+03,1.063948e+03
1.493599e+03,1.068076e+03
1.496492e+03,1.058520e+03
1.499385e+03,1.058912e+03
1.502277e+03,1.049137e+03
1.505170e+03,1.052125e+03
1.508063e+03,1.045959e+03
1.510955e+03,1.045840e+03
1.513848e+03,1.036984e+03
1.516741e+03,1.042976e+03
1.519634e+03,1.044829e+03
1.522526e+03,1.052427e+03
1.525419e+03,1.032057e+03
1.528312e+03,1.027741e+03
1.531204e+03,1.028924e+03
1.534097e+03,1.041842e+03
1.536990e+03,1.040409e+03
1.539882e+03,1.027714e+03
1.542775e+03,1.029388e+03
1.545668e+03,1.032051e+03
1.548561e+03,1.029541e+03
1.551453e+03,1.032698e+03
1.554346e+03,1.026527e+03
1.557239e+03,1.021958e+03
1.560131e+03,1.015369e+03
1.563024e+03,1.021184e+03
1.565917e+03,1.025687e+03
1.568809e+03,1.018922e+03
1.571702e+03,1.019864e+03
1.574595e+03,1.009448e+03
1.577488e+03,1.009926e+03
1.580380e+03,1.012105e+03
1.583273e+03,1.016170e+03
1.586166e+03,1.002562e+03
1.589058e+03,1.011101e+03
1.591951e+03,1.004282e+03
1.594844e+03,1.010828e+03
1.597736e+03,9.994708e+02
1.600629e+03,1.001460e+03
1.603522e+03,1.001979e+03
1.606415e+03,1.002691e+03
1.609307e+03,1.006218e+03
1.612200e+03,1.002215e+03
1.615093e+03,1.008358e+03
1.617985e+03,9.964037e+02
1.620878e+03,9.878918e+02
1.623771e+03,9.786345e+02
1.626663e+03,9.877396e+02
1.629556e+03,9.821816e+02
1.632449e+03,9.702356e+02
1.635342e+03,9.702214e+02
1.638234e+03,9.754183e+02
1.641127e+03,9.797010e+02
1.644020e+03,9.563481e+02
1.646912e+03,9.697596e+02
1.649805e+03,9.642590e+02
1.652698e+03,9.719783e+02
1.655590e+03,9.653054e+02
1.658483e+03,9.606224e+02
1.661376e+03,9.617822e+02
1.664269e+03,9.604412e+02
1.667161e+03,9.509551e+02
1.670054e+03,9.615092e+02
1.672947e+03,9.600168e+02
1.675839e+03,9.514210e+02
1.678732e+03,9.512010e+02
1.681625e+03,9.428362e+02
1.684517e+03,9.452298e+02
1.687410e+03,9.481876e+02
1.690303e+03,9.509721e+02
1.693196e+03,9.410193e+02
1.696088e+03,9.348854e+02
1.698981e+03,9.414808e+02
1.701874e+03,9.393263e+02
1.704766e+03,9.419609e+02
1.707659e+03,9.471937e+02
1.710552e+03,9.257795e+02
1.713444e+03,9.225333e+02
1.716337e+03,9.238224e+02
1.719230e+03,9.343726e+02
1.722123e+03,9.246035e+02
1.725015e+03,9.232018e+02
1.727908e+03,9.185662e+02
1.730801e+03,9.125226e+02
1.733693e+03,9.177415e+02
1.736586e+03,9.202689e+02
1.739479e+03,9.185515e+02
1.742371e+03,9.023610e+02
1.745264e+03,9.119679e+02
1.748157e+03,9.165175e+02
1.751050e+03,9.112338e+02
1.753942e+03,9.002521e+02
1.756835e+03,8.983354e+02
1.759728e+03,8.951718e+02
1.762620e+03,8.906285e+02
1.765513e+03,8.966976e+02
1.768406e+03,8.970202e+02
1.771298e+03,8.960218e+02
1.774191e+03,8.853280e+02
1.777084e+03,8.770165e+02
1.779977e+03,8.725458e+02
1.782869e+03,8.747902e+02
1.785762e+03,8.747958e+02
1.788655e+03,8.697910e+02
1.791547e+03,8.717790e+02
1.794440e+03,8.640411e+02
1.797333e+03,8.761503e+02
1.800225e+03,8.792654e+02
1.803118e+03,8.744943e+02
1.806011e+03,8.686754e+02
1.808904e+03,8.689755e+02
1.811796e+03,8.568767e+02
1.814689e+03,8.608022e+02
1.817582e+03,8.657371e+02
1.820474e+03,8.482816e+02
1.823367e+03,8.559549e+02
1.826260e+03,8.495065e+02
1.829152e+03,8.532440e+02
1.832045e+03,8.459003e+02
1.834938e+03,8.460032e+02
1.837831e+03,8.402040e+02
1.840723e+03,8.486961e+02
1.843616e+03,8.503307e+02
1.846509e+03,8.536481e+02
1.849401e+03,8.277098e+02
1.852294e+03,8.202156e+02
1.855187e+03,8.321071e+02
1.858079e+03,8.333867e+02
1.860972e+03,8.418851e+02
1.863865e+03,8.291683e+02
1.866758e+03,8.225018e+02
1.869650e+03,8.249278e+02
1.872543e+03,8.252927e+02
1.875436e+03,8.211282e+02
1.878328e+03,8.188968e+02
1.881221e+03,8.199503e+02
1.884114e+03,8.088397e+02
1.887006e+03,8.123888e+02
1.889899e+03,8.086344e+02
1.892792e+03,8.189447e+02
1.895685e+03,8.116139e+02
1.898577e+03,8.114509e+02
1.901470e+03,8.039922e+02
1.904363e+03,7.968032e+02
1.907255e+03,8.038568e+02
1.910148e+03,8.018342e+02
1.913041e+03,7.892258e+02
1.915933e+03,7.948444e+02
1.918826e+03,7.883434e+02
1.921719e+03,7.873301e+02
1.924612e+03,7.891599e+02
1.927504e+03,7.865402e+02
1.930397e+03,7.736953e+02
1.933290e+03,7.755627e+02
1.936182e+03,7.789080e+02
1.939075e+03,7.832678e+02
1.941968e+03,7.689688e+02
1.944860e+03,7.649921e+02
1.947753e+03,7.731168e+02
1.950646e+03,7.679081e+02
1.953539e+03,7.694108e+02
1.956431e+03,7.644874e+02
1.959324e+03,7.706510e+02
1.962217e+03,7.590597e+02
1.965109e+03,7.578265e+02
1.968002e+03,7.625549e+02
1.970895e+03,7.625905e+02
1.973787e+03,7.609133e+02
1.976680e+03,7.549403e+02
1.979573e+03,7.581731e+02
1.982466e+03,7.442444e+02
1.985358e+03,7.511044e+02
1.988251e+03,7.483334e+02
1.991144e+03,7.411605e+02
1.994036e+03,7.364961e+02
1.996929e+03,7.460162e+02
1.999822e+03,7.498529e+02
2.002714e+03,7.371002e+02
2.005607e+03,7.322355e+02
2.008500e+03,7.253520e+02
2.011393e+03,7.384283e+02
2.014285e+03,7.369926e+02
2.017178e+03,7.234305e+02
2.020071e+03,7.179753e+02
2.022963e+03,7.180692e+02
2.025856e+03,7.185352e+02
2.028749e+03,7.313485e+02
2.031641e+03,7.122581e+02
2.034534e+03,7.191154e+02
2.037427e+03,7.113627e+02
2.040320e+03,7.044016e+02
2.043212e+03,7.065950e+02
2.046105e+03,6.999589e+02
2.048998e+03,6.993153e+02
2.051890e+03,7.042045e+02
2.054783e+03,7.111315e+02
2.057676e+03,7.003621e+02
2.060568e+03,7.022741e+02
2.063461e+03,6.868956e+02
2.066354e+03,6.967737e+02
2.069247e+03,6.888166e+02
2.072139e+03,6.802582e+02
2.075032e+03,6.765920e+02
2.077925e+03,6.837679e+02
2.080817e+03,6.848878e+02
2.083710e+03,6.839112e+02
2.086603e+03,6.648936e+02
2.089496e+03,6.852277e+02
2.092388e+03,6.765606e+02
2.095281e+03,6.665984e+02
2.098174e+03,6.815353e+02
2.101066e+03,6.737714e+02
2.103959e+03,6.622008e+02
2.106852e+03,6.608918e+02
2.109744e+03,6.708416e+02
2.112637e+03,6.633411e+02
2.115530e+03,6.534028e+02
2.118422e+03,6.686680e+02
2.121315e+03,6.571337e+02
2.124208e+03,6.576662e+02
2.127101e+03,6.401776e+02
2.129993e+03,6.515607e+02
2.132886e+03,6.501466e+02
2.135779e+03,6.461492e+02
2.138671e+03,6.554150e+02
2.141564e+03,6.515953e+02
2.144457e+03,6.518680e+02
2.147350e+03,6.346654e+02
2.150242e+03,6.408050e+02
2.153135e+03,6.359031e+02
2.156028e+03,6.330031e+02
2.158920e+03,6.277546e+02
2.161813e+03,6.381887e+02
2.164706e+03,6.431142e+02
2.167598e+03,6.285940e+02
2.170491e+03,6.367128e+02
2.173384e+03,6.197292e+02
2.176277e+03,6.202933e+02
2.179169e+03,6.186816e+02
2.182062e+03,6.167639e+02
2.184955e+03,6.311284e+02
2.187847e+03,6.176682e+02
2.190740e+03,6.194459e+02
2.193633e+03,6.125040e+02
2.196525e+03,6.078202e+02
2.199418e+03,6.067894e+02
2.202311e+03,6.119683e+02
2.205204e+03,6.078323e+02
2.208096e+03,6.175478e+02
2.210989e+03,6.041690e+02
2.213882e+03,6.035421e+02
2.216774e+03,6.014652e+02
2.219667e+03,6.014635e+02
2.222560e+03,5.934354e+02
2.225452e+03,5.902758e+02
2.228345e+03,5.917823e+02
2.231238e+03,5.976180e+02
2.234131e+03,5.921086e+02
2.237023e+03,5.931555e+02
2.239916e+03,5.936602e+02
2.242809e+03,5.896080e+02
2.245701e+03,5.752830e+02
2.248594e+03,5.787830e+02
2.251487e+03,5.834502e+02
2.254379e+03,5.745352e+02
2.257272e+03,5.806728e+02
2.260165e+03,5.723107e+02
2.263058e+03,5.783697e+02
2.265950e+03,5.811555e+02
2.268843e+03,5.788492e+02
2.271736e+03,5.631139e+02
2.274628e+03,5.629626e+02
2.277521e+03,5.588707e+02
2.280414e+03,5.634774e+02
2.283306e+03,5.598492e+02
2.286199e+03,5.614412e+02
2.289092e+03,5.575654e+02
2.291985e+03,5.652931e+02
2.294877e+03,5.522282e+02
2.297770e+03,5.595775e+02
2.300663e+03,5.634528e+02
2.303555e+03,5.460942e+02
2.306448e+03,5.471655e+02
2.309341e+03,5.450970e+02
2.312233e+03,5.431381e+02
2.315126e+03,5.402578e+02
2.318019e+03,5.475334e+02
2.320912e+03,5.371378e+02
2.323804e+03,5.337856e+02
2.326697e+03,5.404439e+02
2.329590e+03,5.354783e+02
2.332482e+03,5.417809e+02
2.335375e+03,5.270017e+02
2.338268e+03,5.320328e+02
2.341160e+03,5.242165e+02
2.344053e+03,5.333241e+02
2.346946e+03,5.411395e+02
2.349839e+03,5.268854e+02
2.352731e+03,5.316525e+02
2.355624e+03,5.380204e+02
2.358517e+03,5.302545e+02
2.361409e+03,5.252999e+02
2.364302e+03,5.188947e+02
2.367195e+03,5.234301e+02
2.370087e+03,5.205547e+02
2.372980e+03,5.219435e+02
2.375873e+03,5.239298e+02
2.378766e+03,5.104061e+02
2.381658e+03,5.159625e+02
2.384551e+03,5.105075e+02
2.387444e+03,5.124559e+02
2.390336e+03,5.099121e+02
2.393229e+03,5.060907e+02
2.396122e+03,5.031898e+02
2.399014e+03,5.024520e+02
2.401907e+03,5.168353e+02
2.404800e+03,5.053154e+02
2.407693e+03,4.982639e+02
2.410585e+03,5.009037e+02
2.413478e+03,5.056416e+02
2.416371e+03,5.002167e+02
2.419263e+03,5.018444e+02
2.422156e+03,5.023643e+02
2.425049e+03,4.929364e+02
2.427941e+03,4.899508e+02
2.430834e+03,4.802210e+02
2.433727e+03,4.871323e+02
2.436620e+03,4.916163e+02
2.439512e+03,4.886254e+02
2.442405e+03,4.833526e+02
2.445298e+03,4.985228e+02
2.448190e+03,4.798407e+02
2.451083e+03,4.865746e+02
2.453976e+03,4.870057e+02
2.456868e+03,4.931007e+02
2.459761e+03,4.784402e+02
2.462654e+03,4.870108e+02
2.465547e+03,4.735634e+02
2.468439e+03,4.806257e+02
2.471332e+03,4.741868e+02
2.474225e+03,4.693163e+02
2.477117e+03,4.671882e+02
2.480010e+03,4.719650e+02
2.482903e+03,4.713301e+02
2.485795e+03,4.818183e+02
2.488688e+03,4.703095e+02
2.491581e+03,4.758609e+02
2.494474e+03,4.704370e+02
2.497366e+03,4.705444e+02
2.500259e+03,4.726343e+02
2.503152e+03,4.621239e+02
2.506044e+03,4.743795e+02
2.508937e+03,4.619104e+02
2.511830e+03,4.602745e+02
2.514722e+03,4.656622e+02
2.517615e+03,4.645584e+02
2.520508e+03,4.591174e+02
2.523401e+03,4.573434e+02
2.526293e+03,4.596284e+02
2.529186e+03,4.529458e+02
2.532079e+03,4.527394e+02
2.534971e+03,4.505061e+02
2.537864e+03,4.451854e+02
2.540757e+03,4.469839e+02
2.543649e+03,4.574041e+02
2.546542e+03,4.583825e+02
2.549435e+03,4.400979e+02
2.552328e+03,4.496076e+02
2.555220e+03,4.568060e+02
2.558113e+03,4.588994e+02
2.561006e+03,4.562567e+02
2.563898e+03,4.415764e+02
2.566791e+03,4.502588e+02
2.569684e+03,4.521330e+02
2.572576e+03,4.493646e+02
2.575469e+03,4.401364e+02
2.578362e+03,4.569317e+02
2.581255e+03,4.425587e+02
2.584147e+03,4.412562e+02
2.587040e+03,4.327156e+02
2.589933e+03,4.458185e+02
2.592825e+03,4.194458e+02
2.595718e+03,4.305233e+02
2.598611e+03,4.349809e+02
2.601503e+03,4.313796e+02
2.604396e+03,4.275402e+02
2.607289e+03,4.399185e+02
2.610182e+03,4.325618e+02
2.613074e+03,4.246508e+02
2.615967e+03,4.302618e+02
2.618860e+03,4.163545e+02
2.621752e+03,4.278050e+02
2.624645e+03,4.214176e+02
2.627538e+03,4.329470e+02
2.630430e+03,4.177854e+02
2.633323e+03,4.247784e+02
2.636216e+03,4.311641e+02
2.639109e+03,4.262233e+02
2.642001e+03,4.315599e+02
2.644894e+03,4.085338e+02
2.647787e+03,4.165025e+02
2.650679e+03,4.167651e+02
2.653572e+03,4.057050e+02
2.656465e+03,4.183096e+02
2.659357e+03,4.278711e+02
2.662250e+03,4.216986e+02
2.665143e+03,4.130566e+02
2.668036e+03,4.054291e+02
2.670928e+03,4.113571e+02
2.673821e+03,4.088399e+02
2.676714e+03,4.032634e+02
2.679606e+03,4.148542e+02
2.682499e+03,4.111510e+02
2.685392e+03,4.069539e+02
2.688284e+03,4.094418e+02
2.691177e+03,4.035102e+02
2.694070e+03,3.886439e+02
2.696963e+03,4.047732e+02
2.699855e+03,3.990779e+02
2.702748e+03,4.141261e+02
2.705641e+03,3.934244e+02
2.708533e+03,4.155367e+02
2.711426e+03,3.976703e+02
2.714319e+03,3.955452e+02
2.717211e+03,4.047467e+02
2.720104e+03,3.907028e+02
2.722997e+03,3.965539e+02
2.725890e+03,4.004146e+02
2.728782e+03,3.917695e+02
2.731675e+03,3.889513e+02
2.734568e+03,3.995992e+02
2.737460e+03,3.927638e+02
2.740353e+03,4.022877e+02
2.743246e+03,3.887096e+02
2.746138e+03,3.864434e+02
2.749031e+03,3.949508e+02
2.751924e+03,3.946339e+02
2.754817e+03,3.880477e+02
2.757709e+03,3.789711e+02
2.760602e+03,3.857814e+02
2.763495e+03,3.831902e+02
2.766387e+03,3.858952e+02
2.769280e+03,3.703745e+02
2.772173e+03,3.899931e+02
2.775065e+03,3.798252e+02
2.777958e+03,3.839297e+02
2.780851e+03,3.914997e+02
2.783744e+03,3.604336e+02
2.786636e+03,3.651591e+02
2.789529e+03,3.718056e+02
2.792422e+03,3.814089e+02
2.795314e+03,3.665264e+02
2.798207e+03,3.840020e+02
2.801100e+03,3.815519e+02
2.803992e+03,3.745449e+02
2.806885e+03,3.720703e+02
2.809778e+03,3.690532e+02
2.812671e+03,3.794554e+02
2.815563e+03,3.652415e+02
2.818456e+03,3.623329e+02
2.821349e+03,3.815360e+02
2.824241e+03,3.575131e+02
2.827134e+03,3.894745e+02
2.830027e+03,3.698878e+02
2.832919e+03,3.675930e+02
2.835812e+03,3.722346e+02
2.838705e+03,3.696515e+02
2.841598e+03,3.766283e+02
2.844490e+03,3.797122e+02
2.847383e+03,3.789695e+02
2.850276e+03,3.908776e+02
2.853168e+03,3.792601e+02
2.856061e+03,3.846641e+02
2.858954e+03,3.761504e+02
2.861846e+03,3.795808e+02
2.864739e+03,3.775997e+02
2.867632e+03,3.849010e+02
2.870525e+03,3.928549e+02
2.873417e+03,3.890322e+02
2.876310e+03,3.882297e+02
2.879203e+03,3.802548e+02
2.882095e+03,3.940800e+02
2.884988e+03,3.882992e+02
2.887881e+03,3.804989e+02
2.890773e+03,4.014342e+02
2.893666e+03,3.953715e+02
2.896559e+03,3.796789e+02
2.899452e+03,4.088829e+02
2.902344e+03,4.071554e+02
2.905237e+03,3.868458e+02
2.908130e+03,3.994392e+02
2.911022e+03,3.943596e+02
2.913915e+03,3.662914e+02
2.916808e+03,3.641043e+02
2.919700e+03,3.858164e+02
2.922593e+03,3.543810e+02
2.925486e+03,3.788086e+02
2.928379e+03,3.736765e+02
2.931271e+03,3.632869e+02
2.934164e+03,3.641651e+02
2.937057e+03,3.619188e+02
2.939949e+03,3.848753e+02
2.942842e+03,3.630450e+02
2.945735e+03,3.778600e+02
2.948627e+03,3.720207e+02
2.951520e+03,3.578312e+02
2.954413e+03,3.447676e+02
2.957306e+03,4.020867e+02
2.960198e+03,3.822261e+02
2.963091e+03,3.538138e+02
2.965984e+03,3.664520e+02
2.968876e+03,3.667386e+02
2.971769e+03,3.545156e+02
2.974662e+03,3.497335e+02
2.977554e+03,3.354969e+02
2.980447e+03,3.379325e+02
2.983340e+03,3.503134e+02
2.986233e+03,3.506818e+02
2.989125e+03,3.389190e+02
2.992018e+03,3.322155e+02
2.994911e+03,3.268378e+02
2.997803e+03,3.352066e+02
3.000696e+03,3.398200e+02
3.003589e+03,3.274270e+02
3.006481e+03,3.505472e+02
3.009374e+03,3.298165e+02
3.012267e+03,3.307972e+02
3.015160e+03,3.423282e+02
3.018052e+03,3.244801e+02
3.020945e+03,3.262225e+02
3.023838e+03,3.308986e+02
3.026730e+03,3.131524e+02
3.029623e+03,3.232849e+02
3.032516e+03,3.207244e+02
3.035408e+03,3.106141e+02
3.038301e+03,3.188535e+02
3.041194e+03,3.226554e+02
3.044087e+03,3.155669e+02
3.046979e+03,3.125952e+02
3.049872e+03,3.138208e+02
3.052765e+03,3.155775e+02
3.055657e+03,3.422697e+02
3.058550e+03,3.204897e+02
3.061443e+03,3.141497e+02
3.064335e+03,3.119387e+02
3.067228e+03,3.262455e+02
3.070121e+03,3.207396e+02
3.073014e+03,3.209560e+02
3.075906e+03,3.301673e+02
3.078799e+03,3.309678e+02
3.081692e+03,3.306540e+02
3.084584e+03,3.181434e+02
3.087477e+03,3.226627e+02
3.090370e+03,3.201945e+02
3.093262e+03,3.059387e+02
3.096155e+03,3.271499e+02
3.099048e+03,3.111561e+02
3.101941e+03,3.365282e+02
3.104833e+03,3.023911e+02
3.107726e+03,2.980260e+02
3.110619e+03,3.347896e+02
3.113511e+03,3.109549e+02
3.116404e+03,3.221022e+02
3.119297e+03,3.164357e+02
3.122189e+03,3.403903e+02
3.125082e+03,3.454568e+02
3.127975e+03,3.365453e+02
3.130868e+03,3.219667e+02
3.133760e+03,3.302813e+02
3.136653e+03,2.830645e+02
3.139546e+03,3.053801e+02
3.142438e+03,3.378448e+02
3.145331e+03,2.983210e+02
3.148224e+03,3.257847e+02
3.151116e+03,3.096872e+02
3.154009e+03,3.288780e+02
3.156902e+03,3.154808e+02
3.159795e+03,2.868127e+02
3.162687e+03,3.501997e+02
3.165580e+03,3.400953e+02
3.168473e+03,3.296622e+02
3.171365e+03,3.117306e+02
3.174258e+03,3.434467e+02
3.177151e+03,3.015042e+02
3.180043e+03,3.067492e+02
3.182936e+03,3.364227e+02
3.185829e+03,3.140165e+02
3.188722e+03,3.394570e+02
3.191614e+03,3.226283e+02
3.194507e+03,3.184824e+02
3.197400e+03,2.990811e+02
3.200292e+03,3.520628e+02
3.203185e+03,0.000000e+00
3.206078e+03,0.000000e+00
3.208970e+03,0.000000e+00
3.211863e+03,0.000000e+00
3.214756e+03,0.000000e+00
3.217649e+03,0.000000e+00
3.220541e+03,0.000000e+00
3.223434e+03,0.000000e+00
3.226327e+03,0.000000e+00
3.229219e+03,0.000000e+00
3.232112e+03,0.000000e+00
3.235005e+03,0.000000e+00
3.237897e+03,0.000000e+00
3.240790e+03,0.000000e+00
3.243683e+03,0.000000e+00
3.246576e+03,0.000000e+00
3.249468e+03,0.000000e+00
3.252361e+03,0.000000e+00
3.255254e+03,0.000000e+00
3.258146e+03,0.000000e+00
3.261039e+03,0.000000e+00
3.263932e+03,0.000000e+00
3.266824e+03,0.000000e+00
3.269717e+03,0.000000e+00
3.272610e+03,0.000000e+00
3.275503e+03,0.000000e+00
3.278395e+03,0.000000e+00
3.281288e+03,0.000000e+00
3.284181e+03,0.000000e+00
3.287073e+03,0.000000e+00
3.289966e+03,0.000000e+00
3.292859e+03,0.000000e+00
3.295751e+03,0.000000e+00
3.298644e+03,0.000000e+00
3.301537e+03,0.000000e+00
3.304430e+03,0.000000e+00
3.307322e+03,0.000000e+00
3.310215e+03,0.000000e+00
3.313108e+03,0.000000e+00
3.316000e+03,0.000000e+00
3.318893e+03,0.000000e+00
3.321786e+03,0.000000e+00
3.324678e+03,0.000000e+00
3.327571e+03,0.000000e+00
3.330464e+03,0.000000e+00
3.333357e+03,0.000000e+00
3.336249e+03,0.000000e+00
3.339142e+03,0.000000e+00
3.342035e+03,0.000000e+00
3.344927e+03,0.000000e+00
3.347820e+03,0.000000e+00
3.350713e+03,0.000000e+00
3.353605e+03,0.000000e+00
3.356498e+03,0.000000e+00
3.359391e+03,0.000000e+00
3.362284e+03,0.000000e+00
3.365176e+03,0.000000e+00
3.368069e+03,0.000000e+00
3.370962e+03,0.000000e+00
3.373854e+03,0.000000e+00
3.376747e+03,0.000000e+00
3.379640e+03,0.000000e+00
3.382532e+03,0.000000e+00
3.385425e+03,0.000000e+00
3.388318e+03,0.000000e+00
3.391211e+03,0.000000e+00
3.394103e+03,0.000000e+00
3.396996e+03,0.000000e+00
3.399889e+03,0.000000e+00
3.402781e+03,0.000000e+00
3.405674e+03,0.000000e+00
3.408567e+03,0.000000e+00
3.411459e+03,0.000000e+00
3.414352e+03,0.000000e+00
3.417245e+03,0.000000e+00
3.420138e+03,0.000000e+00
3.423030e+03,0.000000e+00
3.425923e+03,0.000000e+00
3.428816e+03,0.000000e+00
3.431708e+03,0.000000e+00
3.434601e+03,0.000000e+00
3.437494e+03,0.000000e+00
3.440386e+03,0.000000e+00
3.443279e+03,0.000000e+00
3.446172e+03,0.000000e+00
3.449065e+03,0.000000e+00
3.451957e+03,0.000000e+00
3.454850e+03,0.000000e+00
3.457743e+03,0.000000e+00
3.460635e+03,0.000000e+00
3.463528e+03,0.000000e+00
3.466421e+03,0.000000e+00
3.469313e+03,0.000000e+00
3.472206e+03,0.000000e+00
3.475099e+03,0.000000e+00
3.477992e+03,0.000000e+00
3.480884e+03,0.000000e+00
3.483777e+03,0.000000e+00
3.486670e+03,0.000000e+00
3.489563e+03,0.000000e+00
3.492455e+03,0.000000e+00
3.495348e+03,0.000000e+00
3.498240e+03,0.000000e+00
3.500169e+03,0.000000e+00