File: RAMAN_data/06022023_r2/blue fibre.CSV
9.931763e+01,0.000000e+00
1.022103e+02,0.000000e+00
1.051030e+02,0.000000e+00
1.079957e+02,0.000000e+00
1.108884e+02,0.000000e+00
1.137811e+02,0.000000e+00
1.166738e+02,0.000000e+00
1.195665e+02,0.000000e+00
1.224592e+02,0.000000e+00
1.253519e+02,0.000000e+00
1.282446e+02,0.000000e+00
1.311373e+02,0.000000e+00
1.340300e+02,0.000000e+00
1.369227e+02,0.000000e+00
1.398154e+02,0.000000e+00
1.427081e+02,0.000000e+00
1.456008e+02,0.000000e+00
1.484935e+02,0.000000e+00
1.513862e+02,0.000000e+00
1.542789e+02,0.000000e+00
1.571716e+02,0.000000e+00
1.600643e+02,0.000000e+00
1.629570e+02,0.000000e+00
1.658497e+02,0.000000e+00
1.687424e+02,0.000000e+00
1.716351e+02,0.000000e+00
1.745278e+02,0.000000e+00
1.774205e+02,0.000000e+00
1.803132e+02,0.000000e+00
1.832059e+02,0.000000e+00
1.860986e+02,0.000000e+00
1.889913e+02,0.000000e+00
1.918840e+02,0.000000e+00
1.947767e+02,0.000000e+00
1.976694e+02,0.000000e+00
2.005621e+02,4.456701e+03
2.034548e+02,4.463838e+03
2.063475e+02,4.472267e+03
2.092402e+02,4.455826e+03
2.121329e+02,4.474355e+03
2.150256e+02,4.467150e+03
2.179183e+02,4.493199e+03
2.208110e+02,4.503137e+03
2.237037e+02,4.523788e+03
2.265964e+02,4.504606e+03
2.294892e+02,4.495969e+03
2.323819e+02,4.513115e+03
2.352746e+02,4.517104e+03
2.381673e+02,4.515974e+03
2.410600e+02,4.520358e+03
2.439527e+02,4.535706e+03
2.468454e+02,4.537890e+03
2.497381e+02,4.533631e+03
2.526308e+02,4.539858e+03
2.555235e+02,4.557674e+03
2.584161e+02,4.536637e+03
2.613088e+02,4.545134e+03
2.642015e+02,4.574266e+03
2.670942e+02,4.574051e+03
2.699869e+02,4.589934e+03
2.728796e+02,4.580481e+03
2.757723e+02,4.595054e+03
2.786650e+02,4.605041e+03
2.815577e+02,4.599672e+03
2.844504e+02,4.591514e+03
2.873431e+02,4.603732e+03
2.902358e+02,4.608208e+03
2.931285e+02,4.612693e+03
2.960212e+02,4.622162e+03
2.989139e+02,4.614711e+03
3.018066e+02,4.624549e+03
3.046993e+02,4.629286e+03
3.075920e+02,4.613783e+03
3.104847e+02,4.626692e+03
3.133774e+02,4.630196e+03
3.162701e+02,4.619529e+03
3.191628e+02,4.626682e+03
3.220555e+02,4.635185e+03
3.249482e+02,4.629625e+03
3.278409e+02,4.640885e+03
3.307336e+02,4.634229e+03
3.336263e+02,4.633581e+03
3.365190e+02,4.606375e+03
3.394117e+02,4.618653e+03
3.423044e+02,4.626083e+03
3.451971e+02,4.657312e+03
3.480898e+02,4.641763e+03
3.509825e+02,4.625477e+03
3.538752e+02,4.634318e+03
3.567680e+02,4.630521e+03
3.596607e+02,4.638313e+03
3.625534e+02,4.646567e+03
3.654461e+02,4.642675e+03
3.683388e+02,4.628403e+03
3.712315e+02,4.639894e+03
3.741242e+02,4.650646e+03
3.770169e+02,4.668295e+03
3.799096e+02,4.658864e+03
3.828023e+02,4.648056e+03
3.856950e+02,4.643359e+03
3.885877e+02,4.633007e+03
3.914804e+02,4.626766e+03
3.943731e+02,4.628424e+03
3.972658e+02,4.610482e+03
4.001585e+02,4.625953e+03
4.030512e+02,4.630487e+03
4.059439e+02,4.625484e+03
4.088366e+02,4.641216e+03
4.117293e+02,4.630489e+03
4.146220e+02,4.633099e+03
4.175147e+02,4.630005e+03
4.204074e+02,4.611433e+03
4.233001e+02,4.609234e+03
4.261928e+02,4.611904e+03
4.290855e+02,4.625493e+03
4.319782e+02,4.613576e+03
4.348709e+02,4.619625e+03
4.377636e+02,4.626713e+03
4.406563e+02,4.617999e+03
4.435490e+02,4.604211e+03
4.464417e+02,4.605696e+03
4.493344e+02,4.603327e+03
4.522271e+02,4.607690e+03
4.551198e+02,4.617263e+03
4.580125e+02,4.595662e+03
4.609052e+02,4.559951e+03
4.637979e+02,4.570288e+03
4.666906e+02,4.560579e+03
4.695833e+02,4.553125e+03
4.724760e+02,4.544284e+03
4.753687e+02,4.562564e+03
4.782614e+02,4.548736e+03
4.811541e+02,4.551692e+03
4.840468e+02,4.540835e+03
4.869395e+02,4.531960e+03
4.898322e+02,4.523874e+03
4.927249e+02,4.544300e+03
4.956176e+02,4.529658e+03
4.985103e+02,4.528981e+03
5.014030e+02,4.534758e+03
5.042957e+02,4.544710e+03
5.071884e+02,4.513759e+03
5.100811e+02,4.492850e+03
5.129738e+02,4.524360e+03
5.158665e+02,4.511479e+03
5.187592e+02,4.536619e+03
5.216519e+02,4.495650e+03
5.245446e+02,4.488149e+03
5.274373e+02,4.510097e+03
5.303300e+02,4.514608e+03
5.332227e+02,4.462403e+03
5.361154e+02,4.489625e+03
5.390081e+02,4.459312e+03
5.419008e+02,4.480826e+03
5.447935e+02,4.468880e+03
5.476862e+02,4.489874e+03
5.505789e+02,4.459405e+03
5.534716e+02,4.433262e+03
5.563643e+02,4.426638e+03
5.592570e+02,4.445442e+03
5.621497e+02,4.439328e+03
5.650424e+02,4.441158e+03
5.679351e+02,4.432608e+03
5.708278e+02,4.415625e+03
5.737205e+02,4.423769e+03
5.766132e+02,4.432110e+03
5.795059e+02,4.442760e+03
5.823986e+02,4.407192e+03
5.852913e+02,4.390909e+03
5.881840e+02,4.391298e+03
5.910767e+02,4.408378e+03
5.939694e+02,4.401368e+03
5.968621e+02,4.390557e+03
5.997548e+02,4.379016e+03
6.026475e+02,4.390415e+03
6.055402e+02,4.399744e+03
6.084329e+02,4.365149e+03
6.113256e+02,4.332632e+03
6.142183e+02,4.344944e+03
6.171110e+02,4.340354e+03
6.200037e+02,4.312625e+03
6.228964e+02,4.329025e+03
6.257891e+02,4.331634e+03
6.286818e+02,4.313903e+03
6.315745e+02,4.303150e+03
6.344672e+02,4.317718e+03
6.373599e+02,4.304322e+03
6.402526e+02,4.292464e+03
6.431453e+02,4.309555e+03
6.460380e+02,4.270740e+03
6.489307e+02,4.281615e+03
6.518234e+02,4.262384e+03
6.547161e+02,4.257315e+03
6.576088e+02,4.242863e+03
6.605015e+02,4.242011e+03
6.633942e+02,4.260242e+03
6.662869e+02,4.237637e+03
6.691796e+02,4.242858e+03
6.720723e+02,4.225976e+03
6.749650e+02,4.205392e+03
6.778577e+02,4.193881e+03
6.807504e+02,4.222568e+03
6.836431e+02,4.213236e+03
6.865358e+02,4.194347e+03
6.894285e+02,4.194299e+03
6.923212e+02,4.174731e+03
6.952139e+02,4.197264e+03
6.981066e+02,4.185954e+03
7.009993e+02,4.151486e+03
7.038920e+02,4.168167e+03
7.067847e+02,4.154942e+03
7.096774e+02,4.148791e+03
7.125701e+02,4.132429e+03
7.154628e+02,4.138201e+03
7.183555e+02,4.140824e+03
7.212482e+02,4.117553e+03
7.241409e+02,4.124634e+03
7.270336e+02,4.111520e+03
7.299263e+02,4.110546e+03
7.328190e+02,4.109604e+03
7.357117e+02,4.103388e+03
7.386044e+02,4.083542e+03
7.414971e+02,4.068821e+03
7.443898e+02,4.075031e+03
7.472825e+02,4.058110e+03
7.501752e+02,4.063990e+03
7.530679e+02,4.060153e+03
7.559606e+02,4.039143e+03
7.588533e+02,4.053020e+03
7.617460e+02,4.048464e+03
7.646387e+02,4.038689e+03
7.675314e+02,4.019534e+03
7.704241e+02,4.004234e+03
7.733168e+02,3.993878e+03
7.762095e+02,4.002090e+03
7.791022e+02,3.982120e+03
7.819949e+02,3.996715e+03
7.848876e+02,3.972966e+03
7.877803e+02,3.959205e+03
7.906730e+02,3.991425e+03
7.935657e+02,3.998380e+03
7.964584e+02,3.957469e+03
7.993511e+02,3.942492e+03
8.022438e+02,3.925329e+03
8.051365e+02,3.937707e+03
8.080292e+02,3.941060e+03
8.109219e+02,3.912707e+03
8.138146e+02,3.924432e+03
8.167073e+02,3.916896e+03
8.196000e+02,3.895649e+03
8.224927e+02,3.891391e+03
8.253854e+02,3.888820e+03
8.282781e+02,3.879473e+03
8.311708e+02,3.878961e+03
8.340635e+02,3.867324e+03
8.369562e+02,3.881410e+03
8.398489e+02,3.873311e+03
8.427416e+02,3.840020e+03
8.456343e+02,3.865489e+03
8.485270e+02,3.846841e+03
8.514197e+02,3.843139e+03
8.543124e+02,3.844480e+03
8.572051e+02,3.818948e+03
8.600978e+02,3.790661e+03
8.629905e+02,3.789981e+03
8.658832e+02,3.785327e+03
8.687759e+02,3.776782e+03
8.716686e+02,3.779796e+03
8.745613e+02,3.780392e+03
8.774540e+02,3.759699e+03
8.803467e+02,3.788130e+03
8.832394e+02,3.774194e+03
8.861321e+02,3.772970e+03
8.890248e+02,3.744860e+03
8.919175e+02,3.734582e+03
8.948102e+02,3.738235e+03
8.977029e+02,3.719140e+03
9.005956e+02,3.700855e+03
9.034883e+02,3.727710e+03
9.063810e+02,3.698858e+03
9.092737e+02,3.699669e+03
9.121664e+02,3.703730e+03
9.150591e+02,3.698831e+03
9.179518e+02,3.685823e+03
9.208445e+02,3.678601e+03
9.237372e+02,3.657554e+03
9.266299e+02,3.646927e+03
9.295226e+02,3.654243e+03
9.324153e+02,3.635973e+03
9.353080e+02,3.646504e+03
9.382007e+02,3.634024e+03
9.410934e+02,3.610650e+03
9.439861e+02,3.609409e+03
9.468788e+02,3.616270e+03
9.497715e+02,3.625357e+03
9.526642e+02,3.602150e+03
9.555569e+02,3.580015e+03
9.584496e+02,3.568203e+03
9.613423e+02,3.583204e+03
9.642350e+02,3.578221e+03
9.671277e+02,3.576671e+03
9.700204e+02,3.555371e+03
9.729131e+02,3.552961e+03
9.758058e+02,3.548782e+03
9.786985e+02,3.536508e+03
9.815912e+02,3.518139e+03
9.844839e+02,3.512017e+03
9.873766e+02,3.495693e+03
9.902693e+02,3.511491e+03
9.931620e+02,3.509866e+03
9.960547e+02,3.505723e+03
9.989474e+02,3.507221e+03
1.001840e+03,3.480164e+03
1.004733e+03,3.478533e+03
1.007626e+03,3.480414e+03
1.010518e+03,3.479022e+03
1.013411e+03,3.460167e+03
1.016304e+03,3.453551e+03
1.019196e+03,3.451524e+03
1.022089e+03,3.433187e+03
1.024982e+03,3.433721e+03
1.027875e+03,3.424568e+03
1.030767e+03,3.427632e+03
1.033660e+03,3.432085e+03
1.036552e+03,3.432075e+03
1.039445e+03,3.430764e+03
1.042338e+03,3.409849e+03
1.045231e+03,3.408519e+03
1.048123e+03,3.399895e+03
1.051016e+03,3.408835e+03
1.053909e+03,3.416305e+03
1.056802e+03,3.399601e+03
1.059694e+03,3.380354e+03
1.062587e+03,3.375793e+03
1.065479e+03,3.389576e+03
1.068372e+03,3.379156e+03
1.071265e+03,3.384696e+03
1.074158e+03,3.382403e+03
1.077050e+03,3.356009e+03
1.079943e+03,3.356078e+03
1.082836e+03,3.375533e+03
1.085729e+03,3.365376e+03
1.088621e+03,3.377082e+03
1.091514e+03,3.371814e+03
1.094406e+03,3.377282e+03
1.097299e+03,3.369545e+03
1.100192e+03,3.321827e+03
1.103085e+03,3.322796e+03
1.105977e+03,3.319249e+03
1.108870e+03,3.297498e+03
1.111763e+03,3.318419e+03
1.114656e+03,3.303151e+03
1.117548e+03,3.326573e+03
1.120441e+03,3.323852e+03
1.123334e+03,3.310316e+03
1.126226e+03,3.267530e+03
1.129119e+03,3.276694e+03
1.132012e+03,3.274226e+03
1.134904e+03,3.256600e+03
1.137797e+03,3.251606e+03
1.140690e+03,3.257266e+03
1.143583e+03,3.247601e+03
1.146475e+03,3.236808e+03
1.149368e+03,3.250246e+03
1.152261e+03,3.255730e+03
1.155153e+03,3.235468e+03
1.158046e+03,3.215948e+03
1.160939e+03,3.242711e+03
1.163831e+03,3.227776e+03
1.166724e+03,3.222014e+03
1.169617e+03,3.227438e+03
1.172510e+03,3.196673e+03
1.175402e+03,3.189830e+03
1.178295e+03,3.185179e+03
1.181188e+03,3.199493e+03
1.184080e+03,3.162247e+03
1.186973e+03,3.163049e+03
1.189866e+03,3.160334e+03
1.192758e+03,3.158392e+03
1.195651e+03,3.165840e+03
1.198544e+03,3.157844e+03
1.201437e+03,3.144019e+03
1.204329e+03,3.138866e+03
1.207222e+03,3.143578e+03
1.210115e+03,3.144699e+03
1.213007e+03,3.122898e+03
1.215900e+03,3.116725e+03
1.218793e+03,3.122130e+03
1.221685e+03,3.102852e+03
1.224578e+03,3.104171e+03
1.227471e+03,3.103320e+03
1.230364e+03,3.079918e+03
1.233256e+03,3.071001e+03
1.236149e+03,3.077188e+03
1.239042e+03,3.070983e+03
1.241934e+03,3.077076e+03
1.244827e+03,3.067712e+03
1.247720e+03,3.046678e+03
1.250612e+03,3.054587e+03
1.253505e+03,3.060629e+03
1.256398e+03,3.043567e+03
1.259291e+03,3.049097e+03
1.262183e+03,3.051077e+03
1.265076e+03,3.030729e+03
1.267969e+03,3.028090e+03
1.270861e+03,3.035687e+03
1.273754e+03,3.041625e+03
1.276647e+03,3.029849e+03
1.279539e+03,3.023317e+03
1.282432e+03,3.006426e+03
1.285325e+03,3.021607e+03
1.288218e+03,3.020685e+03
1.291110e+03,3.025715e+03
1.294003e+03,3.018531e+03
1.296896e+03,2.999821e+03
1.299788e+03,2.998044e+03
1.302681e+03,2.998485e+03
1.305574e+03,3.000503e+03
1.308466e+03,2.990443e+03
1.311359e+03,2.985544e+03
1.314252e+03,2.990346e+03
1.317145e+03,2.999386e+03
1.320037e+03,3.009923e+03
1.322930e+03,2.995818e+03
1.325823e+03,2.983122e+03
1.328715e+03,2.995229e+03
1.331608e+03,2.990078e+03
1.334501e+03,2.976135e+03
1.337393e+03,2.967733e+03
1.340286e+03,2.962030e+03
1.343179e+03,2.950074e+03
1.346072e+03,2.949969e+03
1.348964e+03,2.944619e+03
1.351857e+03,2.927992e+03
1.354750e+03,2.935608e+03
1.357642e+03,2.921802e+03
1.360535e+03,2.905679e+03
1.363428e+03,2.901983e+03
1.366320e+03,2.891022e+03
1.369213e+03,2.924480e+03
1.372106e+03,2.897117e+03
1.374999e+03,2.911933e+03
1.377891e+03,2.901542e+03
1.380784e+03,2.888352e+03
1.383677e+03,2.878479e+03
1.386569e+03,2.864325e+03
1.389462e+03,2.866014e+03
1.392355e+03,2.851092e+03
1.395247e+03,2.844790e+03
1.398140e+03,2.860433e+03
1.401033e+03,2.851992e+03
1.403926e+03,2.836423e+03
1.406818e+03,2.821921e+03
1.409711e+03,2.836620e+03
1.412604e+03,2.832044e+03
1.415496e+03,2.825474e+03
1.418389e+03,2.819219e+03
1.421282e+03,2.819525e+03
1.424174e+03,2.804783e+03
1.427067e+03,2.806994e+03
1.429960e+03,2.804319e+03
1.432853e+03,2.789988e+03
1.435745e+03,2.775930e+03
1.438638e+03,2.775384e+03
1.441531e+03,2.783629e+03
1.444423e+03,2.807957e+03
1.447316e+03,2.787347e+03
1.450209e+03,2.771961e+03
1.453101e+03,2.774105e+03
1.455994e+03,2.754612e+03
1.458887e+03,2.748809e+03
1.461780e+03,2.754767e+03
1.464672e+03,2.737744e+03
1.467565e+03,2.738738e+03
1.470458e+03,2.734620e+03
1.473350e+03,2.725511e+03
1.476243e+03,2.750597e+03
1.479136e+03,2.731228e+03
1.482028e+03,2.721038e+03
1.484921e+03,2.721594e+03
1.487814e+03,2.695556e+03
1.490707e+03,2.685067e+03
1.493599e+03,2.690105e+03
1.496492e+03,2.686086e+03
1.499385e+03,2.704520e+03
1.502277e+03,2.686558e+03
1.505170e+03,2.679579e+03
1.508063e+03,2.681338e+03
1.510955e+03,2.675220e+03
1.513848e+03,2.661108e+03
1.516741e+03,2.662306e+03
1.519634e+03,2.659136e+03
1.522526e+03,2.665255e+03
1.525419e+03,2.669882e+03
1.528312e+03,2.652271e+03
1.531204e+03,2.643483e+03
1.534097e+03,2.638324e+03
1.536990e+03,2.638497e+03
1.539882e+03,2.633165e+03
1.542775e+03,2.617100e+03
1.545668e+03,2.629002e+03
1.548561e+03,2.625531e+03
1.551453e+03,2.630145e+03
1.554346e+03,2.629127e+03
1.557239e+03,2.616347e+03
1.560131e+03,2.612435e+03
1.563024e+03,2.620582e+03
1.565917e+03,2.603072e+03
1.568809e+03,2.603141e+03
1.571702e+03,2.599261e+03
1.574595e+03,2.595522e+03
1.577488e+03,2.592531e+03
1.580380e+03,2.588246e+03
1.583273e+03,2.593777e+03
1.586166e+03,2.583180e+03
1.589058e+03,2.577662e+03
1.591951e+03,2.563101e+03
1.594844e+03,2.562403e+03
1.597736e+03,2.543190e+03
1.600629e+03,2.560807e+03
1.603522e+03,2.560027e+03
1.606415e+03,2.545210e+03
1.609307e+03,2.549507e+03
1.612200e+03,2.558626e+03
1.615093e+03,2.534820e+03
1.617985e+03,2.531501e+03
1.620878e+03,2.507573e+03
1.623771e+03,2.505106e+03
1.626663e+03,2.507468e+03
1.629556e+03,2.512227e+03
1.632449e+03,2.492549e+03
1.635342e+03,2.496097e+03
1.638234e+03,2.464068e+03
1.641127e+03,2.471375e+03
1.644020e+03,2.491467e+03
1.646912e+03,2.480453e+03
1.649805e+03,2.461313e+03
1.652698e+03,2.456927e+03
1.655590e+03,2.456555e+03
1.658483e+03,2.445072e+03
1.661376e+03,2.435813e+03
1.664269e+03,2.425929e+03
1.667161e+03,2.431750e+03
1.670054e+03,2.429719e+03
1.672947e+03,2.408529e+03
1.675839e+03,2.423348e+03
1.678732e+03,2.423807e+03
1.681625e+03,2.378628e+03
1.684517e+03,2.389329e+03
1.687410e+03,2.402729e+03
1.690303e+03,2.376993e+03
1.693196e+03,2.403559e+03
1.696088e+03,2.362763e+03
1.698981e+03,2.381957e+03
1.701874e+03,2.368355e+03
1.704766e+03,2.371271e+03
1.707659e+03,2.366616e+03
1.710552e+03,2.358146e+03
1.713444e+03,2.360849e+03
1.716337e+03,2.343789e+03
1.719230e+03,2.363722e+03
1.722123e+03,2.339258e+03
1.725015e+03,2.346331e+03
1.727908e+03,2.332046e+03
1.730801e+03,2.308039e+03
1.733693e+03,2.335011e+03
1.736586e+03,2.332880e+03
1.739479e+03,2.315682e+03
1.742371e+03,2.304243e+03
1.745264e+03,2.301982e+03
1.748157e+03,2.286920e+03
1.751050e+03,2.302016e+03
1.753942e+03,2.286090e+03
1.756835e+03,2.280684e+03
1.759728e+03,2.279544e+03
1.762620e+03,2.265326e+03
1.765513e+03,2.277898e+03
1.768406e+03,2.273778e+03
1.771298e+03,2.253950e+03
1.774191e+03,2.255151e+03
1.777084e+03,2.247145e+03
1.779977e+03,2.240977e+03
1.782869e+03,2.249557e+03
1.785762e+03,2.225134e+03
1.788655e+03,2.225256e+03
1.791547e+03,2.216408e+03
1.794440e+03,2.212218e+03
1.797333e+03,2.213255e+03
1.800225e+03,2.218906e+03
1.803118e+03,2.203787e+03
1.806011e+03,2.190199e+03
1.808904e+03,2.198845e+03
1.811796e+03,2.194270e+03
1.814689e+03,2.195394e+03
1.817582e+03,2.157797e+03
1.820474e+03,2.168642e+03
1.823367e+03,2.166526e+03
1.826260e+03,2.160722e+03
1.829152e+03,2.170232e+03
1.832045e+03,2.148228e+03
1.834938e+03,2.145938e+03
1.837831e+03,2.136453e+03
1.840723e+03,2.135603e+03
1.843616e+03,2.129788e+03
1.846509e+03,2.123179e+03
1.849401e+03,2.113219e+03
1.852294e+03,2.104272e+03
1.855187e+03,2.103585e+03
1.858079e+03,2.105871e+03
1.860972e+03,2.104354e+03
1.863865e+03,2.081134e+03
1.866758e+03,2.073523e+03
1.869650e+03,2.082453e+03
1.872543e+03,2.075027e+03
1.875436e+03,2.082173e+03
1.878328e+03,2.066289e+03
1.881221e+03,2.057517e+03
1.884114e+03,2.059506e+03
1.887006e+03,2.035802e+03
1.889899e+03,2.051013e+03
1.892792e+03,2.056181e+03
1.895685e+03,2.049125e+03
1.898577e+03,2.038801e+03
1.901470e+03,2.016184e+03
1.904363e+03,2.019066e+03
1.907255e+03,2.027369e+03
1.910148e+03,2.026224e+03
1.913041e+03,2.005132e+03
1.915933e+03,2.006210e+03
1.918826e+03,1.997796e+03
1.921719e+03,1.985370e+03
1.924612e+03,1.974218e+03
1.927504e+03,1.992120e+03
1.930397e+03,1.991516e+03
1.933290e+03,1.967881e+03
1.936182e+03,1.963250e+03
1.939075e+03,1.970269e+03
1.941968e+03,1.953032e+03
1.944860e+03,1.959736e+03
1.947753e+03,1.961215e+03
1.950646e+03,1.932849e+03
1.953539e+03,1.933390e+03
1.956431e+03,1.948650e+03
1.959324e+03,1.925419e+03
1.962217e+03,1.928902e+03
1.965109e+03,1.915027e+03
1.968002e+03,1.915834e+03
1.970895e+03,1.898426e+03
1.973787e+03,1.902866e+03
1.976680e+03,1.889473e+03
1.979573e+03,1.896745e+03
1.982466e+03,1.885721e+03
1.985358e+03,1.883808e+03
1.988251e+03,1.867968e+03
1.991144e+03,1.866788e+03
1.994036e+03,1.859868e+03
1.996929e+03,1.857621e+03
1.999822e+03,1.849685e+03
2.002714e+03,1.851617e+03
2.005607e+03,1.846582e+03
2.008500e+03,1.833330e+03
2.011393e+03,1.856279e+03
2.014285e+03,1.844180e+03
2.017178e+03,1.814747e+03
2.020071e+03,1.813903e+03
2.022963e+03,1.822573e+03
2.025856e+03,1.797423e+03
2.028749e+03,1.806206e+03
2.031641e+03,1.808353e+03
2.034534e+03,1.787818e+03
2.037427e+03,1.777391e+03
2.040320e+03,1.785558e+03
2.043212e+03,1.765962e+03
2.046105e+03,1.790644e+03
2.048998e+03,1.762653e+03
2.051890e+03,1.761493e+03
2.054783e+03,1.785226e+03
2.057676e+03,1.755966e+03
2.060568e+03,1.731802e+03
2.063461e+03,1.749409e+03
2.066354e+03,1.717608e+03
2.069247e+03,1.723842e+03
2.072139e+03,1.724157e+03
2.075032e+03,1.725701e+03
2.077925e+03,1.703876e+03
2.080817e+03,1.702145e+03
2.083710e+03,1.701983e+03
2.086603e+03,1.705229e+03
2.089496e+03,1.696654e+03
2.092388e+03,1.699967e+03
2.095281e+03,1.695277e+03
2.098174e+03,1.687130e+03
2.101066e+03,1.680854e+03
2.103959e+03,1.670107e+03
2.106852e+03,1.664030e+03
2.109744e+03,1.676119e+03
2.112637e+03,1.660514e+03
2.115530e+03,1.641495e+03
2.118422e+03,1.638128e+03
2.121315e+03,1.648048e+03
2.124208e+03,1.635639e+03
2.127101e+03,1.637584e+03
2.129993e+03,1.620237e+03
2.132886e+03,1.614647e+03
2.135779e+03,1.622335e+03
2.138671e+03,1.608635e+03
2.141564e+03,1.618258e+03
2.144457e+03,1.611100e+03
2.147350e+03,1.577344e+03
2.150242e+03,1.598453e+03
2.153135e+03,1.599034e+03
2.156028e+03,1.580384e+03
2.158920e+03,1.570128e+03
2.161813e+03,1.551776e+03
2.164706e+03,1.559780e+03
2.167598e+03,1.569086e+03
2.170491e+03,1.538549e+03
2.173384e+03,1.539478e+03
2.176277e+03,1.545727e+03
2.179169e+03,1.527356e+03
2.182062e+03,1.527209e+03
2.184955e+03,1.534951e+03
2.187847e+03,1.542668e+03
2.190740e+03,1.524748e+03
2.193633e+03,1.524400e+03
2.196525e+03,1.509917e+03
2.199418e+03,1.502681e+03
2.202311e+03,1.500481e+03
2.205204e+03,1.499691e+03
2.208096e+03,1.490424e+03
2.210989e+03,1.464978e+03
2.213882e+03,1.475110e+03
2.216774e+03,1.481804e+03
2.219667e+03,1.468071e+03
2.222560e+03,1.485301e+03
2.225452e+03,1.462301e+03
2.228345e+03,1.447059e+03
2.231238e+03,1.459791e+03
2.234131e+03,1.452964e+03
2.237023e+03,1.452362e+03
2.239916e+03,1.442173e+03
2.242809e+03,1.424258e+03
2.245701e+03,1.422521e+03
2.248594e+03,1.419847e+03
2.251487e+03,1.428622e+03
2.254379e+03,1.413402e+03
2.257272e+03,1.401506e+03
2.260165e+03,1.405547e+03
2.263058e+03,1.404273e+03
2.265950e+03,1.383971e+03
2.268843e+03,1.385353e+03
2.271736e+03,1.368972e+03
2.274628e+03,1.396504e+03
2.277521e+03,1.388302e+03
2.280414e+03,1.368321e+03
2.283306e+03,1.369576e+03
2.286199e+03,1.362220e+03
2.289092e+03,1.362559e+03
2.291985e+03,1.349038e+03
2.294877e+03,1.360621e+03
2.297770e+03,1.353759e+03
2.300663e+03,1.336771e+03
2.303555e+03,1.341641e+03
2.306448e+03,1.320835e+03
2.309341e+03,1.330352e+03
2.312233e+03,1.340083e+03
2.315126e+03,1.320562e+03
2.318019e+03,1.308870e+03
2.320912e+03,1.310230e+03
2.323804e+03,1.303032e+03
2.326697e+03,1.302072e+03
2.329590e+03,1.297996e+03
2.332482e+03,1.295805e+03
2.335375e+03,1.292830e+03
2.338268e+03,1.277860e+03
2.341160e+03,1.283161e+03
2.344053e+03,1.292279e+03
2.346946e+03,1.268594e+03
2.349839e+03,1.271828e+03
2.352731e+03,1.255139e+03
2.355624e+03,1.273089e+03
2.358517e+03,1.280814e+03
2.361409e+03,1.279365e+03
2.364302e+03,1.247713e+03
2.367195e+03,1.246672e+03
2.370087e+03,1.242964e+03
2.372980e+03,1.254137e+03
2.375873e+03,1.239846e+03
2.378766e+03,1.249590e+03
2.381658e+03,1.224237e+03
2.384551e+03,1.215974e+03
2.387444e+03,1.232682e+03
2.390336e+03,1.212418e+03
2.393229e+03,1.214027e+03
2.396122e+03,1.213266e+03
2.399014e+03,1.203018e+03
2.401907e+03,1.215409e+03
2.404800e+03,1.202744e+03
2.407693e+03,1.195012e+03
2.410585e+03,1.185194e+03
2.413478e+03,1.178682e+03
2.416371e+03,1.185227e+03
2.419263e+03,1.176851e+03
2.422156e+03,1.180369e+03
2.425049e+03,1.180357e+03
2.427941e+03,1.183176e+03
2.430834e+03,1.151547e+03
2.433727e+03,1.155754e+03
2.436620e+03,1.160960e+03
2.439512e+03,1.151823e+03
2.442405e+03,1.145093e+03
2.445298e+03,1.168628e+03
2.448190e+03,1.141073e+03
2.451083e+03,1.155324e+03
2.453976e+03,1.137973e+03
2.456868e+03,1.133793e+03
2.459761e+03,1.116626e+03
2.462654e+03,1.125419e+03
2.465547e+03,1.127334e+03
2.468439e+03,1.119712e+03
2.471332e+03,1.125657e+03
2.474225e+03,1.111535e+03
2.477117e+03,1.114296e+03
2.480010e+03,1.102367e+03
2.482903e+03,1.117544e+03
2.485795e+03,1.099002e+03
2.488688e+03,1.096941e+03
2.491581e+03,1.086589e+03
2.494474e+03,1.087373e+03
2.497366e+03,1.091401e+03
2.500259e+03,1.084898e+03
2.503152e+03,1.081550e+03
2.506044e+03,1.076511e+03
2.508937e+03,1.084046e+03
2.511830e+03,1.061660e+03
2.514722e+03,1.071370e+03
2.517615e+03,1.070329e+03
2.520508e+03,1.071984e+03
2.523401e+03,1.072068e+03
2.526293e+03,1.047779e+03
2.529186e+03,1.053075e+03
2.532079e+03,1.049963e+03
2.534971e+03,1.036841e+03
2.537864e+03,1.042476e+03
2.540757e+03,1.034212e+03
2.543649e+03,1.052953e+03
2.546542e+03,1.059281e+03
2.549435e+03,1.029022e+03
2.552328e+03,1.036429e+03
2.555220e+03,1.021444e+03
2.558113e+03,1.040883e+03
2.561006e+03,1.009881e+03
2.563898e+03,1.018104e+03
2.566791e+03,1.024999e+03
2.569684e+03,1.031654e+03
2.572576e+03,1.028004e+03
2.575469e+03,1.010625e+03
2.578362e+03,1.021781e+03
2.581255e+03,1.001939e+03
2.584147e+03,9.882189e+02
2.587040e+03,9.849702e+02
2.589933e+03,1.002144e+03
2.592825e+03,1.011858e+03
2.595718e+03,9.999073e+02
2.598611e+03,9.842458e+02
2.601503e+03,9.802652e+02
2.604396e+03,9.841122e+02
2.607289e+03,9.785964e+02
2.610182e+03,9.734741e+02
2.613074e+03,9.714658e+02
2.615967e+03,9.820286e+02
2.618860e+03,9.736541e+02
2.621752e+03,9.739733e+02
2.624645e+03,9.718411e+02
2.627538e+03,9.725148e+02
2.630430e+03,9.365283e+02
2.633323e+03,9.667572e+02
2.636216e+03,9.432725e+02
2.639109e+03,9.595281e+02
2.642001e+03,9.581292e+02
2.644894e+03,9.550504e+02
2.647787e+03,9.478297e+02
2.650679e+03,9.387263e+02
2.653572e+03,9.234318e+02
2.656465e+03,9.395524e+02
2.659357e+03,9.480243e+02
2.662250e+03,9.355689e+02
2.665143e+03,9.283104e+02
2.668036e+03,9.238661e+02
2.670928e+03,9.219910e+02
2.673821e+03,9.420783e+02
2.676714e+03,9.310816e+02
2.679606e+03,9.179758e+02
2.682499e+03,9.184960e+02
2.685392e+03,9.094024e+02
2.688284e+03,9.054107e+02
2.691177e+03,9.174258e+02
2.694070e+03,8.919885e+02
2.696963e+03,9.035441e+02
2.699855e+03,9.192967e+02
2.702748e+03,9.032843e+02
2.705641e+03,8.972350e+02
2.708533e+03,9.071774e+02
2.711426e+03,9.011047e+02
2.714319e+03,9.017936e+02
2.717211e+03,8.887434e+02
2.720104e+03,8.964981e+02
2.722997e+03,8.856750e+02
2.725890e+03,8.978133e+02
2.728782e+03,8.865403e+02
2.731675e+03,8.904568e+02
2.734568e+03,8.819590e+02
2.737460e+03,8.609186e+02
2.740353e+03,8.794899e+02
2.743246e+03,8.627360e+02
2.746138e+03,8.665699e+02
2.749031e+03,8.738802e+02
2.751924e+03,8.698851e+02
2.754817e+03,8.864699e+02
2.757709e+03,8.785099e+02
2.760602e+03,8.638788e+02
2.763495e+03,8.668492e+02
2.766387e+03,8.823021e+02
2.769280e+03,8.536275e+02
2.772173e+03,8.496931e+02
2.775065e+03,8.724553e+02
2.777958e+03,8.441048e+02
2.780851e+03,8.630450e+02
2.783744e+03,8.564271e+02
2.786636e+03,8.491963e+02
2.789529e+03,8.426069e+02
2.792422e+03,8.709584e+02
2.795314e+03,8.305342e+02
2.798207e+03,8.251229e+02
2.801100e+03,8.440135e+02
2.803992e+03,8.419330e+02
2.806885e+03,8.343731e+02
2.809778e+03,8.124982e+02
2.812671e+03,8.311542e+02
2.815563e+03,8.221111e+02
2.818456e+03,8.310272e+02
2.821349e+03,8.031744e+02
2.824241e+03,8.292911e+02
2.827134e+03,8.362921e+02
2.830027e+03,8.084945e+02
2.832919e+03,8.266526e+02
2.835812e+03,8.010270e+02
2.838705e+03,8.272320e+02
2.841598e+03,8.381882e+02
2.844490e+03,8.356937e+02
2.847383e+03,8.243535e+02
2.850276e+03,8.115277e+02
2.853168e+03,8.338967e+02
2.856061e+03,8.329801e+02
2.858954e+03,8.165222e+02
2.861846e+03,8.280168e+02
2.864739e+03,8.208445e+02
2.867632e+03,8.266525e+02
2.870525e+03,8.246780e+02
2.873417e+03,8.511764e+02
2.876310e+03,7.979564e+02
2.879203e+03,8.093585e+02
2.882095e+03,8.295524e+02
2.884988e+03,8.183646e+02
2.887881e+03,8.254581e+02
2.890773e+03,8.173270e+02
2.893666e+03,8.242811e+02
2.896559e+03,8.023765e+02
2.899452e+03,8.148126e+02
2.902344e+03,8.135966e+02
2.905237e+03,8.212969e+02
2.908130e+03,8.224118e+02
2.911022e+03,8.014784e+02
2.913915e+03,7.837897e+02
2.916808e+03,8.040323e+02
2.919700e+03,7.924080e+02
2.922593e+03,7.892793e+02
2.925486e+03,8.038717e+02
2.928379e+03,7.860264e+02
2.931271e+03,7.780566e+02
2.934164e+03,8.105819e+02
2.937057e+03,7.644791e+02
2.939949e+03,7.953873e+02
2.942842e+03,7.645973e+02
2.945735e+03,7.726323e+02
2.948627e+03,7.819496e+02
2.951520e+03,7.743311e+02
2.954413e+03,7.774391e+02
2.957306e+03,8.309980e+02
2.960198e+03,7.743498e+02
2.963091e+03,7.812482e+02
2.965984e+03,7.724517e+02
2.968876e+03,7.833623e+02
2.971769e+03,7.542664e+02
2.974662e+03,7.671856e+02
2.977554e+03,7.421289e+02
2.980447e+03,7.316214e+02
2.983340e+03,7.514637e+02
2.986233e+03,7.450299e+02
2.989125e+03,7.430636e+02
2.992018e+03,7.404667e+02
2.994911e+03,7.257001e+02
2.997803e+03,7.427083e+02
3.000696e+03,7.311801e+02
3.003589e+03,7.217881e+02
3.006481e+03,7.220614e+02
3.009374e+03,7.453832e+02
3.012267e+03,7.625616e+02
3.015160e+03,7.164172e+02
3.018052e+03,7.105881e+02
3.020945e+03,7.482898e+02
3.023838e+03,7.070772e+02
3.026730e+03,7.278358e+02
3.029623e+03,7.181049e+02
3.032516e+03,7.449974e+02
3.035408e+03,6.908749e+02
3.038301e+03,7.256099e+02
3.041194e+03,7.213492e+02
3.044087e+03,6.872350e+02
3.046979e+03,7.403405e+02
3.049872e+03,7.247153e+02
3.052765e+03,7.074993e+02
3.055657e+03,7.006848e+02
3.058550e+03,7.265121e+02
3.061443e+03,7.022630e+02
3.064335e+03,7.161213e+02
3.067228e+03,6.986100e+02
3.070121e+03,7.185389e+02
3.073014e+03,6.940472e+02
3.075906e+03,7.074506e+02
3.078799e+03,6.876053e+02
3.081692e+03,7.123178e+02
3.084584e+03,7.225519e+02
3.087477e+03,7.382482e+02
3.090370e+03,6.974528e+02
3.093262e+03,6.816202e+02
3.096155e+03,7.266418e+02
3.099048e+03,7.105999e+02
3.101941e+03,6.799234e+02
3.104833e+03,6.957697e+02
3.107726e+03,6.673525e+02
3.110619e+03,7.074844e+02
3.113511e+03,6.990438e+02
3.116404e+03,7.058192e+02
3.119297e+03,6.887991e+02
3.122189e+03,7.102869e+02
3.125082e+03,6.954879e+02
3.127975e+03,7.332684e+02
3.130868e+03,7.119148e+02
3.133760e+03,7.099884e+02
3.136653e+03,7.122181e+02
3.139546e+03,6.955331e+02
3.142438e+03,7.002188e+02
3.145331e+03,6.698278e+02
3.148224e+03,6.975640e+02
3.151116e+03,6.758982e+02
3.154009e+03,7.056354e+02
3.156902e+03,6.907362e+02
3.159795e+03,6.588038e+02
3.162687e+03,6.932266e+02
3.165580e+03,7.138454e+02
3.168473e+03,6.953138e+02
3.171365e+03,6.802748e+02
3.174258e+03,6.898668e+02
3.177151e+03,6.714249e+02
3.180043e+03,7.186762e+02
3.182936e+03,7.130486e+02
3.185829e+03,7.411476e+02
3.188722e+03,7.080455e+02
3.191614e+03,6.863661e+02
3.194507e+03,6.978487e+02
3.197400e+03,7.004565e+02
3.200292e+03,7.126330e+02
3.203185e+03,0.000000e+00
3.206078e+03,0.000000e+00
3.208970e+03,0.000000e+00
3.211863e+03,0.000000e+00
3.214756e+03,0.000000e+00
3.217649e+03,0.000000e+00
3.220541e+03,0.000000e+00
3.223434e+03,0.000000e+00
3.226327e+03,0.000000e+00
3.229219e+03,0.000000e+00
3.232112e+03,0.000000e+00
3.235005e+03,0.000000e+00
3.237897e+03,0.000000e+00
3.240790e+03,0.000000e+00
3.243683e+03,0.000000e+00
3.246576e+03,0.000000e+00
3.249468e+03,0.000000e+00
3.252361e+03,0.000000e+00
3.255254e+03,0.000000e+00
3.258146e+03,0.000000e+00
3.261039e+03,0.000000e+00
3.263932e+03,0.000000e+00
3.266824e+03,0.000000e+00
3.269717e+03,0.000000e+00
3.272610e+03,0.000000e+00
3.275503e+03,0.000000e+00
3.278395e+03,0.000000e+00
3.281288e+03,0.000000e+00
3.284181e+03,0.000000e+00
3.287073e+03,0.000000e+00
3.289966e+03,0.000000e+00
3.292859e+03,0.000000e+00
3.295751e+03,0.000000e+00
3.298644e+03,0.000000e+00
3.301537e+03,0.000000e+00
3.304430e+03,0.000000e+00
3.307322e+03,0.000000e+00
3.310215e+03,0.000000e+00
3.313108e+03,0.000000e+00
3.316000e+03,0.000000e+00
3.318893e+03,0.000000e+00
3.321786e+03,0.000000e+00
3.324678e+03,0.000000e+00
3.327571e+03,0.000000e+00
3.330464e+03,0.000000e+00
3.333357e+03,0.000000e+00
3.336249e+03,0.000000e+00
3.339142e+03,0.000000e+00
3.342035e+03,0.000000e+00
3.344927e+03,0.000000e+00
3.347820e+03,0.000000e+00
3.350713e+03,0.000000e+00
3.353605e+03,0.000000e+00
3.356498e+03,0.000000e+00
3.359391e+03,0.000000e+00
3.362284e+03,0.000000e+00
3.365176e+03,0.000000e+00
3.368069e+03,0.000000e+00
3.370962e+03,0.000000e+00
3.373854e+03,0.000000e+00
3.376747e+03,0.000000e+00
3.379640e+03,0.000000e+00
3.382532e+03,0.000000e+00
3.385425e+03,0.000000e+00
3.388318e+03,0.000000e+00
3.391211e+03,0.000000e+00
3.394103e+03,0.000000e+00
3.396996e+03,0.000000e+00
3.399889e+03,0.000000e+00
3.402781e+03,0.000000e+00
3.405674e+03,0.000000e+00
3.408567e+03,0.000000e+00
3.411459e+03,0.000000e+00
3.414352e+03,0.000000e+00
3.417245e+03,0.000000e+00
3.420138e+03,0.000000e+00
3.423030e+03,0.000000e+00
3.425923e+03,0.000000e+00
3.428816e+03,0.000000e+00
3.431708e+03,0.000000e+00
3.434601e+03,0.000000e+00
3.437494e+03,0.000000e+00
3.440386e+03,0.000000e+00
3.443279e+03,0.000000e+00
3.446172e+03,0.000000e+00
3.449065e+03,0.000000e+00
3.451957e+03,0.000000e+00
3.454850e+03,0.000000e+00
3.457743e+03,0.000000e+00
3.460635e+03,0.000000e+00
3.463528e+03,0.000000e+00
3.466421e+03,0.000000e+00
3.469313e+03,0.000000e+00
3.472206e+03,0.000000e+00
3.475099e+03,0.000000e+00
3.477992e+03,0.000000e+00
3.480884e+03,0.000000e+00
3.483777e+03,0.000000e+00
3.486670e+03,0.000000e+00
3.489563e+03,0.000000e+00
3.492455e+03,0.000000e+00
3.495348e+03,0.000000e+00
3.498240e+03,0.000000e+00
3.500169e+03,0.000000e+00