File: RAMAN_data/06022023_r2/clear frag.CSV
9.931763e+01,0.000000e+00
1.022103e+02,0.000000e+00
1.051030e+02,0.000000e+00
1.079957e+02,0.000000e+00
1.108884e+02,0.000000e+00
1.137811e+02,0.000000e+00
1.166738e+02,0.000000e+00
1.195665e+02,0.000000e+00
1.224592e+02,0.000000e+00
1.253519e+02,0.000000e+00
1.282446e+02,0.000000e+00
1.311373e+02,0.000000e+00
1.340300e+02,0.000000e+00
1.369227e+02,0.000000e+00
1.398154e+02,0.000000e+00
1.427081e+02,0.000000e+00
1.456008e+02,0.000000e+00
1.484935e+02,0.000000e+00
1.513862e+02,0.000000e+00
1.542789e+02,0.000000e+00
1.571716e+02,0.000000e+00
1.600643e+02,0.000000e+00
1.629570e+02,0.000000e+00
1.658497e+02,0.000000e+00
1.687424e+02,0.000000e+00
1.716351e+02,0.000000e+00
1.745278e+02,0.000000e+00
1.774205e+02,0.000000e+00
1.803132e+02,0.000000e+00
1.832059e+02,0.000000e+00
1.860986e+02,0.000000e+00
1.889913e+02,0.000000e+00
1.918840e+02,0.000000e+00
1.947767e+02,0.000000e+00
1.976694e+02,0.000000e+00
2.005621e+02,9.996709e+03
2.034548e+02,1.003641e+04
2.063475e+02,1.007149e+04
2.092402e+02,1.005797e+04
2.121329e+02,1.008168e+04
2.150256e+02,1.009167e+04
2.179183e+02,1.011335e+04
2.208110e+02,1.014880e+04
2.237037e+02,1.017697e+04
2.265964e+02,1.015892e+04
2.294892e+02,1.017554e+04
2.323819e+02,1.021594e+04
2.352746e+02,1.022907e+04
2.381673e+02,1.026868e+04
2.410600e+02,1.026514e+04
2.439527e+02,1.024808e+04
2.468454e+02,1.028711e+04
2.497381e+02,1.030177e+04
2.526308e+02,1.035687e+04
2.555235e+02,1.034180e+04
2.584161e+02,1.032748e+04
2.613088e+02,1.036513e+04
2.642015e+02,1.038742e+04
2.670942e+02,1.041189e+04
2.699869e+02,1.044026e+04
2.728796e+02,1.042344e+04
2.757723e+02,1.046932e+04
2.786650e+02,1.047131e+04
2.815577e+02,1.050726e+04
2.844504e+02,1.050522e+04
2.873431e+02,1.051939e+04
2.902358e+02,1.052666e+04
2.931285e+02,1.051992e+04
2.960212e+02,1.053833e+04
2.989139e+02,1.055581e+04
3.018066e+02,1.057778e+04
3.046993e+02,1.058898e+04
3.075920e+02,1.059863e+04
3.104847e+02,1.059781e+04
3.133774e+02,1.063578e+04
3.162701e+02,1.066656e+04
3.191628e+02,1.063943e+04
3.220555e+02,1.067558e+04
3.249482e+02,1.069908e+04
3.278409e+02,1.069793e+04
3.307336e+02,1.070994e+04
3.336263e+02,1.073917e+04
3.365190e+02,1.071704e+04
3.394117e+02,1.074873e+04
3.423044e+02,1.077342e+04
3.451971e+02,1.078894e+04
3.480898e+02,1.080455e+04
3.509825e+02,1.080237e+04
3.538752e+02,1.081347e+04
3.567680e+02,1.085294e+04
3.596607e+02,1.087256e+04
3.625534e+02,1.089933e+04
3.654461e+02,1.085206e+04
3.683388e+02,1.087379e+04
3.712315e+02,1.091511e+04
3.741242e+02,1.090944e+04
3.770169e+02,1.093802e+04
3.799096e+02,1.096108e+04
3.828023e+02,1.093812e+04
3.856950e+02,1.092848e+04
3.885877e+02,1.095833e+04
3.914804e+02,1.093122e+04
3.943731e+02,1.091896e+04
3.972658e+02,1.093557e+04
4.001585e+02,1.089954e+04
4.030512e+02,1.092657e+04
4.059439e+02,1.093777e+04
4.088366e+02,1.093093e+04
4.117293e+02,1.092889e+04
4.146220e+02,1.093768e+04
4.175147e+02,1.090206e+04
4.204074e+02,1.093877e+04
4.233001e+02,1.089083e+04
4.261928e+02,1.089954e+04
4.290855e+02,1.089270e+04
4.319782e+02,1.088646e+04
4.348709e+02,1.090742e+04
4.377636e+02,1.091959e+04
4.406563e+02,1.093191e+04
4.435490e+02,1.088196e+04
4.464417e+02,1.085924e+04
4.493344e+02,1.088569e+04
4.522271e+02,1.087444e+04
4.551198e+02,1.087911e+04
4.580125e+02,1.087378e+04
4.609052e+02,1.089293e+04
4.637979e+02,1.087412e+04
4.666906e+02,1.083148e+04
4.695833e+02,1.083322e+04
4.724760e+02,1.084446e+04
4.753687e+02,1.083360e+04
4.782614e+02,1.081955e+04
4.811541e+02,1.081257e+04
4.840468e+02,1.082556e+04
4.869395e+02,1.081948e+04
4.898322e+02,1.080419e+04
4.927249e+02,1.076597e+04
4.956176e+02,1.079462e+04
4.985103e+02,1.080838e+04
5.014030e+02,1.078093e+04
5.042957e+02,1.077275e+04
5.071884e+02,1.074720e+04
5.100811e+02,1.074291e+04
5.129738e+02,1.079196e+04
5.158665e+02,1.080808e+04
5.187592e+02,1.075036e+04
5.216519e+02,1.075835e+04
5.245446e+02,1.073053e+04
5.274373e+02,1.074389e+04
5.303300e+02,1.072677e+04
5.332227e+02,1.070146e+04
5.361154e+02,1.066887e+04
5.390081e+02,1.066365e+04
5.419008e+02,1.073255e+04
5.447935e+02,1.068386e+04
5.476862e+02,1.070294e+04
5.505789e+02,1.068914e+04
5.534716e+02,1.065629e+04
5.563643e+02,1.061173e+04
5.592570e+02,1.066905e+04
5.621497e+02,1.062745e+04
5.650424e+02,1.062096e+04
5.679351e+02,1.056203e+04
5.708278e+02,1.056358e+04
5.737205e+02,1.061652e+04
5.766132e+02,1.058819e+04
5.795059e+02,1.057782e+04
5.823986e+02,1.057078e+04
5.852913e+02,1.056644e+04
5.881840e+02,1.053655e+04
5.910767e+02,1.053276e+04
5.939694e+02,1.052927e+04
5.968621e+02,1.049797e+04
5.997548e+02,1.048257e+04
6.026475e+02,1.048796e+04
6.055402e+02,1.048700e+04
6.084329e+02,1.050212e+04
6.113256e+02,1.046107e+04
6.142183e+02,1.043826e+04
6.171110e+02,1.044317e+04
6.200037e+02,1.043800e+04
6.228964e+02,1.041049e+04
6.257891e+02,1.040339e+04
6.286818e+02,1.040124e+04
6.315745e+02,1.037961e+04
6.344672e+02,1.038494e+04
6.373599e+02,1.035202e+04
6.402526e+02,1.035041e+04
6.431453e+02,1.030916e+04
6.460380e+02,1.033580e+04
6.489307e+02,1.030032e+04
6.518234e+02,1.030292e+04
6.547161e+02,1.027579e+04
6.576088e+02,1.028255e+04
6.605015e+02,1.023214e+04
6.633942e+02,1.022739e+04
6.662869e+02,1.023707e+04
6.691796e+02,1.022423e+04
6.720723e+02,1.021956e+04
6.749650e+02,1.017667e+04
6.778577e+02,1.017719e+04
6.807504e+02,1.019110e+04
6.836431e+02,1.017577e+04
6.865358e+02,1.016296e+04
6.894285e+02,1.012139e+04
6.923212e+02,1.013992e+04
6.952139e+02,1.008643e+04
6.981066e+02,1.008603e+04
7.009993e+02,1.006999e+04
7.038920e+02,1.004996e+04
7.067847e+02,1.003691e+04
7.096774e+02,1.007675e+04
7.125701e+02,1.004744e+04
7.154628e+02,1.001981e+04
7.183555e+02,1.000598e+04
7.212482e+02,9.980644e+03
7.241409e+02,9.968362e+03
7.270336e+02,9.950316e+03
7.299263e+02,9.949375e+03
7.328190e+02,9.933636e+03
7.357117e+02,9.882323e+03
7.386044e+02,9.882605e+03
7.414971e+02,9.876563e+03
7.443898e+02,9.885256e+03
7.472825e+02,9.844746e+03
7.501752e+02,9.860381e+03
7.530679e+02,9.795683e+03
7.559606e+02,9.798119e+03
7.588533e+02,9.815103e+03
7.617460e+02,9.809385e+03
7.646387e+02,9.723640e+03
7.675314e+02,9.758029e+03
7.704241e+02,9.713929e+03
7.733168e+02,9.701438e+03
7.762095e+02,9.708313e+03
7.791022e+02,9.710834e+03
7.819949e+02,9.705806e+03
7.848876e+02,9.665873e+03
7.877803e+02,9.650245e+03
7.906730e+02,9.638666e+03
7.935657e+02,9.639590e+03
7.964584e+02,9.568792e+03
7.993511e+02,9.564109e+03
8.022438e+02,9.569781e+03
8.051365e+02,9.529624e+03
8.080292e+02,9.550720e+03
8.109219e+02,9.523083e+03
8.138146e+02,9.515547e+03
8.167073e+02,9.473714e+03
8.196000e+02,9.484515e+03
8.224927e+02,9.449049e+03
8.253854e+02,9.460896e+03
8.282781e+02,9.435561e+03
8.311708e+02,9.388400e+03
8.340635e+02,9.413042e+03
8.369562e+02,9.403550e+03
8.398489e+02,9.383501e+03
8.427416e+02,9.387733e+03
8.456343e+02,9.305127e+03
8.485270e+02,9.321036e+03
8.514197e+02,9.351895e+03
8.543124e+02,9.331732e+03
8.572051e+02,9.272515e+03
8.600978e+02,9.270002e+03
8.629905e+02,9.262517e+03
8.658832e+02,9.219129e+03
8.687759e+02,9.206040e+03
8.716686e+02,9.210886e+03
8.745613e+02,9.178166e+03
8.774540e+02,9.178647e+03
8.803467e+02,9.158700e+03
8.832394e+02,9.113527e+03
8.861321e+02,9.158979e+03
8.890248e+02,9.093199e+03
8.919175e+02,9.081152e+03
8.948102e+02,9.076420e+03
8.977029e+02,9.041854e+03
9.005956e+02,9.008232e+03
9.034883e+02,9.050464e+03
9.063810e+02,9.003885e+03
9.092737e+02,8.975748e+03
9.121664e+02,8.954631e+03
9.150591e+02,8.953011e+03
9.179518e+02,8.940932e+03
9.208445e+02,8.871979e+03
9.237372e+02,8.877943e+03
9.266299e+02,8.866162e+03
9.295226e+02,8.851517e+03
9.324153e+02,8.858185e+03
9.353080e+02,8.841462e+03
9.382007e+02,8.799721e+03
9.410934e+02,8.799759e+03
9.439861e+02,8.755381e+03
9.468788e+02,8.756297e+03
9.497715e+02,8.738378e+03
9.526642e+02,8.710342e+03
9.555569e+02,8.684533e+03
9.584496e+02,8.676796e+03
9.613423e+02,8.698424e+03
9.642350e+02,8.664969e+03
9.671277e+02,8.631042e+03
9.700204e+02,8.614717e+03
9.729131e+02,8.591446e+03
9.758058e+02,8.584467e+03
9.786985e+02,8.581527e+03
9.815912e+02,8.559688e+03
9.844839e+02,8.537416e+03
9.873766e+02,8.500728e+03
9.902693e+02,8.481425e+03
9.931620e+02,8.531606e+03
9.960547e+02,8.502775e+03
9.989474e+02,8.468521e+03
1.001840e+03,8.426801e+03
1.004733e+03,8.405327e+03
1.007626e+03,8.428116e+03
1.010518e+03,8.417193e+03
1.013411e+03,8.381841e+03
1.016304e+03,8.374309e+03
1.019196e+03,8.362220e+03
1.022089e+03,8.314334e+03
1.024982e+03,8.323604e+03
1.027875e+03,8.280775e+03
1.030767e+03,8.303038e+03
1.033660e+03,8.279410e+03
1.036552e+03,8.268026e+03
1.039445e+03,8.284463e+03
1.042338e+03,8.228339e+03
1.045231e+03,8.256482e+03
1.048123e+03,8.206793e+03
1.051016e+03,8.162620e+03
1.053909e+03,8.175835e+03
1.056802e+03,8.177370e+03
1.059694e+03,8.147618e+03
1.062587e+03,8.145036e+03
1.065479e+03,8.104603e+03
1.068372e+03,8.090225e+03
1.071265e+03,8.119022e+03
1.074158e+03,8.089502e+03
1.077050e+03,8.041642e+03
1.079943e+03,8.043396e+03
1.082836e+03,8.026473e+03
1.085729e+03,8.027256e+03
1.088621e+03,8.028659e+03
1.091514e+03,8.000795e+03
1.094406e+03,7.981271e+03
1.097299e+03,7.972478e+03
1.100192e+03,7.952817e+03
1.103085e+03,7.961756e+03
1.105977e+03,7.916752e+03
1.108870e+03,7.888408e+03
1.111763e+03,7.884801e+03
1.114656e+03,7.863109e+03
1.117548e+03,7.877790e+03
1.120441e+03,7.837563e+03
1.123334e+03,7.827049e+03
1.126226e+03,7.777073e+03
1.129119e+03,7.761068e+03
1.132012e+03,7.778869e+03
1.134904e+03,7.743946e+03
1.137797e+03,7.689421e+03
1.140690e+03,7.687248e+03
1.143583e+03,7.708151e+03
1.146475e+03,7.681883e+03
1.149368e+03,7.670582e+03
1.152261e+03,7.669136e+03
1.155153e+03,7.609572e+03
1.158046e+03,7.616635e+03
1.160939e+03,7.565704e+03
1.163831e+03,7.582173e+03
1.166724e+03,7.579875e+03
1.169617e+03,7.542654e+03
1.172510e+03,7.525253e+03
1.175402e+03,7.491466e+03
1.178295e+03,7.506071e+03
1.181188e+03,7.523854e+03
1.184080e+03,7.455718e+03
1.186973e+03,7.410310e+03
1.189866e+03,7.406429e+03
1.192758e+03,7.401459e+03
1.195651e+03,7.407105e+03
1.198544e+03,7.419356e+03
1.201437e+03,7.383209e+03
1.204329e+03,7.341069e+03
1.207222e+03,7.314919e+03
1.210115e+03,7.347071e+03
1.213007e+03,7.338575e+03
1.215900e+03,7.283978e+03
1.218793e+03,7.273273e+03
1.221685e+03,7.270716e+03
1.224578e+03,7.263375e+03
1.227471e+03,7.246024e+03
1.230364e+03,7.261309e+03
1.233256e+03,7.196245e+03
1.236149e+03,7.197177e+03
1.239042e+03,7.179630e+03
1.241934e+03,7.182288e+03
1.244827e+03,7.180868e+03
1.247720e+03,7.142362e+03
1.250612e+03,7.123583e+03
1.253505e+03,7.107583e+03
1.256398e+03,7.087497e+03
1.259291e+03,7.080908e+03
1.262183e+03,7.066320e+03
1.265076e+03,7.042077e+03
1.267969e+03,7.022072e+03
1.270861e+03,7.017902e+03
1.273754e+03,7.029724e+03
1.276647e+03,6.997726e+03
1.279539e+03,6.966042e+03
1.282432e+03,6.961062e+03
1.285325e+03,6.963007e+03
1.288218e+03,6.936639e+03
1.291110e+03,6.939372e+03
1.294003e+03,6.944395e+03
1.296896e+03,6.874946e+03
1.299788e+03,6.876113e+03
1.302681e+03,6.881049e+03
1.305574e+03,6.873224e+03
1.308466e+03,6.846723e+03
1.311359e+03,6.833631e+03
1.314252e+03,6.808492e+03
1.317145e+03,6.814385e+03
1.320037e+03,6.815289e+03
1.322930e+03,6.790201e+03
1.325823e+03,6.757139e+03
1.328715e+03,6.734619e+03
1.331608e+03,6.740983e+03
1.334501e+03,6.742318e+03
1.337393e+03,6.749352e+03
1.340286e+03,6.721526e+03
1.343179e+03,6.662071e+03
1.346072e+03,6.674599e+03
1.348964e+03,6.682865e+03
1.351857e+03,6.676930e+03
1.354750e+03,6.634696e+03
1.357642e+03,6.609002e+03
1.360535e+03,6.580985e+03
1.363428e+03,6.577423e+03
1.366320e+03,6.589375e+03
1.369213e+03,6.546044e+03
1.372106e+03,6.561570e+03
1.374999e+03,6.536961e+03
1.377891e+03,6.528509e+03
1.380784e+03,6.509063e+03
1.383677e+03,6.478701e+03
1.386569e+03,6.482879e+03
1.389462e+03,6.461132e+03
1.392355e+03,6.434632e+03
1.395247e+03,6.419126e+03
1.398140e+03,6.429129e+03
1.401033e+03,6.392124e+03
1.403926e+03,6.386440e+03
1.406818e+03,6.378776e+03
1.409711e+03,6.376558e+03
1.412604e+03,6.340450e+03
1.415496e+03,6.355130e+03
1.418389e+03,6.336224e+03
1.421282e+03,6.319146e+03
1.424174e+03,6.303842e+03
1.427067e+03,6.285011e+03
1.429960e+03,6.278372e+03
1.432853e+03,6.245126e+03
1.435745e+03,6.246349e+03
1.438638e+03,6.237859e+03
1.441531e+03,6.237455e+03
1.444423e+03,6.210225e+03
1.447316e+03,6.193901e+03
1.450209e+03,6.152173e+03
1.453101e+03,6.172583e+03
1.455994e+03,6.141649e+03
1.458887e+03,6.148430e+03
1.461780e+03,6.129638e+03
1.464672e+03,6.118776e+03
1.467565e+03,6.085259e+03
1.470458e+03,6.105024e+03
1.473350e+03,6.073689e+03
1.476243e+03,6.074294e+03
1.479136e+03,6.046564e+03
1.482028e+03,6.005665e+03
1.484921e+03,6.011083e+03
1.487814e+03,5.988046e+03
1.490707e+03,6.000167e+03
1.493599e+03,5.960847e+03
1.496492e+03,5.970087e+03
1.499385e+03,5.952376e+03
1.502277e+03,5.949592e+03
1.505170e+03,5.916901e+03
1.508063e+03,5.926586e+03
1.510955e+03,5.894131e+03
1.513848e+03,5.866433e+03
1.516741e+03,5.881081e+03
1.519634e+03,5.890041e+03
1.522526e+03,5.861310e+03
1.525419e+03,5.840256e+03
1.528312e+03,5.792053e+03
1.531204e+03,5.811544e+03
1.534097e+03,5.791815e+03
1.536990e+03,5.796265e+03
1.539882e+03,5.774927e+03
1.542775e+03,5.758274e+03
1.545668e+03,5.740357e+03
1.548561e+03,5.739675e+03
1.551453e+03,5.739953e+03
1.554346e+03,5.727209e+03
1.557239e+03,5.700525e+03
1.560131e+03,5.703755e+03
1.563024e+03,5.668056e+03
1.565917e+03,5.658146e+03
1.568809e+03,5.674404e+03
1.571702e+03,5.652176e+03
1.574595e+03,5.628474e+03
1.577488e+03,5.598993e+03
1.580380e+03,5.631446e+03
1.583273e+03,5.608665e+03
1.586166e+03,5.603927e+03
1.589058e+03,5.549917e+03
1.591951e+03,5.556833e+03
1.594844e+03,5.532325e+03
1.597736e+03,5.527634e+03
1.600629e+03,5.544231e+03
1.603522e+03,5.508376e+03
1.606415e+03,5.468678e+03
1.609307e+03,5.485298e+03
1.612200e+03,5.476703e+03
1.615093e+03,5.481968e+03
1.617985e+03,5.424044e+03
1.620878e+03,5.428539e+03
1.623771e+03,5.412051e+03
1.626663e+03,5.413366e+03
1.629556e+03,5.415313e+03
1.632449e+03,5.386688e+03
1.635342e+03,5.427914e+03
1.638234e+03,5.372262e+03
1.641127e+03,5.362846e+03
1.644020e+03,5.331628e+03
1.646912e+03,5.327838e+03
1.649805e+03,5.317988e+03
1.652698e+03,5.289205e+03
1.655590e+03,5.288430e+03
1.658483e+03,5.303018e+03
1.661376e+03,5.267735e+03
1.664269e+03,5.244776e+03
1.667161e+03,5.236033e+03
1.670054e+03,5.210549e+03
1.672947e+03,5.254009e+03
1.675839e+03,5.204897e+03
1.678732e+03,5.184053e+03
1.681625e+03,5.158648e+03
1.684517e+03,5.158503e+03
1.687410e+03,5.158876e+03
1.690303e+03,5.135548e+03
1.693196e+03,5.134079e+03
1.696088e+03,5.124659e+03
1.698981e+03,5.094260e+03
1.701874e+03,5.100692e+03
1.704766e+03,5.075610e+03
1.707659e+03,5.103039e+03
1.710552e+03,5.036061e+03
1.713444e+03,5.044369e+03
1.716337e+03,5.051960e+03
1.719230e+03,5.022455e+03
1.722123e+03,5.027350e+03
1.725015e+03,4.984086e+03
1.727908e+03,4.991947e+03
1.730801e+03,4.982642e+03
1.733693e+03,4.946915e+03
1.736586e+03,4.959412e+03
1.739479e+03,4.922335e+03
1.742371e+03,4.922868e+03
1.745264e+03,4.910235e+03
1.748157e+03,4.894333e+03
1.751050e+03,4.891415e+03
1.753942e+03,4.896297e+03
1.756835e+03,4.891108e+03
1.759728e+03,4.863407e+03
1.762620e+03,4.843989e+03
1.765513e+03,4.836957e+03
1.768406e+03,4.791364e+03
1.771298e+03,4.825366e+03
1.774191e+03,4.803257e+03
1.777084e+03,4.804549e+03
1.779977e+03,4.782251e+03
1.782869e+03,4.778753e+03
1.785762e+03,4.757472e+03
1.788655e+03,4.756865e+03
1.791547e+03,4.722834e+03
1.794440e+03,4.730479e+03
1.797333e+03,4.720244e+03
1.800225e+03,4.706914e+03
1.803118e+03,4.695771e+03
1.806011e+03,4.683042e+03
1.808904e+03,4.678651e+03
1.811796e+03,4.627916e+03
1.814689e+03,4.635264e+03
1.817582e+03,4.608220e+03
1.820474e+03,4.615809e+03
1.823367e+03,4.625035e+03
1.826260e+03,4.586276e+03
1.829152e+03,4.587482e+03
1.832045e+03,4.566827e+03
1.834938e+03,4.567047e+03
1.837831e+03,4.537008e+03
1.840723e+03,4.528360e+03
1.843616e+03,4.527374e+03
1.846509e+03,4.517837e+03
1.849401e+03,4.498892e+03
1.852294e+03,4.477504e+03
1.855187e+03,4.463302e+03
1.858079e+03,4.469859e+03
1.860972e+03,4.467498e+03
1.863865e+03,4.447034e+03
1.866758e+03,4.397478e+03
1.869650e+03,4.397617e+03
1.872543e+03,4.407473e+03
1.875436e+03,4.389673e+03
1.878328e+03,4.390529e+03
1.881221e+03,4.358247e+03
1.884114e+03,4.356352e+03
1.887006e+03,4.316581e+03
1.889899e+03,4.336184e+03
1.892792e+03,4.335616e+03
1.895685e+03,4.320140e+03
1.898577e+03,4.306432e+03
1.901470e+03,4.309761e+03
1.904363e+03,4.256782e+03
1.907255e+03,4.297088e+03
1.910148e+03,4.272076e+03
1.913041e+03,4.248472e+03
1.915933e+03,4.238555e+03
1.918826e+03,4.222905e+03
1.921719e+03,4.226408e+03
1.924612e+03,4.194319e+03
1.927504e+03,4.176015e+03
1.930397e+03,4.165934e+03
1.933290e+03,4.164385e+03
1.936182e+03,4.170052e+03
1.939075e+03,4.135297e+03
1.941968e+03,4.115270e+03
1.944860e+03,4.111135e+03
1.947753e+03,4.102587e+03
1.950646e+03,4.070423e+03
1.953539e+03,4.077981e+03
1.956431e+03,4.062501e+03
1.959324e+03,4.075002e+03
1.962217e+03,4.038422e+03
1.965109e+03,4.022410e+03
1.968002e+03,4.035894e+03
1.970895e+03,4.034340e+03
1.973787e+03,3.992659e+03
1.976680e+03,3.982920e+03
1.979573e+03,3.987022e+03
1.982466e+03,3.974221e+03
1.985358e+03,3.945537e+03
1.988251e+03,3.941848e+03
1.991144e+03,3.934042e+03
1.994036e+03,3.923395e+03
1.996929e+03,3.913024e+03
1.999822e+03,3.917660e+03
2.002714e+03,3.896372e+03
2.005607e+03,3.864708e+03
2.008500e+03,3.876831e+03
2.011393e+03,3.844619e+03
2.014285e+03,3.861781e+03
2.017178e+03,3.845540e+03
2.020071e+03,3.823790e+03
2.022963e+03,3.794356e+03
2.025856e+03,3.800041e+03
2.028749e+03,3.767892e+03
2.031641e+03,3.777817e+03
2.034534e+03,3.762516e+03
2.037427e+03,3.760564e+03
2.040320e+03,3.743657e+03
2.043212e+03,3.729257e+03
2.046105e+03,3.717752e+03
2.048998e+03,3.720613e+03
2.051890e+03,3.714046e+03
2.054783e+03,3.697172e+03
2.057676e+03,3.661372e+03
2.060568e+03,3.652683e+03
2.063461e+03,3.651019e+03
2.066354e+03,3.644172e+03
2.069247e+03,3.656843e+03
2.072139e+03,3.603119e+03
2.075032e+03,3.596232e+03
2.077925e+03,3.576425e+03
2.080817e+03,3.584165e+03
2.083710e+03,3.565597e+03
2.086603e+03,3.560487e+03
2.089496e+03,3.549151e+03
2.092388e+03,3.533892e+03
2.095281e+03,3.551944e+03
2.098174e+03,3.517174e+03
2.101066e+03,3.508496e+03
2.103959e+03,3.497350e+03
2.106852e+03,3.484779e+03
2.109744e+03,3.490541e+03
2.112637e+03,3.442337e+03
2.115530e+03,3.432979e+03
2.118422e+03,3.415032e+03
2.121315e+03,3.431828e+03
2.124208e+03,3.426384e+03
2.127101e+03,3.442899e+03
2.129993e+03,3.390144e+03
2.132886e+03,3.388921e+03
2.135779e+03,3.405741e+03
2.138671e+03,3.355112e+03
2.141564e+03,3.370518e+03
2.144457e+03,3.348022e+03
2.147350e+03,3.327704e+03
2.150242e+03,3.318962e+03
2.153135e+03,3.317823e+03
2.156028e+03,3.292682e+03
2.158920e+03,3.279243e+03
2.161813e+03,3.283847e+03
2.164706e+03,3.248647e+03
2.167598e+03,3.240812e+03
2.170491e+03,3.279186e+03
2.173384e+03,3.227294e+03
2.176277e+03,3.234592e+03
2.179169e+03,3.207260e+03
2.182062e+03,3.197075e+03
2.184955e+03,3.186048e+03
2.187847e+03,3.180370e+03
2.190740e+03,3.157795e+03
2.193633e+03,3.166124e+03
2.196525e+03,3.156328e+03
2.199418e+03,3.136423e+03
2.202311e+03,3.122276e+03
2.205204e+03,3.148954e+03
2.208096e+03,3.128061e+03
2.210989e+03,3.066359e+03
2.213882e+03,3.063832e+03
2.216774e+03,3.060046e+03
2.219667e+03,3.074186e+03
2.222560e+03,3.041602e+03
2.225452e+03,3.032294e+03
2.228345e+03,3.006323e+03
2.231238e+03,3.031417e+03
2.234131e+03,3.018441e+03
2.237023e+03,2.996154e+03
2.239916e+03,2.972113e+03
2.242809e+03,2.948784e+03
2.245701e+03,2.949021e+03
2.248594e+03,2.959769e+03
2.251487e+03,2.952096e+03
2.254379e+03,2.940984e+03
2.257272e+03,2.928031e+03
2.260165e+03,2.896893e+03
2.263058e+03,2.879779e+03
2.265950e+03,2.916178e+03
2.268843e+03,2.862269e+03
2.271736e+03,2.873305e+03
2.274628e+03,2.877353e+03
2.277521e+03,2.863049e+03
2.280414e+03,2.837623e+03
2.283306e+03,2.842189e+03
2.286199e+03,2.841014e+03
2.289092e+03,2.814400e+03
2.291985e+03,2.809018e+03
2.294877e+03,2.794699e+03
2.297770e+03,2.787657e+03
2.300663e+03,2.759171e+03
2.303555e+03,2.752583e+03
2.306448e+03,2.739791e+03
2.309341e+03,2.718686e+03
2.312233e+03,2.750810e+03
2.315126e+03,2.746233e+03
2.318019e+03,2.715083e+03
2.320912e+03,2.703116e+03
2.323804e+03,2.701386e+03
2.326697e+03,2.718302e+03
2.329590e+03,2.670538e+03
2.332482e+03,2.692081e+03
2.335375e+03,2.634039e+03
2.338268e+03,2.668388e+03
2.341160e+03,2.627287e+03
2.344053e+03,2.636625e+03
2.346946e+03,2.633648e+03
2.349839e+03,2.605260e+03
2.352731e+03,2.583310e+03
2.355624e+03,2.591214e+03
2.358517e+03,2.621110e+03
2.361409e+03,2.588202e+03
2.364302e+03,2.561201e+03
2.367195e+03,2.551891e+03
2.370087e+03,2.530643e+03
2.372980e+03,2.541143e+03
2.375873e+03,2.539397e+03
2.378766e+03,2.528663e+03
2.381658e+03,2.510439e+03
2.384551e+03,2.510588e+03
2.387444e+03,2.495534e+03
2.390336e+03,2.492907e+03
2.393229e+03,2.483266e+03
2.396122e+03,2.473616e+03
2.399014e+03,2.465360e+03
2.401907e+03,2.437596e+03
2.404800e+03,2.441970e+03
2.407693e+03,2.465220e+03
2.410585e+03,2.437719e+03
2.413478e+03,2.413905e+03
2.416371e+03,2.412024e+03
2.419263e+03,2.416523e+03
2.422156e+03,2.402946e+03
2.425049e+03,2.373635e+03
2.427941e+03,2.368571e+03
2.430834e+03,2.380415e+03
2.433727e+03,2.366137e+03
2.436620e+03,2.364291e+03
2.439512e+03,2.338013e+03
2.442405e+03,2.328187e+03
2.445298e+03,2.339156e+03
2.448190e+03,2.305891e+03
2.451083e+03,2.333673e+03
2.453976e+03,2.291648e+03
2.456868e+03,2.313043e+03
2.459761e+03,2.297236e+03
2.462654e+03,2.295395e+03
2.465547e+03,2.288477e+03
2.468439e+03,2.270247e+03
2.471332e+03,2.259634e+03
2.474225e+03,2.273598e+03
2.477117e+03,2.254287e+03
2.480010e+03,2.249532e+03
2.482903e+03,2.240191e+03
2.485795e+03,2.236482e+03
2.488688e+03,2.209792e+03
2.491581e+03,2.214479e+03
2.494474e+03,2.214620e+03
2.497366e+03,2.193656e+03
2.500259e+03,2.192967e+03
2.503152e+03,2.175134e+03
2.506044e+03,2.194082e+03
2.508937e+03,2.168806e+03
2.511830e+03,2.177701e+03
2.514722e+03,2.180881e+03
2.517615e+03,2.175613e+03
2.520508e+03,2.148233e+03
2.523401e+03,2.128812e+03
2.526293e+03,2.156791e+03
2.529186e+03,2.118858e+03
2.532079e+03,2.119705e+03
2.534971e+03,2.094559e+03
2.537864e+03,2.103646e+03
2.540757e+03,2.093832e+03
2.543649e+03,2.094374e+03
2.546542e+03,2.093785e+03
2.549435e+03,2.095103e+03
2.552328e+03,2.064938e+03
2.555220e+03,2.064117e+03
2.558113e+03,2.064198e+03
2.561006e+03,2.052203e+03
2.563898e+03,2.052699e+03
2.566791e+03,2.062609e+03
2.569684e+03,2.054024e+03
2.572576e+03,2.018573e+03
2.575469e+03,2.029068e+03
2.578362e+03,2.033545e+03
2.581255e+03,2.000133e+03
2.584147e+03,2.004337e+03
2.587040e+03,1.987532e+03
2.589933e+03,1.991104e+03
2.592825e+03,1.991647e+03
2.595718e+03,1.957336e+03
2.598611e+03,1.977682e+03
2.601503e+03,1.948184e+03
2.604396e+03,1.963089e+03
2.607289e+03,1.961381e+03
2.610182e+03,1.936844e+03
2.613074e+03,1.953706e+03
2.615967e+03,1.937381e+03
2.618860e+03,1.934858e+03
2.621752e+03,1.935294e+03
2.624645e+03,1.894401e+03
2.627538e+03,1.909376e+03
2.630430e+03,1.885475e+03
2.633323e+03,1.898612e+03
2.636216e+03,1.907286e+03
2.639109e+03,1.891997e+03
2.642001e+03,1.882395e+03
2.644894e+03,1.879653e+03
2.647787e+03,1.866975e+03
2.650679e+03,1.880978e+03
2.653572e+03,1.850318e+03
2.656465e+03,1.857275e+03
2.659357e+03,1.852051e+03
2.662250e+03,1.864697e+03
2.665143e+03,1.851785e+03
2.668036e+03,1.843090e+03
2.670928e+03,1.833304e+03
2.673821e+03,1.834843e+03
2.676714e+03,1.826316e+03
2.679606e+03,1.832866e+03
2.682499e+03,1.812878e+03
2.685392e+03,1.787474e+03
2.688284e+03,1.784606e+03
2.691177e+03,1.797423e+03
2.694070e+03,1.808675e+03
2.696963e+03,1.808000e+03
2.699855e+03,1.776248e+03
2.702748e+03,1.772411e+03
2.705641e+03,1.767621e+03
2.708533e+03,1.778989e+03
2.711426e+03,1.746084e+03
2.714319e+03,1.751823e+03
2.717211e+03,1.774827e+03
2.720104e+03,1.746623e+03
2.722997e+03,1.749674e+03
2.725890e+03,1.720766e+03
2.728782e+03,1.738937e+03
2.731675e+03,1.721553e+03
2.734568e+03,1.724024e+03
2.737460e+03,1.721402e+03
2.740353e+03,1.724079e+03
2.743246e+03,1.711108e+03
2.746138e+03,1.703313e+03
2.749031e+03,1.713513e+03
2.751924e+03,1.704982e+03
2.754817e+03,1.687435e+03
2.757709e+03,1.687661e+03
2.760602e+03,1.684617e+03
2.763495e+03,1.680648e+03
2.766387e+03,1.676849e+03
2.769280e+03,1.698417e+03
2.772173e+03,1.657495e+03
2.775065e+03,1.659673e+03
2.777958e+03,1.660536e+03
2.780851e+03,1.632568e+03
2.783744e+03,1.631864e+03
2.786636e+03,1.630754e+03
2.789529e+03,1.627139e+03
2.792422e+03,1.648534e+03
2.795314e+03,1.605740e+03
2.798207e+03,1.637482e+03
2.801100e+03,1.644235e+03
2.803992e+03,1.636763e+03
2.806885e+03,1.635807e+03
2.809778e+03,1.623911e+03
2.812671e+03,1.607922e+03
2.815563e+03,1.622048e+03
2.818456e+03,1.606583e+03
2.821349e+03,1.614425e+03
2.824241e+03,1.587008e+03
2.827134e+03,1.587538e+03
2.830027e+03,1.616559e+03
2.832919e+03,1.611070e+03
2.835812e+03,1.575812e+03
2.838705e+03,1.557162e+03
2.841598e+03,1.582370e+03
2.844490e+03,1.597033e+03
2.847383e+03,1.564617e+03
2.850276e+03,1.581771e+03
2.853168e+03,1.580127e+03
2.856061e+03,1.596031e+03
2.858954e+03,1.551021e+03
2.861846e+03,1.555664e+03
2.864739e+03,1.571992e+03
2.867632e+03,1.588482e+03
2.870525e+03,1.546856e+03
2.873417e+03,1.582992e+03
2.876310e+03,1.548515e+03
2.879203e+03,1.546231e+03
2.882095e+03,1.556984e+03
2.884988e+03,1.564231e+03
2.887881e+03,1.561030e+03
2.890773e+03,1.571496e+03
2.893666e+03,1.549898e+03
2.896559e+03,1.555079e+03
2.899452e+03,1.541073e+03
2.902344e+03,1.539455e+03
2.905237e+03,1.545631e+03
2.908130e+03,1.525061e+03
2.911022e+03,1.505168e+03
2.913915e+03,1.510553e+03
2.916808e+03,1.514773e+03
2.919700e+03,1.491871e+03
2.922593e+03,1.513895e+03
2.925486e+03,1.501451e+03
2.928379e+03,1.500581e+03
2.931271e+03,1.463941e+03
2.934164e+03,1.496368e+03
2.937057e+03,1.499036e+03
2.939949e+03,1.483056e+03
2.942842e+03,1.466234e+03
2.945735e+03,1.438959e+03
2.948627e+03,1.467809e+03
2.951520e+03,1.465907e+03
2.954413e+03,1.451830e+03
2.957306e+03,1.493499e+03
2.960198e+03,1.445018e+03
2.963091e+03,1.463042e+03
2.965984e+03,1.448463e+03
2.968876e+03,1.454214e+03
2.971769e+03,1.437445e+03
2.974662e+03,1.425793e+03
2.977554e+03,1.411979e+03
2.980447e+03,1.423882e+03
2.983340e+03,1.423784e+03
2.986233e+03,1.373298e+03
2.989125e+03,1.416554e+03
2.992018e+03,1.391190e+03
2.994911e+03,1.396917e+03
2.997803e+03,1.427399e+03
3.000696e+03,1.382161e+03
3.003589e+03,1.365293e+03
3.006481e+03,1.437071e+03
3.009374e+03,1.384995e+03
3.012267e+03,1.403725e+03
3.015160e+03,1.371530e+03
3.018052e+03,1.365514e+03
3.020945e+03,1.353718e+03
3.023838e+03,1.379762e+03
3.026730e+03,1.368792e+03
3.029623e+03,1.353533e+03
3.032516e+03,1.400077e+03
3.035408e+03,1.330192e+03
3.038301e+03,1.340651e+03
3.041194e+03,1.346575e+03
3.044087e+03,1.345260e+03
3.046979e+03,1.365201e+03
3.049872e+03,1.347708e+03
3.052765e+03,1.338918e+03
3.055657e+03,1.350396e+03
3.058550e+03,1.373200e+03
3.061443e+03,1.381859e+03
3.064335e+03,1.354256e+03
3.067228e+03,1.328525e+03
3.070121e+03,1.351600e+03
3.073014e+03,1.349201e+03
3.075906e+03,1.315499e+03
3.078799e+03,1.313675e+03
3.081692e+03,1.324271e+03
3.084584e+03,1.326470e+03
3.087477e+03,1.279412e+03
3.090370e+03,1.347828e+03
3.093262e+03,1.339717e+03
3.096155e+03,1.337609e+03
3.099048e+03,1.335502e+03
3.101941e+03,1.342998e+03
3.104833e+03,1.314258e+03
3.107726e+03,1.329982e+03
3.110619e+03,1.332283e+03
3.113511e+03,1.304810e+03
3.116404e+03,1.298316e+03
3.119297e+03,1.320761e+03
3.122189e+03,1.289475e+03
3.125082e+03,1.331372e+03
3.127975e+03,1.311589e+03
3.130868e+03,1.313217e+03
3.133760e+03,1.365983e+03
3.136653e+03,1.295708e+03
3.139546e+03,1.320614e+03
3.142438e+03,1.320541e+03
3.145331e+03,1.307470e+03
3.148224e+03,1.292056e+03
3.151116e+03,1.343818e+03
3.154009e+03,1.336429e+03
3.156902e+03,1.321076e+03
3.159795e+03,1.320334e+03
3.162687e+03,1.331014e+03
3.165580e+03,1.336834e+03
3.168473e+03,1.338221e+03
3.171365e+03,1.306978e+03
3.174258e+03,1.337948e+03
3.177151e+03,1.274554e+03
3.180043e+03,1.312071e+03
3.182936e+03,1.313954e+03
3.185829e+03,1.333697e+03
3.188722e+03,1.294232e+03
3.191614e+03,1.306838e+03
3.194507e+03,1.289893e+03
3.197400e+03,1.299873e+03
3.200292e+03,1.331215e+03
3.203185e+03,0.000000e+00
3.206078e+03,0.000000e+00
3.208970e+03,0.000000e+00
3.211863e+03,0.000000e+00
3.214756e+03,0.000000e+00
3.217649e+03,0.000000e+00
3.220541e+03,0.000000e+00
3.223434e+03,0.000000e+00
3.226327e+03,0.000000e+00
3.229219e+03,0.000000e+00
3.232112e+03,0.000000e+00
3.235005e+03,0.000000e+00
3.237897e+03,0.000000e+00
3.240790e+03,0.000000e+00
3.243683e+03,0.000000e+00
3.246576e+03,0.000000e+00
3.249468e+03,0.000000e+00
3.252361e+03,0.000000e+00
3.255254e+03,0.000000e+00
3.258146e+03,0.000000e+00
3.261039e+03,0.000000e+00
3.263932e+03,0.000000e+00
3.266824e+03,0.000000e+00
3.269717e+03,0.000000e+00
3.272610e+03,0.000000e+00
3.275503e+03,0.000000e+00
3.278395e+03,0.000000e+00
3.281288e+03,0.000000e+00
3.284181e+03,0.000000e+00
3.287073e+03,0.000000e+00
3.289966e+03,0.000000e+00
3.292859e+03,0.000000e+00
3.295751e+03,0.000000e+00
3.298644e+03,0.000000e+00
3.301537e+03,0.000000e+00
3.304430e+03,0.000000e+00
3.307322e+03,0.000000e+00
3.310215e+03,0.000000e+00
3.313108e+03,0.000000e+00
3.316000e+03,0.000000e+00
3.318893e+03,0.000000e+00
3.321786e+03,0.000000e+00
3.324678e+03,0.000000e+00
3.327571e+03,0.000000e+00
3.330464e+03,0.000000e+00
3.333357e+03,0.000000e+00
3.336249e+03,0.000000e+00
3.339142e+03,0.000000e+00
3.342035e+03,0.000000e+00
3.344927e+03,0.000000e+00
3.347820e+03,0.000000e+00
3.350713e+03,0.000000e+00
3.353605e+03,0.000000e+00
3.356498e+03,0.000000e+00
3.359391e+03,0.000000e+00
3.362284e+03,0.000000e+00
3.365176e+03,0.000000e+00
3.368069e+03,0.000000e+00
3.370962e+03,0.000000e+00
3.373854e+03,0.000000e+00
3.376747e+03,0.000000e+00
3.379640e+03,0.000000e+00
3.382532e+03,0.000000e+00
3.385425e+03,0.000000e+00
3.388318e+03,0.000000e+00
3.391211e+03,0.000000e+00
3.394103e+03,0.000000e+00
3.396996e+03,0.000000e+00
3.399889e+03,0.000000e+00
3.402781e+03,0.000000e+00
3.405674e+03,0.000000e+00
3.408567e+03,0.000000e+00
3.411459e+03,0.000000e+00
3.414352e+03,0.000000e+00
3.417245e+03,0.000000e+00
3.420138e+03,0.000000e+00
3.423030e+03,0.000000e+00
3.425923e+03,0.000000e+00
3.428816e+03,0.000000e+00
3.431708e+03,0.000000e+00
3.434601e+03,0.000000e+00
3.437494e+03,0.000000e+00
3.440386e+03,0.000000e+00
3.443279e+03,0.000000e+00
3.446172e+03,0.000000e+00
3.449065e+03,0.000000e+00
3.451957e+03,0.000000e+00
3.454850e+03,0.000000e+00
3.457743e+03,0.000000e+00
3.460635e+03,0.000000e+00
3.463528e+03,0.000000e+00
3.466421e+03,0.000000e+00
3.469313e+03,0.000000e+00
3.472206e+03,0.000000e+00
3.475099e+03,0.000000e+00
3.477992e+03,0.000000e+00
3.480884e+03,0.000000e+00
3.483777e+03,0.000000e+00
3.486670e+03,0.000000e+00
3.489563e+03,0.000000e+00
3.492455e+03,0.000000e+00
3.495348e+03,0.000000e+00
3.498240e+03,0.000000e+00
3.500169e+03,0.000000e+00