File: RAMAN_data/06022023_r2/clear fibre.CSV
9.931763e+01,0.000000e+00
1.022103e+02,0.000000e+00
1.051030e+02,0.000000e+00
1.079957e+02,0.000000e+00
1.108884e+02,0.000000e+00
1.137811e+02,0.000000e+00
1.166738e+02,0.000000e+00
1.195665e+02,0.000000e+00
1.224592e+02,0.000000e+00
1.253519e+02,0.000000e+00
1.282446e+02,0.000000e+00
1.311373e+02,0.000000e+00
1.340300e+02,0.000000e+00
1.369227e+02,0.000000e+00
1.398154e+02,0.000000e+00
1.427081e+02,0.000000e+00
1.456008e+02,0.000000e+00
1.484935e+02,0.000000e+00
1.513862e+02,0.000000e+00
1.542789e+02,0.000000e+00
1.571716e+02,0.000000e+00
1.600643e+02,0.000000e+00
1.629570e+02,0.000000e+00
1.658497e+02,0.000000e+00
1.687424e+02,0.000000e+00
1.716351e+02,0.000000e+00
1.745278e+02,0.000000e+00
1.774205e+02,0.000000e+00
1.803132e+02,0.000000e+00
1.832059e+02,0.000000e+00
1.860986e+02,0.000000e+00
1.889913e+02,0.000000e+00
1.918840e+02,0.000000e+00
1.947767e+02,0.000000e+00
1.976694e+02,0.000000e+00
2.005621e+02,1.047899e+04
2.034548e+02,1.051899e+04
2.063475e+02,1.054891e+04
2.092402e+02,1.054938e+04
2.121329e+02,1.055037e+04
2.150256e+02,1.057905e+04
2.179183e+02,1.060927e+04
2.208110e+02,1.066068e+04
2.237037e+02,1.067604e+04
2.265964e+02,1.068651e+04
2.294892e+02,1.071479e+04
2.323819e+02,1.076347e+04
2.352746e+02,1.080069e+04
2.381673e+02,1.083713e+04
2.410600e+02,1.083247e+04
2.439527e+02,1.084990e+04
2.468454e+02,1.088676e+04
2.497381e+02,1.092278e+04
2.526308e+02,1.095922e+04
2.555235e+02,1.097428e+04
2.584161e+02,1.097618e+04
2.613088e+02,1.101875e+04
2.642015e+02,1.107090e+04
2.670942e+02,1.109680e+04
2.699869e+02,1.113129e+04
2.728796e+02,1.114345e+04
2.757723e+02,1.118588e+04
2.786650e+02,1.122837e+04
2.815577e+02,1.125757e+04
2.844504e+02,1.128443e+04
2.873431e+02,1.128894e+04
2.902358e+02,1.131662e+04
2.931285e+02,1.134527e+04
2.960212e+02,1.138987e+04
2.989139e+02,1.141438e+04
3.018066e+02,1.143403e+04
3.046993e+02,1.146588e+04
3.075920e+02,1.148845e+04
3.104847e+02,1.152735e+04
3.133774e+02,1.157835e+04
3.162701e+02,1.159458e+04
3.191628e+02,1.160775e+04
3.220555e+02,1.163998e+04
3.249482e+02,1.168473e+04
3.278409e+02,1.172350e+04
3.307336e+02,1.175910e+04
3.336263e+02,1.178434e+04
3.365190e+02,1.179563e+04
3.394117e+02,1.184454e+04
3.423044e+02,1.188976e+04
3.451971e+02,1.195046e+04
3.480898e+02,1.197444e+04
3.509825e+02,1.198815e+04
3.538752e+02,1.203829e+04
3.567680e+02,1.208699e+04
3.596607e+02,1.212620e+04
3.625534e+02,1.216527e+04
3.654461e+02,1.215099e+04
3.683388e+02,1.217619e+04
3.712315e+02,1.223918e+04
3.741242e+02,1.227458e+04
3.770169e+02,1.231110e+04
3.799096e+02,1.235298e+04
3.828023e+02,1.236815e+04
3.856950e+02,1.240989e+04
3.885877e+02,1.246675e+04
3.914804e+02,1.251700e+04
3.943731e+02,1.254452e+04
3.972658e+02,1.257093e+04
4.001585e+02,1.259455e+04
4.030512e+02,1.265127e+04
4.059439e+02,1.268371e+04
4.088366e+02,1.272614e+04
4.117293e+02,1.274362e+04
4.146220e+02,1.277177e+04
4.175147e+02,1.281287e+04
4.204074e+02,1.285215e+04
4.233001e+02,1.288550e+04
4.261928e+02,1.290769e+04
4.290855e+02,1.294545e+04
4.319782e+02,1.298619e+04
4.348709e+02,1.304495e+04
4.377636e+02,1.309429e+04
4.406563e+02,1.313490e+04
4.435490e+02,1.317557e+04
4.464417e+02,1.321596e+04
4.493344e+02,1.326363e+04
4.522271e+02,1.329423e+04
4.551198e+02,1.332356e+04
4.580125e+02,1.333318e+04
4.609052e+02,1.337746e+04
4.637979e+02,1.340270e+04
4.666906e+02,1.342675e+04
4.695833e+02,1.347341e+04
4.724760e+02,1.351124e+04
4.753687e+02,1.353445e+04
4.782614e+02,1.356081e+04
4.811541e+02,1.360224e+04
4.840468e+02,1.364769e+04
4.869395e+02,1.368037e+04
4.898322e+02,1.370541e+04
4.927249e+02,1.374474e+04
4.956176e+02,1.378795e+04
4.985103e+02,1.383418e+04
5.014030e+02,1.385629e+04
5.042957e+02,1.387491e+04
5.071884e+02,1.389021e+04
5.100811e+02,1.391298e+04
5.129738e+02,1.394550e+04
5.158665e+02,1.399692e+04
5.187592e+02,1.401215e+04
5.216519e+02,1.400737e+04
5.245446e+02,1.405473e+04
5.274373e+02,1.410203e+04
5.303300e+02,1.412631e+04
5.332227e+02,1.412495e+04
5.361154e+02,1.414645e+04
5.390081e+02,1.416972e+04
5.419008e+02,1.421837e+04
5.447935e+02,1.426084e+04
5.476862e+02,1.428283e+04
5.505789e+02,1.428556e+04
5.534716e+02,1.427678e+04
5.563643e+02,1.431946e+04
5.592570e+02,1.435454e+04
5.621497e+02,1.439837e+04
5.650424e+02,1.440425e+04
5.679351e+02,1.440188e+04
5.708278e+02,1.441501e+04
5.737205e+02,1.446632e+04
5.766132e+02,1.451403e+04
5.795059e+02,1.453861e+04
5.823986e+02,1.455699e+04
5.852913e+02,1.457575e+04
5.881840e+02,1.461467e+04
5.910767e+02,1.465716e+04
5.939694e+02,1.469887e+04
5.968621e+02,1.471280e+04
5.997548e+02,1.472232e+04
6.026475e+02,1.474915e+04
6.055402e+02,1.479449e+04
6.084329e+02,1.480358e+04
6.113256e+02,1.479925e+04
6.142183e+02,1.479783e+04
6.171110e+02,1.480373e+04
6.200037e+02,1.484330e+04
6.228964e+02,1.487319e+04
6.257891e+02,1.490916e+04
6.286818e+02,1.490022e+04
6.315745e+02,1.490827e+04
6.344672e+02,1.494896e+04
6.373599e+02,1.498388e+04
6.402526e+02,1.499741e+04
6.431453e+02,1.500741e+04
6.460380e+02,1.501156e+04
6.489307e+02,1.505279e+04
6.518234e+02,1.509670e+04
6.547161e+02,1.510578e+04
6.576088e+02,1.509450e+04
6.605015e+02,1.509527e+04
6.633942e+02,1.510781e+04
6.662869e+02,1.514584e+04
6.691796e+02,1.518046e+04
6.720723e+02,1.518342e+04
6.749650e+02,1.516799e+04
6.778577e+02,1.514799e+04
6.807504e+02,1.516651e+04
6.836431e+02,1.520496e+04
6.865358e+02,1.520200e+04
6.894285e+02,1.519395e+04
6.923212e+02,1.520169e+04
6.952139e+02,1.521573e+04
6.981066e+02,1.526848e+04
7.009993e+02,1.527256e+04
7.038920e+02,1.526983e+04
7.067847e+02,1.525350e+04
7.096774e+02,1.525943e+04
7.125701e+02,1.527661e+04
7.154628e+02,1.528766e+04
7.183555e+02,1.529058e+04
7.212482e+02,1.526420e+04
7.241409e+02,1.525324e+04
7.270336e+02,1.523472e+04
7.299263e+02,1.522122e+04
7.328190e+02,1.515042e+04
7.357117e+02,1.511352e+04
7.386044e+02,1.505883e+04
7.414971e+02,1.500742e+04
7.443898e+02,1.494099e+04
7.472825e+02,1.491204e+04
7.501752e+02,1.489250e+04
7.530679e+02,1.477134e+04
7.559606e+02,1.469865e+04
7.588533e+02,1.472877e+04
7.617460e+02,1.466471e+04
7.646387e+02,1.456574e+04
7.675314e+02,1.454697e+04
7.704241e+02,1.449023e+04
7.733168e+02,1.441866e+04
7.762095e+02,1.438957e+04
7.791022e+02,1.434750e+04
7.819949e+02,1.428774e+04
7.848876e+02,1.422114e+04
7.877803e+02,1.419807e+04
7.906730e+02,1.414021e+04
7.935657e+02,1.408860e+04
7.964584e+02,1.407273e+04
7.993511e+02,1.398102e+04
8.022438e+02,1.397044e+04
8.051365e+02,1.393080e+04
8.080292e+02,1.389984e+04
8.109219e+02,1.385989e+04
8.138146e+02,1.377706e+04
8.167073e+02,1.369979e+04
8.196000e+02,1.364449e+04
8.224927e+02,1.364374e+04
8.253854e+02,1.358629e+04
8.282781e+02,1.354767e+04
8.311708e+02,1.349562e+04
8.340635e+02,1.350574e+04
8.369562e+02,1.345952e+04
8.398489e+02,1.341003e+04
8.427416e+02,1.333806e+04
8.456343e+02,1.330258e+04
8.485270e+02,1.330719e+04
8.514197e+02,1.318533e+04
8.543124e+02,1.317266e+04
8.572051e+02,1.315083e+04
8.600978e+02,1.307295e+04
8.629905e+02,1.309393e+04
8.658832e+02,1.299988e+04
8.687759e+02,1.298556e+04
8.716686e+02,1.296997e+04
8.745613e+02,1.288821e+04
8.774540e+02,1.285208e+04
8.803467e+02,1.280979e+04
8.832394e+02,1.278838e+04
8.861321e+02,1.273605e+04
8.890248e+02,1.276769e+04
8.919175e+02,1.267840e+04
8.948102e+02,1.262577e+04
8.977029e+02,1.256456e+04
9.005956e+02,1.253852e+04
9.034883e+02,1.254199e+04
9.063810e+02,1.247083e+04
9.092737e+02,1.242133e+04
9.121664e+02,1.239123e+04
9.150591e+02,1.238437e+04
9.179518e+02,1.234403e+04
9.208445e+02,1.227086e+04
9.237372e+02,1.221858e+04
9.266299e+02,1.218845e+04
9.295226e+02,1.218105e+04
9.324153e+02,1.216299e+04
9.353080e+02,1.212076e+04
9.382007e+02,1.209903e+04
9.410934e+02,1.202266e+04
9.439861e+02,1.199269e+04
9.468788e+02,1.197421e+04
9.497715e+02,1.198050e+04
9.526642e+02,1.190039e+04
9.555569e+02,1.184303e+04
9.584496e+02,1.185259e+04
9.613423e+02,1.183619e+04
9.642350e+02,1.181003e+04
9.671277e+02,1.177685e+04
9.700204e+02,1.173513e+04
9.729131e+02,1.170088e+04
9.758058e+02,1.168098e+04
9.786985e+02,1.169163e+04
9.815912e+02,1.164974e+04
9.844839e+02,1.158833e+04
9.873766e+02,1.157233e+04
9.902693e+02,1.155284e+04
9.931620e+02,1.154127e+04
9.960547e+02,1.153249e+04
9.989474e+02,1.151017e+04
1.001840e+03,1.145672e+04
1.004733e+03,1.140707e+04
1.007626e+03,1.143778e+04
1.010518e+03,1.143619e+04
1.013411e+03,1.139001e+04
1.016304e+03,1.131401e+04
1.019196e+03,1.131841e+04
1.022089e+03,1.129303e+04
1.024982e+03,1.129915e+04
1.027875e+03,1.124659e+04
1.030767e+03,1.123525e+04
1.033660e+03,1.124390e+04
1.036552e+03,1.123220e+04
1.039445e+03,1.123033e+04
1.042338e+03,1.117132e+04
1.045231e+03,1.115162e+04
1.048123e+03,1.113764e+04
1.051016e+03,1.109575e+04
1.053909e+03,1.113014e+04
1.056802e+03,1.109111e+04
1.059694e+03,1.105350e+04
1.062587e+03,1.103638e+04
1.065479e+03,1.106513e+04
1.068372e+03,1.102413e+04
1.071265e+03,1.100808e+04
1.074158e+03,1.096104e+04
1.077050e+03,1.092808e+04
1.079943e+03,1.095178e+04
1.082836e+03,1.093568e+04
1.085729e+03,1.092181e+04
1.088621e+03,1.092905e+04
1.091514e+03,1.091127e+04
1.094406e+03,1.088701e+04
1.097299e+03,1.086815e+04
1.100192e+03,1.085636e+04
1.103085e+03,1.086137e+04
1.105977e+03,1.081055e+04
1.108870e+03,1.074986e+04
1.111763e+03,1.076208e+04
1.114656e+03,1.076682e+04
1.117548e+03,1.079860e+04
1.120441e+03,1.079767e+04
1.123334e+03,1.075664e+04
1.126226e+03,1.072321e+04
1.129119e+03,1.072992e+04
1.132012e+03,1.075294e+04
1.134904e+03,1.072550e+04
1.137797e+03,1.065181e+04
1.140690e+03,1.067531e+04
1.143583e+03,1.066150e+04
1.146475e+03,1.071904e+04
1.149368e+03,1.063298e+04
1.152261e+03,1.063992e+04
1.155153e+03,1.064382e+04
1.158046e+03,1.063085e+04
1.160939e+03,1.062377e+04
1.163831e+03,1.062238e+04
1.166724e+03,1.061706e+04
1.169617e+03,1.062606e+04
1.172510e+03,1.059393e+04
1.175402e+03,1.056454e+04
1.178295e+03,1.059147e+04
1.181188e+03,1.059174e+04
1.184080e+03,1.059087e+04
1.186973e+03,1.055880e+04
1.189866e+03,1.057303e+04
1.192758e+03,1.057888e+04
1.195651e+03,1.058579e+04
1.198544e+03,1.060100e+04
1.201437e+03,1.055640e+04
1.204329e+03,1.050546e+04
1.207222e+03,1.051833e+04
1.210115e+03,1.057622e+04
1.213007e+03,1.056430e+04
1.215900e+03,1.051797e+04
1.218793e+03,1.054177e+04
1.221685e+03,1.057344e+04
1.224578e+03,1.056030e+04
1.227471e+03,1.056169e+04
1.230364e+03,1.055868e+04
1.233256e+03,1.048774e+04
1.236149e+03,1.054632e+04
1.239042e+03,1.050542e+04
1.241934e+03,1.054289e+04
1.244827e+03,1.051015e+04
1.247720e+03,1.049786e+04
1.250612e+03,1.050517e+04
1.253505e+03,1.052126e+04
1.256398e+03,1.052002e+04
1.259291e+03,1.055180e+04
1.262183e+03,1.052283e+04
1.265076e+03,1.050106e+04
1.267969e+03,1.049325e+04
1.270861e+03,1.052336e+04
1.273754e+03,1.055374e+04
1.276647e+03,1.056516e+04
1.279539e+03,1.054215e+04
1.282432e+03,1.051996e+04
1.285325e+03,1.055418e+04
1.288218e+03,1.057267e+04
1.291110e+03,1.055904e+04
1.294003e+03,1.053719e+04
1.296896e+03,1.051188e+04
1.299788e+03,1.050283e+04
1.302681e+03,1.051934e+04
1.305574e+03,1.054566e+04
1.308466e+03,1.052220e+04
1.311359e+03,1.047901e+04
1.314252e+03,1.050397e+04
1.317145e+03,1.051919e+04
1.320037e+03,1.053739e+04
1.322930e+03,1.055227e+04
1.325823e+03,1.057562e+04
1.328715e+03,1.053585e+04
1.331608e+03,1.058731e+04
1.334501e+03,1.060216e+04
1.337393e+03,1.058794e+04
1.340286e+03,1.059898e+04
1.343179e+03,1.053867e+04
1.346072e+03,1.055974e+04
1.348964e+03,1.058252e+04
1.351857e+03,1.060428e+04
1.354750e+03,1.058925e+04
1.357642e+03,1.059380e+04
1.360535e+03,1.058107e+04
1.363428e+03,1.060277e+04
1.366320e+03,1.062483e+04
1.369213e+03,1.062226e+04
1.372106e+03,1.063192e+04
1.374999e+03,1.064576e+04
1.377891e+03,1.060964e+04
1.380784e+03,1.061711e+04
1.383677e+03,1.064393e+04
1.386569e+03,1.061777e+04
1.389462e+03,1.059034e+04
1.392355e+03,1.060266e+04
1.395247e+03,1.058320e+04
1.398140e+03,1.062025e+04
1.401033e+03,1.061853e+04
1.403926e+03,1.059581e+04
1.406818e+03,1.061023e+04
1.409711e+03,1.061364e+04
1.412604e+03,1.062519e+04
1.415496e+03,1.062573e+04
1.418389e+03,1.059278e+04
1.421282e+03,1.060094e+04
1.424174e+03,1.060302e+04
1.427067e+03,1.060157e+04
1.429960e+03,1.058075e+04
1.432853e+03,1.055794e+04
1.435745e+03,1.059511e+04
1.438638e+03,1.054886e+04
1.441531e+03,1.059273e+04
1.444423e+03,1.056118e+04
1.447316e+03,1.056057e+04
1.450209e+03,1.053523e+04
1.453101e+03,1.058798e+04
1.455994e+03,1.056647e+04
1.458887e+03,1.058363e+04
1.461780e+03,1.061688e+04
1.464672e+03,1.057003e+04
1.467565e+03,1.053866e+04
1.470458e+03,1.054772e+04
1.473350e+03,1.056381e+04
1.476243e+03,1.055273e+04
1.479136e+03,1.056482e+04
1.482028e+03,1.053812e+04
1.484921e+03,1.054054e+04
1.487814e+03,1.056102e+04
1.490707e+03,1.053465e+04
1.493599e+03,1.053101e+04
1.496492e+03,1.055793e+04
1.499385e+03,1.049335e+04
1.502277e+03,1.050162e+04
1.505170e+03,1.054046e+04
1.508063e+03,1.055281e+04
1.510955e+03,1.049987e+04
1.513848e+03,1.046507e+04
1.516741e+03,1.049919e+04
1.519634e+03,1.049680e+04
1.522526e+03,1.047631e+04
1.525419e+03,1.050051e+04
1.528312e+03,1.046020e+04
1.531204e+03,1.050383e+04
1.534097e+03,1.042464e+04
1.536990e+03,1.045646e+04
1.539882e+03,1.046777e+04
1.542775e+03,1.044661e+04
1.545668e+03,1.041444e+04
1.548561e+03,1.045786e+04
1.551453e+03,1.045883e+04
1.554346e+03,1.045213e+04
1.557239e+03,1.044265e+04
1.560131e+03,1.043185e+04
1.563024e+03,1.042472e+04
1.565917e+03,1.042996e+04
1.568809e+03,1.044667e+04
1.571702e+03,1.038353e+04
1.574595e+03,1.036999e+04
1.577488e+03,1.034286e+04
1.580380e+03,1.036593e+04
1.583273e+03,1.034079e+04
1.586166e+03,1.035675e+04
1.589058e+03,1.032033e+04
1.591951e+03,1.032046e+04
1.594844e+03,1.027331e+04
1.597736e+03,1.030870e+04
1.600629e+03,1.029022e+04
1.603522e+03,1.026850e+04
1.606415e+03,1.021585e+04
1.609307e+03,1.023365e+04
1.612200e+03,1.018168e+04
1.615093e+03,1.021530e+04
1.617985e+03,1.021653e+04
1.620878e+03,1.017684e+04
1.623771e+03,1.014970e+04
1.626663e+03,1.011638e+04
1.629556e+03,1.011623e+04
1.632449e+03,1.009005e+04
1.635342e+03,1.008903e+04
1.638234e+03,1.006286e+04
1.641127e+03,1.003365e+04
1.644020e+03,1.001635e+04
1.646912e+03,1.001942e+04
1.649805e+03,9.970402e+03
1.652698e+03,9.953099e+03
1.655590e+03,9.954069e+03
1.658483e+03,9.980826e+03
1.661376e+03,9.923442e+03
1.664269e+03,9.889951e+03
1.667161e+03,9.845213e+03
1.670054e+03,9.857221e+03
1.672947e+03,9.849151e+03
1.675839e+03,9.842176e+03
1.678732e+03,9.843868e+03
1.681625e+03,9.768046e+03
1.684517e+03,9.741107e+03
1.687410e+03,9.741470e+03
1.690303e+03,9.725564e+03
1.693196e+03,9.701766e+03
1.696088e+03,9.701203e+03
1.698981e+03,9.663559e+03
1.701874e+03,9.627510e+03
1.704766e+03,9.613860e+03
1.707659e+03,9.628228e+03
1.710552e+03,9.577018e+03
1.713444e+03,9.561806e+03
1.716337e+03,9.532103e+03
1.719230e+03,9.524493e+03
1.722123e+03,9.505904e+03
1.725015e+03,9.454027e+03
1.727908e+03,9.432707e+03
1.730801e+03,9.469360e+03
1.733693e+03,9.419064e+03
1.736586e+03,9.453364e+03
1.739479e+03,9.404374e+03
1.742371e+03,9.373556e+03
1.745264e+03,9.326126e+03
1.748157e+03,9.314355e+03
1.751050e+03,9.302906e+03
1.753942e+03,9.299116e+03
1.756835e+03,9.279920e+03
1.759728e+03,9.251960e+03
1.762620e+03,9.178019e+03
1.765513e+03,9.166573e+03
1.768406e+03,9.126322e+03
1.771298e+03,9.122000e+03
1.774191e+03,9.045104e+03
1.777084e+03,9.034554e+03
1.779977e+03,9.035963e+03
1.782869e+03,9.018449e+03
1.785762e+03,8.998941e+03
1.788655e+03,8.962192e+03
1.791547e+03,8.916550e+03
1.794440e+03,8.867463e+03
1.797333e+03,8.866542e+03
1.800225e+03,8.862842e+03
1.803118e+03,8.828699e+03
1.806011e+03,8.769757e+03
1.808904e+03,8.788497e+03
1.811796e+03,8.761062e+03
1.814689e+03,8.711104e+03
1.817582e+03,8.703459e+03
1.820474e+03,8.635470e+03
1.823367e+03,8.621049e+03
1.826260e+03,8.624469e+03
1.829152e+03,8.594911e+03
1.832045e+03,8.572536e+03
1.834938e+03,8.519452e+03
1.837831e+03,8.490522e+03
1.840723e+03,8.474661e+03
1.843616e+03,8.468135e+03
1.846509e+03,8.397162e+03
1.849401e+03,8.389568e+03
1.852294e+03,8.318659e+03
1.855187e+03,8.328069e+03
1.858079e+03,8.308396e+03
1.860972e+03,8.276153e+03
1.863865e+03,8.268791e+03
1.866758e+03,8.220501e+03
1.869650e+03,8.141539e+03
1.872543e+03,8.147156e+03
1.875436e+03,8.114927e+03
1.878328e+03,8.106090e+03
1.881221e+03,8.064478e+03
1.884114e+03,8.048268e+03
1.887006e+03,7.986486e+03
1.889899e+03,7.990425e+03
1.892792e+03,7.953413e+03
1.895685e+03,7.948924e+03
1.898577e+03,7.897800e+03
1.901470e+03,7.827361e+03
1.904363e+03,7.866052e+03
1.907255e+03,7.813221e+03
1.910148e+03,7.804121e+03
1.913041e+03,7.735810e+03
1.915933e+03,7.717418e+03
1.918826e+03,7.622945e+03
1.921719e+03,7.690898e+03
1.924612e+03,7.696960e+03
1.927504e+03,7.643054e+03
1.930397e+03,7.595986e+03
1.933290e+03,7.574535e+03
1.936182e+03,7.549908e+03
1.939075e+03,7.496652e+03
1.941968e+03,7.485317e+03
1.944860e+03,7.449728e+03
1.947753e+03,7.420275e+03
1.950646e+03,7.396745e+03
1.953539e+03,7.423520e+03
1.956431e+03,7.352850e+03
1.959324e+03,7.319868e+03
1.962217e+03,7.285119e+03
1.965109e+03,7.221484e+03
1.968002e+03,7.252832e+03
1.970895e+03,7.200825e+03
1.973787e+03,7.166590e+03
1.976680e+03,7.126858e+03
1.979573e+03,7.136938e+03
1.982466e+03,7.072704e+03
1.985358e+03,7.072662e+03
1.988251e+03,7.025621e+03
1.991144e+03,6.995581e+03
1.994036e+03,6.936785e+03
1.996929e+03,6.943925e+03
1.999822e+03,6.916003e+03
2.002714e+03,6.877060e+03
2.005607e+03,6.826374e+03
2.008500e+03,6.826071e+03
2.011393e+03,6.779422e+03
2.014285e+03,6.763495e+03
2.017178e+03,6.756224e+03
2.020071e+03,6.670393e+03
2.022963e+03,6.636279e+03
2.025856e+03,6.597113e+03
2.028749e+03,6.598636e+03
2.031641e+03,6.543740e+03
2.034534e+03,6.568308e+03
2.037427e+03,6.510476e+03
2.040320e+03,6.467748e+03
2.043212e+03,6.438337e+03
2.046105e+03,6.405435e+03
2.048998e+03,6.375229e+03
2.051890e+03,6.342617e+03
2.054783e+03,6.332673e+03
2.057676e+03,6.296619e+03
2.060568e+03,6.296963e+03
2.063461e+03,6.268729e+03
2.066354e+03,6.244161e+03
2.069247e+03,6.197183e+03
2.072139e+03,6.177003e+03
2.075032e+03,6.114348e+03
2.077925e+03,6.130996e+03
2.080817e+03,6.136646e+03
2.083710e+03,6.052954e+03
2.086603e+03,6.051823e+03
2.089496e+03,6.014367e+03
2.092388e+03,6.001777e+03
2.095281e+03,5.977385e+03
2.098174e+03,5.970558e+03
2.101066e+03,5.907072e+03
2.103959e+03,5.912758e+03
2.106852e+03,5.906080e+03
2.109744e+03,5.844591e+03
2.112637e+03,5.849644e+03
2.115530e+03,5.749336e+03
2.118422e+03,5.768382e+03
2.121315e+03,5.770853e+03
2.124208e+03,5.748391e+03
2.127101e+03,5.726675e+03
2.129993e+03,5.628914e+03
2.132886e+03,5.668225e+03
2.135779e+03,5.596102e+03
2.138671e+03,5.620034e+03
2.141564e+03,5.587197e+03
2.144457e+03,5.534189e+03
2.147350e+03,5.511461e+03
2.150242e+03,5.481713e+03
2.153135e+03,5.475306e+03
2.156028e+03,5.449111e+03
2.158920e+03,5.412057e+03
2.161813e+03,5.417575e+03
2.164706e+03,5.356836e+03
2.167598e+03,5.350976e+03
2.170491e+03,5.328306e+03
2.173384e+03,5.329808e+03
2.176277e+03,5.254406e+03
2.179169e+03,5.264783e+03
2.182062e+03,5.221691e+03
2.184955e+03,5.245045e+03
2.187847e+03,5.211869e+03
2.190740e+03,5.175233e+03
2.193633e+03,5.134403e+03
2.196525e+03,5.126427e+03
2.199418e+03,5.110266e+03
2.202311e+03,5.072559e+03
2.205204e+03,5.084401e+03
2.208096e+03,5.027669e+03
2.210989e+03,4.993196e+03
2.213882e+03,4.963842e+03
2.216774e+03,4.973019e+03
2.219667e+03,4.958024e+03
2.222560e+03,4.927654e+03
2.225452e+03,4.901622e+03
2.228345e+03,4.858405e+03
2.231238e+03,4.866003e+03
2.234131e+03,4.855232e+03
2.237023e+03,4.826094e+03
2.239916e+03,4.792653e+03
2.242809e+03,4.769471e+03
2.245701e+03,4.750612e+03
2.248594e+03,4.727870e+03
2.251487e+03,4.713286e+03
2.254379e+03,4.680711e+03
2.257272e+03,4.654021e+03
2.260165e+03,4.661520e+03
2.263058e+03,4.638636e+03
2.265950e+03,4.602993e+03
2.268843e+03,4.573631e+03
2.271736e+03,4.525796e+03
2.274628e+03,4.537817e+03
2.277521e+03,4.561140e+03
2.280414e+03,4.532427e+03
2.283306e+03,4.509696e+03
2.286199e+03,4.490282e+03
2.289092e+03,4.482700e+03
2.291985e+03,4.451312e+03
2.294877e+03,4.417489e+03
2.297770e+03,4.458905e+03
2.300663e+03,4.392553e+03
2.303555e+03,4.378386e+03
2.306448e+03,4.356756e+03
2.309341e+03,4.356862e+03
2.312233e+03,4.319741e+03
2.315126e+03,4.295175e+03
2.318019e+03,4.290677e+03
2.320912e+03,4.303518e+03
2.323804e+03,4.268792e+03
2.326697e+03,4.287428e+03
2.329590e+03,4.269848e+03
2.332482e+03,4.218279e+03
2.335375e+03,4.207491e+03
2.338268e+03,4.159812e+03
2.341160e+03,4.193836e+03
2.344053e+03,4.146271e+03
2.346946e+03,4.159680e+03
2.349839e+03,4.134042e+03
2.352731e+03,4.107235e+03
2.355624e+03,4.098149e+03
2.358517e+03,4.075608e+03
2.361409e+03,4.099126e+03
2.364302e+03,4.053324e+03
2.367195e+03,4.009873e+03
2.370087e+03,4.020946e+03
2.372980e+03,4.023270e+03
2.375873e+03,4.015157e+03
2.378766e+03,3.986310e+03
2.381658e+03,3.947074e+03
2.384551e+03,3.941045e+03
2.387444e+03,3.930797e+03
2.390336e+03,3.933467e+03
2.393229e+03,3.877318e+03
2.396122e+03,3.869925e+03
2.399014e+03,3.858029e+03
2.401907e+03,3.871990e+03
2.404800e+03,3.836900e+03
2.407693e+03,3.832794e+03
2.410585e+03,3.810184e+03
2.413478e+03,3.780547e+03
2.416371e+03,3.786264e+03
2.419263e+03,3.791747e+03
2.422156e+03,3.779993e+03
2.425049e+03,3.769625e+03
2.427941e+03,3.730156e+03
2.430834e+03,3.714697e+03
2.433727e+03,3.750206e+03
2.436620e+03,3.725289e+03
2.439512e+03,3.715804e+03
2.442405e+03,3.684115e+03
2.445298e+03,3.683629e+03
2.448190e+03,3.663126e+03
2.451083e+03,3.654495e+03
2.453976e+03,3.660849e+03
2.456868e+03,3.634789e+03
2.459761e+03,3.613443e+03
2.462654e+03,3.623066e+03
2.465547e+03,3.623031e+03
2.468439e+03,3.606026e+03
2.471332e+03,3.556894e+03
2.474225e+03,3.579290e+03
2.477117e+03,3.563851e+03
2.480010e+03,3.570275e+03
2.482903e+03,3.553295e+03
2.485795e+03,3.554945e+03
2.488688e+03,3.521875e+03
2.491581e+03,3.532862e+03
2.494474e+03,3.516357e+03
2.497366e+03,3.500819e+03
2.500259e+03,3.488135e+03
2.503152e+03,3.491987e+03
2.506044e+03,3.450012e+03
2.508937e+03,3.464706e+03
2.511830e+03,3.451458e+03
2.514722e+03,3.464795e+03
2.517615e+03,3.453266e+03
2.520508e+03,3.406303e+03
2.523401e+03,3.410470e+03
2.526293e+03,3.401749e+03
2.529186e+03,3.435790e+03
2.532079e+03,3.405054e+03
2.534971e+03,3.365472e+03
2.537864e+03,3.378900e+03
2.540757e+03,3.391616e+03
2.543649e+03,3.389227e+03
2.546542e+03,3.385339e+03
2.549435e+03,3.359962e+03
2.552328e+03,3.344882e+03
2.555220e+03,3.319478e+03
2.558113e+03,3.341206e+03
2.561006e+03,3.294378e+03
2.563898e+03,3.346929e+03
2.566791e+03,3.291884e+03
2.569684e+03,3.261844e+03
2.572576e+03,3.277390e+03
2.575469e+03,3.297871e+03
2.578362e+03,3.291688e+03
2.581255e+03,3.262344e+03
2.584147e+03,3.243284e+03
2.587040e+03,3.239058e+03
2.589933e+03,3.237575e+03
2.592825e+03,3.259900e+03
2.595718e+03,3.220162e+03
2.598611e+03,3.253218e+03
2.601503e+03,3.216905e+03
2.604396e+03,3.175049e+03
2.607289e+03,3.191168e+03
2.610182e+03,3.198615e+03
2.613074e+03,3.202753e+03
2.615967e+03,3.172490e+03
2.618860e+03,3.170816e+03
2.621752e+03,3.166057e+03
2.624645e+03,3.147506e+03
2.627538e+03,3.178320e+03
2.630430e+03,3.119900e+03
2.633323e+03,3.128683e+03
2.636216e+03,3.122786e+03
2.639109e+03,3.144795e+03
2.642001e+03,3.106839e+03
2.644894e+03,3.092884e+03
2.647787e+03,3.092685e+03
2.650679e+03,3.114945e+03
2.653572e+03,3.106024e+03
2.656465e+03,3.093948e+03
2.659357e+03,3.109754e+03
2.662250e+03,3.084257e+03
2.665143e+03,3.074533e+03
2.668036e+03,3.072952e+03
2.670928e+03,3.080891e+03
2.673821e+03,3.075957e+03
2.676714e+03,3.077885e+03
2.679606e+03,3.026516e+03
2.682499e+03,3.062622e+03
2.685392e+03,3.059618e+03
2.688284e+03,3.037477e+03
2.691177e+03,3.060185e+03
2.694070e+03,3.034423e+03
2.696963e+03,3.035128e+03
2.699855e+03,3.045650e+03
2.702748e+03,3.004332e+03
2.705641e+03,3.024276e+03
2.708533e+03,3.057246e+03
2.711426e+03,3.012206e+03
2.714319e+03,3.000476e+03
2.717211e+03,3.013387e+03
2.720104e+03,2.991073e+03
2.722997e+03,3.015719e+03
2.725890e+03,2.966438e+03
2.728782e+03,2.986379e+03
2.731675e+03,2.988010e+03
2.734568e+03,2.950622e+03
2.737460e+03,2.962899e+03
2.740353e+03,2.947811e+03
2.743246e+03,2.965379e+03
2.746138e+03,2.963446e+03
2.749031e+03,2.984791e+03
2.751924e+03,2.922150e+03
2.754817e+03,2.910295e+03
2.757709e+03,2.933516e+03
2.760602e+03,2.906763e+03
2.763495e+03,2.942974e+03
2.766387e+03,2.874277e+03
2.769280e+03,2.925546e+03
2.772173e+03,2.914586e+03
2.775065e+03,2.905142e+03
2.777958e+03,2.878000e+03
2.780851e+03,2.903565e+03
2.783744e+03,2.870224e+03
2.786636e+03,2.882605e+03
2.789529e+03,2.877085e+03
2.792422e+03,2.881399e+03
2.795314e+03,2.843761e+03
2.798207e+03,2.839573e+03
2.801100e+03,2.847941e+03
2.803992e+03,2.897577e+03
2.806885e+03,2.842591e+03
2.809778e+03,2.869169e+03
2.812671e+03,2.813165e+03
2.815563e+03,2.817177e+03
2.818456e+03,2.818766e+03
2.821349e+03,2.817012e+03
2.824241e+03,2.815307e+03
2.827134e+03,2.821824e+03
2.830027e+03,2.790951e+03
2.832919e+03,2.804700e+03
2.835812e+03,2.827276e+03
2.838705e+03,2.810542e+03
2.841598e+03,2.799294e+03
2.844490e+03,2.809408e+03
2.847383e+03,2.790599e+03
2.850276e+03,2.797503e+03
2.853168e+03,2.817247e+03
2.856061e+03,2.793613e+03
2.858954e+03,2.781779e+03
2.861846e+03,2.818938e+03
2.864739e+03,2.773917e+03
2.867632e+03,2.817413e+03
2.870525e+03,2.777930e+03
2.873417e+03,2.823118e+03
2.876310e+03,2.828887e+03
2.879203e+03,2.744995e+03
2.882095e+03,2.801668e+03
2.884988e+03,2.791195e+03
2.887881e+03,2.812706e+03
2.890773e+03,2.751559e+03
2.893666e+03,2.765212e+03
2.896559e+03,2.792902e+03
2.899452e+03,2.757751e+03
2.902344e+03,2.761082e+03
2.905237e+03,2.733703e+03
2.908130e+03,2.723163e+03
2.911022e+03,2.745328e+03
2.913915e+03,2.752062e+03
2.916808e+03,2.746891e+03
2.919700e+03,2.740356e+03
2.922593e+03,2.697737e+03
2.925486e+03,2.679547e+03
2.928379e+03,2.718709e+03
2.931271e+03,2.733765e+03
2.934164e+03,2.691939e+03
2.937057e+03,2.693646e+03
2.939949e+03,2.703316e+03
2.942842e+03,2.718648e+03
2.945735e+03,2.664333e+03
2.948627e+03,2.683247e+03
2.951520e+03,2.680363e+03
2.954413e+03,2.659060e+03
2.957306e+03,2.725420e+03
2.960198e+03,2.701549e+03
2.963091e+03,2.714037e+03
2.965984e+03,2.647873e+03
2.968876e+03,2.658817e+03
2.971769e+03,2.652437e+03
2.974662e+03,2.619017e+03
2.977554e+03,2.635587e+03
2.980447e+03,2.632570e+03
2.983340e+03,2.641885e+03
2.986233e+03,2.595919e+03
2.989125e+03,2.597009e+03
2.992018e+03,2.643490e+03
2.994911e+03,2.585303e+03
2.997803e+03,2.579849e+03
3.000696e+03,2.542897e+03
3.003589e+03,2.602281e+03
3.006481e+03,2.580527e+03
3.009374e+03,2.611745e+03
3.012267e+03,2.614031e+03
3.015160e+03,2.580758e+03
3.018052e+03,2.559827e+03
3.020945e+03,2.588263e+03
3.023838e+03,2.567044e+03
3.026730e+03,2.559511e+03
3.029623e+03,2.573934e+03
3.032516e+03,2.609520e+03
3.035408e+03,2.523773e+03
3.038301e+03,2.561143e+03
3.041194e+03,2.532084e+03
3.044087e+03,2.512896e+03
3.046979e+03,2.510329e+03
3.049872e+03,2.578021e+03
3.052765e+03,2.550763e+03
3.055657e+03,2.515733e+03
3.058550e+03,2.590442e+03
3.061443e+03,2.540135e+03
3.064335e+03,2.533578e+03
3.067228e+03,2.557499e+03
3.070121e+03,2.517571e+03
3.073014e+03,2.555483e+03
3.075906e+03,2.537365e+03
3.078799e+03,2.478719e+03
3.081692e+03,2.515391e+03
3.084584e+03,2.507208e+03
3.087477e+03,2.542908e+03
3.090370e+03,2.515851e+03
3.093262e+03,2.487478e+03
3.096155e+03,2.484990e+03
3.099048e+03,2.494407e+03
3.101941e+03,2.552160e+03
3.104833e+03,2.508388e+03
3.107726e+03,2.483643e+03
3.110619e+03,2.521103e+03
3.113511e+03,2.462429e+03
3.116404e+03,2.544441e+03
3.119297e+03,2.495056e+03
3.122189e+03,2.511491e+03
3.125082e+03,2.514950e+03
3.127975e+03,2.466898e+03
3.130868e+03,2.540138e+03
3.133760e+03,2.444022e+03
3.136653e+03,2.506655e+03
3.139546e+03,2.490732e+03
3.142438e+03,2.449065e+03
3.145331e+03,2.481698e+03
3.148224e+03,2.499802e+03
3.151116e+03,2.494012e+03
3.154009e+03,2.513949e+03
3.156902e+03,2.495499e+03
3.159795e+03,2.417505e+03
3.162687e+03,2.468157e+03
3.165580e+03,2.512450e+03
3.168473e+03,2.515533e+03
3.171365e+03,2.474693e+03
3.174258e+03,2.471214e+03
3.177151e+03,2.506364e+03
3.180043e+03,2.512914e+03
3.182936e+03,2.498942e+03
3.185829e+03,2.538628e+03
3.188722e+03,2.442897e+03
3.191614e+03,2.456376e+03
3.194507e+03,2.459720e+03
3.197400e+03,2.481809e+03
3.200292e+03,2.514688e+03
3.203185e+03,0.000000e+00
3.206078e+03,0.000000e+00
3.208970e+03,0.000000e+00
3.211863e+03,0.000000e+00
3.214756e+03,0.000000e+00
3.217649e+03,0.000000e+00
3.220541e+03,0.000000e+00
3.223434e+03,0.000000e+00
3.226327e+03,0.000000e+00
3.229219e+03,0.000000e+00
3.232112e+03,0.000000e+00
3.235005e+03,0.000000e+00
3.237897e+03,0.000000e+00
3.240790e+03,0.000000e+00
3.243683e+03,0.000000e+00
3.246576e+03,0.000000e+00
3.249468e+03,0.000000e+00
3.252361e+03,0.000000e+00
3.255254e+03,0.000000e+00
3.258146e+03,0.000000e+00
3.261039e+03,0.000000e+00
3.263932e+03,0.000000e+00
3.266824e+03,0.000000e+00
3.269717e+03,0.000000e+00
3.272610e+03,0.000000e+00
3.275503e+03,0.000000e+00
3.278395e+03,0.000000e+00
3.281288e+03,0.000000e+00
3.284181e+03,0.000000e+00
3.287073e+03,0.000000e+00
3.289966e+03,0.000000e+00
3.292859e+03,0.000000e+00
3.295751e+03,0.000000e+00
3.298644e+03,0.000000e+00
3.301537e+03,0.000000e+00
3.304430e+03,0.000000e+00
3.307322e+03,0.000000e+00
3.310215e+03,0.000000e+00
3.313108e+03,0.000000e+00
3.316000e+03,0.000000e+00
3.318893e+03,0.000000e+00
3.321786e+03,0.000000e+00
3.324678e+03,0.000000e+00
3.327571e+03,0.000000e+00
3.330464e+03,0.000000e+00
3.333357e+03,0.000000e+00
3.336249e+03,0.000000e+00
3.339142e+03,0.000000e+00
3.342035e+03,0.000000e+00
3.344927e+03,0.000000e+00
3.347820e+03,0.000000e+00
3.350713e+03,0.000000e+00
3.353605e+03,0.000000e+00
3.356498e+03,0.000000e+00
3.359391e+03,0.000000e+00
3.362284e+03,0.000000e+00
3.365176e+03,0.000000e+00
3.368069e+03,0.000000e+00
3.370962e+03,0.000000e+00
3.373854e+03,0.000000e+00
3.376747e+03,0.000000e+00
3.379640e+03,0.000000e+00
3.382532e+03,0.000000e+00
3.385425e+03,0.000000e+00
3.388318e+03,0.000000e+00
3.391211e+03,0.000000e+00
3.394103e+03,0.000000e+00
3.396996e+03,0.000000e+00
3.399889e+03,0.000000e+00
3.402781e+03,0.000000e+00
3.405674e+03,0.000000e+00
3.408567e+03,0.000000e+00
3.411459e+03,0.000000e+00
3.414352e+03,0.000000e+00
3.417245e+03,0.000000e+00
3.420138e+03,0.000000e+00
3.423030e+03,0.000000e+00
3.425923e+03,0.000000e+00
3.428816e+03,0.000000e+00
3.431708e+03,0.000000e+00
3.434601e+03,0.000000e+00
3.437494e+03,0.000000e+00
3.440386e+03,0.000000e+00
3.443279e+03,0.000000e+00
3.446172e+03,0.000000e+00
3.449065e+03,0.000000e+00
3.451957e+03,0.000000e+00
3.454850e+03,0.000000e+00
3.457743e+03,0.000000e+00
3.460635e+03,0.000000e+00
3.463528e+03,0.000000e+00
3.466421e+03,0.000000e+00
3.469313e+03,0.000000e+00
3.472206e+03,0.000000e+00
3.475099e+03,0.000000e+00
3.477992e+03,0.000000e+00
3.480884e+03,0.000000e+00
3.483777e+03,0.000000e+00
3.486670e+03,0.000000e+00
3.489563e+03,0.000000e+00
3.492455e+03,0.000000e+00
3.495348e+03,0.000000e+00
3.498240e+03,0.000000e+00
3.500169e+03,0.000000e+00