File: RAMAN_data/13112023_r1/black fibre7.CSV
9.931763e+01,0.000000e+00
1.022103e+02,0.000000e+00
1.051030e+02,0.000000e+00
1.079957e+02,0.000000e+00
1.108884e+02,0.000000e+00
1.137811e+02,0.000000e+00
1.166738e+02,0.000000e+00
1.195665e+02,0.000000e+00
1.224592e+02,0.000000e+00
1.253519e+02,0.000000e+00
1.282446e+02,0.000000e+00
1.311373e+02,0.000000e+00
1.340300e+02,0.000000e+00
1.369227e+02,0.000000e+00
1.398154e+02,0.000000e+00
1.427081e+02,0.000000e+00
1.456008e+02,0.000000e+00
1.484935e+02,0.000000e+00
1.513862e+02,0.000000e+00
1.542789e+02,0.000000e+00
1.571716e+02,0.000000e+00
1.600643e+02,0.000000e+00
1.629570e+02,0.000000e+00
1.658497e+02,0.000000e+00
1.687424e+02,0.000000e+00
1.716351e+02,0.000000e+00
1.745278e+02,0.000000e+00
1.774205e+02,0.000000e+00
1.803132e+02,0.000000e+00
1.832059e+02,0.000000e+00
1.860986e+02,0.000000e+00
1.889913e+02,0.000000e+00
1.918840e+02,0.000000e+00
1.947767e+02,0.000000e+00
1.976694e+02,0.000000e+00
2.005621e+02,6.261836e+03
2.034548e+02,6.272838e+03
2.063475e+02,6.279385e+03
2.092402e+02,6.278483e+03
2.121329e+02,6.255243e+03
2.150256e+02,6.320380e+03
2.179183e+02,6.282527e+03
2.208110e+02,6.299893e+03
2.237037e+02,6.307534e+03
2.265964e+02,6.302061e+03
2.294892e+02,6.312167e+03
2.323819e+02,6.314977e+03
2.352746e+02,6.344831e+03
2.381673e+02,6.353616e+03
2.410600e+02,6.338728e+03
2.439527e+02,6.342315e+03
2.468454e+02,6.348593e+03
2.497381e+02,6.353256e+03
2.526308e+02,6.377478e+03
2.555235e+02,6.370631e+03
2.584161e+02,6.352444e+03
2.613088e+02,6.366967e+03
2.642015e+02,6.363693e+03
2.670942e+02,6.389693e+03
2.699869e+02,6.384308e+03
2.728796e+02,6.371021e+03
2.757723e+02,6.361390e+03
2.786650e+02,6.423547e+03
2.815577e+02,6.390859e+03
2.844504e+02,6.400960e+03
2.873431e+02,6.408767e+03
2.902358e+02,6.396612e+03
2.931285e+02,6.414546e+03
2.960212e+02,6.387042e+03
2.989139e+02,6.409535e+03
3.018066e+02,6.444308e+03
3.046993e+02,6.410481e+03
3.075920e+02,6.419688e+03
3.104847e+02,6.438056e+03
3.133774e+02,6.407130e+03
3.162701e+02,6.428880e+03
3.191628e+02,6.421353e+03
3.220555e+02,6.416099e+03
3.249482e+02,6.424475e+03
3.278409e+02,6.442114e+03
3.307336e+02,6.434368e+03
3.336263e+02,6.426398e+03
3.365190e+02,6.389894e+03
3.394117e+02,6.417606e+03
3.423044e+02,6.433354e+03
3.451971e+02,6.423934e+03
3.480898e+02,6.440770e+03
3.509825e+02,6.408358e+03
3.538752e+02,6.417046e+03
3.567680e+02,6.432817e+03
3.596607e+02,6.457077e+03
3.625534e+02,6.437152e+03
3.654461e+02,6.406995e+03
3.683388e+02,6.416893e+03
3.712315e+02,6.455779e+03
3.741242e+02,6.424508e+03
3.770169e+02,6.451382e+03
3.799096e+02,6.430818e+03
3.828023e+02,6.411709e+03
3.856950e+02,6.407898e+03
3.885877e+02,6.415363e+03
3.914804e+02,6.434647e+03
3.943731e+02,6.411243e+03
3.972658e+02,6.393272e+03
4.001585e+02,6.427513e+03
4.030512e+02,6.417783e+03
4.059439e+02,6.390041e+03
4.088366e+02,6.394736e+03
4.117293e+02,6.387875e+03
4.146220e+02,6.370578e+03
4.175147e+02,6.390873e+03
4.204074e+02,6.404161e+03
4.233001e+02,6.395016e+03
4.261928e+02,6.356545e+03
4.290855e+02,6.387890e+03
4.319782e+02,6.398203e+03
4.348709e+02,6.380368e+03
4.377636e+02,6.379462e+03
4.406563e+02,6.381269e+03
4.435490e+02,6.363057e+03
4.464417e+02,6.360741e+03
4.493344e+02,6.391043e+03
4.522271e+02,6.370331e+03
4.551198e+02,6.387188e+03
4.580125e+02,6.347452e+03
4.609052e+02,6.347692e+03
4.637979e+02,6.357093e+03
4.666906e+02,6.347028e+03
4.695833e+02,6.347618e+03
4.724760e+02,6.331022e+03
4.753687e+02,6.315119e+03
4.782614e+02,6.322846e+03
4.811541e+02,6.321675e+03
4.840468e+02,6.336910e+03
4.869395e+02,6.332873e+03
4.898322e+02,6.340581e+03
4.927249e+02,6.313174e+03
4.956176e+02,6.316052e+03
4.985103e+02,6.348279e+03
5.014030e+02,6.302619e+03
5.042957e+02,6.301700e+03
5.071884e+02,6.274791e+03
5.100811e+02,6.280498e+03
5.129738e+02,6.277589e+03
5.158665e+02,6.273854e+03
5.187592e+02,6.280634e+03
5.216519e+02,6.269006e+03
5.245446e+02,6.264194e+03
5.274373e+02,6.258248e+03
5.303300e+02,6.234048e+03
5.332227e+02,6.244131e+03
5.361154e+02,6.227256e+03
5.390081e+02,6.214384e+03
5.419008e+02,6.243965e+03
5.447935e+02,6.211748e+03
5.476862e+02,6.205206e+03
5.505789e+02,6.194834e+03
5.534716e+02,6.175266e+03
5.563643e+02,6.175977e+03
5.592570e+02,6.200966e+03
5.621497e+02,6.192032e+03
5.650424e+02,6.194152e+03
5.679351e+02,6.181955e+03
5.708278e+02,6.168089e+03
5.737205e+02,6.165503e+03
5.766132e+02,6.163993e+03
5.795059e+02,6.180089e+03
5.823986e+02,6.169825e+03
5.852913e+02,6.139521e+03
5.881840e+02,6.130311e+03
5.910767e+02,6.136153e+03
5.939694e+02,6.155028e+03
5.968621e+02,6.120518e+03
5.997548e+02,6.103993e+03
6.026475e+02,6.112790e+03
6.055402e+02,6.113133e+03
6.084329e+02,6.101795e+03
6.113256e+02,6.091674e+03
6.142183e+02,6.087299e+03
6.171110e+02,6.073008e+03
6.200037e+02,6.073523e+03
6.228964e+02,6.064400e+03
6.257891e+02,6.070699e+03
6.286818e+02,6.066888e+03
6.315745e+02,6.050157e+03
6.344672e+02,6.045208e+03
6.373599e+02,6.037733e+03
6.402526e+02,6.017938e+03
6.431453e+02,6.029782e+03
6.460380e+02,6.011890e+03
6.489307e+02,5.997680e+03
6.518234e+02,6.006675e+03
6.547161e+02,6.002977e+03
6.576088e+02,6.002556e+03
6.605015e+02,5.971671e+03
6.633942e+02,5.977474e+03
6.662869e+02,5.997055e+03
6.691796e+02,5.986677e+03
6.720723e+02,5.960791e+03
6.749650e+02,5.958708e+03
6.778577e+02,5.939497e+03
6.807504e+02,5.930070e+03
6.836431e+02,5.925375e+03
6.865358e+02,5.917092e+03
6.894285e+02,5.894745e+03
6.923212e+02,5.903242e+03
6.952139e+02,5.874772e+03
6.981066e+02,5.881696e+03
7.009993e+02,5.890975e+03
7.038920e+02,5.880464e+03
7.067847e+02,5.880604e+03
7.096774e+02,5.853142e+03
7.125701e+02,5.879901e+03
7.154628e+02,5.839962e+03
7.183555e+02,5.861271e+03
7.212482e+02,5.835888e+03
7.241409e+02,5.806611e+03
7.270336e+02,5.813102e+03
7.299263e+02,5.833488e+03
7.328190e+02,5.808541e+03
7.357117e+02,5.798663e+03
7.386044e+02,5.784108e+03
7.414971e+02,5.791334e+03
7.443898e+02,5.790875e+03
7.472825e+02,5.807373e+03
7.501752e+02,5.764325e+03
7.530679e+02,5.758628e+03
7.559606e+02,5.753232e+03
7.588533e+02,5.760419e+03
7.617460e+02,5.769554e+03
7.646387e+02,5.717937e+03
7.675314e+02,5.715260e+03
7.704241e+02,5.705469e+03
7.733168e+02,5.693586e+03
7.762095e+02,5.694321e+03
7.791022e+02,5.701765e+03
7.819949e+02,5.689649e+03
7.848876e+02,5.663932e+03
7.877803e+02,5.660372e+03
7.906730e+02,5.683214e+03
7.935657e+02,5.649067e+03
7.964584e+02,5.631305e+03
7.993511e+02,5.612195e+03
8.022438e+02,5.622050e+03
8.051365e+02,5.631538e+03
8.080292e+02,5.604766e+03
8.109219e+02,5.612267e+03
8.138146e+02,5.588915e+03
8.167073e+02,5.578958e+03
8.196000e+02,5.572909e+03
8.224927e+02,5.572497e+03
8.253854e+02,5.551984e+03
8.282781e+02,5.555782e+03
8.311708e+02,5.558096e+03
8.340635e+02,5.558086e+03
8.369562e+02,5.545946e+03
8.398489e+02,5.548000e+03
8.427416e+02,5.548331e+03
8.456343e+02,5.527665e+03
8.485270e+02,5.513647e+03
8.514197e+02,5.496551e+03
8.543124e+02,5.501747e+03
8.572051e+02,5.488213e+03
8.600978e+02,5.467498e+03
8.629905e+02,5.468524e+03
8.658832e+02,5.491315e+03
8.687759e+02,5.460617e+03
8.716686e+02,5.451188e+03
8.745613e+02,5.430774e+03
8.774540e+02,5.427117e+03
8.803467e+02,5.424022e+03
8.832394e+02,5.433806e+03
8.861321e+02,5.432209e+03
8.890248e+02,5.416369e+03
8.919175e+02,5.388659e+03
8.948102e+02,5.394677e+03
8.977029e+02,5.376970e+03
9.005956e+02,5.370205e+03
9.034883e+02,5.363834e+03
9.063810e+02,5.376197e+03
9.092737e+02,5.332922e+03
9.121664e+02,5.337775e+03
9.150591e+02,5.341773e+03
9.179518e+02,5.321659e+03
9.208445e+02,5.297136e+03
9.237372e+02,5.296037e+03
9.266299e+02,5.299582e+03
9.295226e+02,5.291787e+03
9.324153e+02,5.305290e+03
9.353080e+02,5.289202e+03
9.382007e+02,5.278662e+03
9.410934e+02,5.279767e+03
9.439861e+02,5.251684e+03
9.468788e+02,5.260897e+03
9.497715e+02,5.244608e+03
9.526642e+02,5.236849e+03
9.555569e+02,5.190220e+03
9.584496e+02,5.202183e+03
9.613423e+02,5.235680e+03
9.642350e+02,5.190581e+03
9.671277e+02,5.174622e+03
9.700204e+02,5.181542e+03
9.729131e+02,5.164303e+03
9.758058e+02,5.179713e+03
9.786985e+02,5.176323e+03
9.815912e+02,5.155204e+03
9.844839e+02,5.137733e+03
9.873766e+02,5.132902e+03
9.902693e+02,5.120366e+03
9.931620e+02,5.145696e+03
9.960547e+02,5.139267e+03
9.989474e+02,5.125072e+03
1.001840e+03,5.099155e+03
1.004733e+03,5.085095e+03
1.007626e+03,5.090736e+03
1.010518e+03,5.106006e+03
1.013411e+03,5.067489e+03
1.016304e+03,5.048109e+03
1.019196e+03,5.024171e+03
1.022089e+03,5.039130e+03
1.024982e+03,5.049078e+03
1.027875e+03,5.023336e+03
1.030767e+03,5.021738e+03
1.033660e+03,5.020042e+03
1.036552e+03,5.035246e+03
1.039445e+03,5.017796e+03
1.042338e+03,5.022415e+03
1.045231e+03,5.019725e+03
1.048123e+03,4.984179e+03
1.051016e+03,4.963292e+03
1.053909e+03,4.983517e+03
1.056802e+03,4.976662e+03
1.059694e+03,4.987776e+03
1.062587e+03,4.942154e+03
1.065479e+03,4.957314e+03
1.068372e+03,4.955125e+03
1.071265e+03,4.965189e+03
1.074158e+03,4.935808e+03
1.077050e+03,4.911631e+03
1.079943e+03,4.923143e+03
1.082836e+03,4.907259e+03
1.085729e+03,4.942520e+03
1.088621e+03,4.929631e+03
1.091514e+03,4.930572e+03
1.094406e+03,4.911698e+03
1.097299e+03,4.904195e+03
1.100192e+03,4.901873e+03
1.103085e+03,4.891971e+03
1.105977e+03,4.878317e+03
1.108870e+03,4.870098e+03
1.111763e+03,4.853117e+03
1.114656e+03,4.868742e+03
1.117548e+03,4.875970e+03
1.120441e+03,4.853810e+03
1.123334e+03,4.868364e+03
1.126226e+03,4.849740e+03
1.129119e+03,4.841644e+03
1.132012e+03,4.839395e+03
1.134904e+03,4.826463e+03
1.137797e+03,4.783064e+03
1.140690e+03,4.797104e+03
1.143583e+03,4.799641e+03
1.146475e+03,4.808063e+03
1.149368e+03,4.798719e+03
1.152261e+03,4.797225e+03
1.155153e+03,4.783161e+03
1.158046e+03,4.761869e+03
1.160939e+03,4.764302e+03
1.163831e+03,4.741106e+03
1.166724e+03,4.731106e+03
1.169617e+03,4.728139e+03
1.172510e+03,4.722098e+03
1.175402e+03,4.720825e+03
1.178295e+03,4.719093e+03
1.181188e+03,4.723341e+03
1.184080e+03,4.712390e+03
1.186973e+03,4.680833e+03
1.189866e+03,4.674362e+03
1.192758e+03,4.693990e+03
1.195651e+03,4.687662e+03
1.198544e+03,4.684204e+03
1.201437e+03,4.659579e+03
1.204329e+03,4.644690e+03
1.207222e+03,4.647348e+03
1.210115e+03,4.633978e+03
1.213007e+03,4.637453e+03
1.215900e+03,4.650876e+03
1.218793e+03,4.632677e+03
1.221685e+03,4.627467e+03
1.224578e+03,4.621319e+03
1.227471e+03,4.618569e+03
1.230364e+03,4.608304e+03
1.233256e+03,4.595584e+03
1.236149e+03,4.606846e+03
1.239042e+03,4.596460e+03
1.241934e+03,4.603797e+03
1.244827e+03,4.608986e+03
1.247720e+03,4.567813e+03
1.250612e+03,4.566421e+03
1.253505e+03,4.571815e+03
1.256398e+03,4.570069e+03
1.259291e+03,4.565357e+03
1.262183e+03,4.554653e+03
1.265076e+03,4.537625e+03
1.267969e+03,4.532933e+03
1.270861e+03,4.564696e+03
1.273754e+03,4.544952e+03
1.276647e+03,4.553903e+03
1.279539e+03,4.506238e+03
1.282432e+03,4.512602e+03
1.285325e+03,4.523455e+03
1.288218e+03,4.504609e+03
1.291110e+03,4.502591e+03
1.294003e+03,4.477588e+03
1.296896e+03,4.452952e+03
1.299788e+03,4.459278e+03
1.302681e+03,4.449510e+03
1.305574e+03,4.454150e+03
1.308466e+03,4.453304e+03
1.311359e+03,4.444572e+03
1.314252e+03,4.422295e+03
1.317145e+03,4.417772e+03
1.320037e+03,4.454793e+03
1.322930e+03,4.425305e+03
1.325823e+03,4.388545e+03
1.328715e+03,4.406310e+03
1.331608e+03,4.402971e+03
1.334501e+03,4.425314e+03
1.337393e+03,4.419296e+03
1.340286e+03,4.394787e+03
1.343179e+03,4.390076e+03
1.346072e+03,4.384126e+03
1.348964e+03,4.380491e+03
1.351857e+03,4.368903e+03
1.354750e+03,4.373044e+03
1.357642e+03,4.356986e+03
1.360535e+03,4.345385e+03
1.363428e+03,4.357131e+03
1.366320e+03,4.352079e+03
1.369213e+03,4.351876e+03
1.372106e+03,4.317193e+03
1.374999e+03,4.316202e+03
1.377891e+03,4.316213e+03
1.380784e+03,4.316429e+03
1.383677e+03,4.322159e+03
1.386569e+03,4.288734e+03
1.389462e+03,4.266375e+03
1.392355e+03,4.269678e+03
1.395247e+03,4.272127e+03
1.398140e+03,4.282751e+03
1.401033e+03,4.262859e+03
1.403926e+03,4.265292e+03
1.406818e+03,4.247106e+03
1.409711e+03,4.250042e+03
1.412604e+03,4.245229e+03
1.415496e+03,4.219761e+03
1.418389e+03,4.219144e+03
1.421282e+03,4.228609e+03
1.424174e+03,4.218611e+03
1.427067e+03,4.182393e+03
1.429960e+03,4.183080e+03
1.432853e+03,4.198507e+03
1.435745e+03,4.190081e+03
1.438638e+03,4.156612e+03
1.441531e+03,4.166622e+03
1.444423e+03,4.172595e+03
1.447316e+03,4.152033e+03
1.450209e+03,4.137429e+03
1.453101e+03,4.135889e+03
1.455994e+03,4.145816e+03
1.458887e+03,4.130467e+03
1.461780e+03,4.157254e+03
1.464672e+03,4.109835e+03
1.467565e+03,4.106179e+03
1.470458e+03,4.120583e+03
1.473350e+03,4.109623e+03
1.476243e+03,4.108393e+03
1.479136e+03,4.087448e+03
1.482028e+03,4.115187e+03
1.484921e+03,4.112183e+03
1.487814e+03,4.088605e+03
1.490707e+03,4.093281e+03
1.493599e+03,4.089027e+03
1.496492e+03,4.093847e+03
1.499385e+03,4.051831e+03
1.502277e+03,4.053392e+03
1.505170e+03,4.054720e+03
1.508063e+03,4.048616e+03
1.510955e+03,4.032541e+03
1.513848e+03,4.031702e+03
1.516741e+03,4.020679e+03
1.519634e+03,4.021906e+03
1.522526e+03,4.003274e+03
1.525419e+03,4.024598e+03
1.528312e+03,3.984685e+03
1.531204e+03,3.979887e+03
1.534097e+03,3.974239e+03
1.536990e+03,3.987845e+03
1.539882e+03,3.988380e+03
1.542775e+03,3.954240e+03
1.545668e+03,3.955128e+03
1.548561e+03,3.962682e+03
1.551453e+03,3.973476e+03
1.554346e+03,3.963052e+03
1.557239e+03,3.949570e+03
1.560131e+03,3.937282e+03
1.563024e+03,3.924721e+03
1.565917e+03,3.938147e+03
1.568809e+03,3.935370e+03
1.571702e+03,3.927631e+03
1.574595e+03,3.910810e+03
1.577488e+03,3.923405e+03
1.580380e+03,3.918997e+03
1.583273e+03,3.907167e+03
1.586166e+03,3.908885e+03
1.589058e+03,3.909358e+03
1.591951e+03,3.922631e+03
1.594844e+03,3.892778e+03
1.597736e+03,3.882885e+03
1.600629e+03,3.872556e+03
1.603522e+03,3.862737e+03
1.606415e+03,3.839024e+03
1.609307e+03,3.835667e+03
1.612200e+03,3.821510e+03
1.615093e+03,3.819195e+03
1.617985e+03,3.821386e+03
1.620878e+03,3.797849e+03
1.623771e+03,3.801487e+03
1.626663e+03,3.790656e+03
1.629556e+03,3.780592e+03
1.632449e+03,3.780590e+03
1.635342e+03,3.756774e+03
1.638234e+03,3.743052e+03
1.641127e+03,3.741986e+03
1.644020e+03,3.754492e+03
1.646912e+03,3.743746e+03
1.649805e+03,3.736434e+03
1.652698e+03,3.707434e+03
1.655590e+03,3.714031e+03
1.658483e+03,3.716192e+03
1.661376e+03,3.702282e+03
1.664269e+03,3.685679e+03
1.667161e+03,3.702783e+03
1.670054e+03,3.686992e+03
1.672947e+03,3.684474e+03
1.675839e+03,3.670156e+03
1.678732e+03,3.658653e+03
1.681625e+03,3.656164e+03
1.684517e+03,3.650081e+03
1.687410e+03,3.643176e+03
1.690303e+03,3.630703e+03
1.693196e+03,3.638376e+03
1.696088e+03,3.645955e+03
1.698981e+03,3.641760e+03
1.701874e+03,3.602505e+03
1.704766e+03,3.621580e+03
1.707659e+03,3.610881e+03
1.710552e+03,3.619774e+03
1.713444e+03,3.594437e+03
1.716337e+03,3.597550e+03
1.719230e+03,3.562114e+03
1.722123e+03,3.585468e+03
1.725015e+03,3.559760e+03
1.727908e+03,3.542452e+03
1.730801e+03,3.537851e+03
1.733693e+03,3.543539e+03
1.736586e+03,3.539850e+03
1.739479e+03,3.570522e+03
1.742371e+03,3.530000e+03
1.745264e+03,3.507916e+03
1.748157e+03,3.523354e+03
1.751050e+03,3.532860e+03
1.753942e+03,3.498750e+03
1.756835e+03,3.479441e+03
1.759728e+03,3.501173e+03
1.762620e+03,3.478526e+03
1.765513e+03,3.471985e+03
1.768406e+03,3.467516e+03
1.771298e+03,3.475035e+03
1.774191e+03,3.470155e+03
1.777084e+03,3.458655e+03
1.779977e+03,3.442948e+03
1.782869e+03,3.444790e+03
1.785762e+03,3.423912e+03
1.788655e+03,3.432676e+03
1.791547e+03,3.404872e+03
1.794440e+03,3.404444e+03
1.797333e+03,3.411141e+03
1.800225e+03,3.425046e+03
1.803118e+03,3.378044e+03
1.806011e+03,3.401972e+03
1.808904e+03,3.385566e+03
1.811796e+03,3.362010e+03
1.814689e+03,3.387870e+03
1.817582e+03,3.338602e+03
1.820474e+03,3.368992e+03
1.823367e+03,3.333589e+03
1.826260e+03,3.332680e+03
1.829152e+03,3.345426e+03
1.832045e+03,3.358312e+03
1.834938e+03,3.315206e+03
1.837831e+03,3.316227e+03
1.840723e+03,3.288974e+03
1.843616e+03,3.317595e+03
1.846509e+03,3.312511e+03
1.849401e+03,3.286073e+03
1.852294e+03,3.273768e+03
1.855187e+03,3.290964e+03
1.858079e+03,3.275461e+03
1.860972e+03,3.277398e+03
1.863865e+03,3.254104e+03
1.866758e+03,3.248512e+03
1.869650e+03,3.219416e+03
1.872543e+03,3.228199e+03
1.875436e+03,3.226419e+03
1.878328e+03,3.232644e+03
1.881221e+03,3.210970e+03
1.884114e+03,3.195034e+03
1.887006e+03,3.194209e+03
1.889899e+03,3.187481e+03
1.892792e+03,3.192457e+03
1.895685e+03,3.165943e+03
1.898577e+03,3.178505e+03
1.901470e+03,3.133602e+03
1.904363e+03,3.173469e+03
1.907255e+03,3.170185e+03
1.910148e+03,3.150167e+03
1.913041e+03,3.138146e+03
1.915933e+03,3.134067e+03
1.918826e+03,3.101604e+03
1.921719e+03,3.103874e+03
1.924612e+03,3.127838e+03
1.927504e+03,3.114215e+03
1.930397e+03,3.089324e+03
1.933290e+03,3.072989e+03
1.936182e+03,3.087596e+03
1.939075e+03,3.072586e+03
1.941968e+03,3.075511e+03
1.944860e+03,3.041226e+03
1.947753e+03,3.041219e+03
1.950646e+03,3.043420e+03
1.953539e+03,3.037750e+03
1.956431e+03,3.045872e+03
1.959324e+03,3.051644e+03
1.962217e+03,3.009962e+03
1.965109e+03,3.029519e+03
1.968002e+03,3.015551e+03
1.970895e+03,3.025149e+03
1.973787e+03,3.002114e+03
1.976680e+03,2.974495e+03
1.979573e+03,2.975317e+03
1.982466e+03,2.965734e+03
1.985358e+03,2.961474e+03
1.988251e+03,2.967438e+03
1.991144e+03,2.944022e+03
1.994036e+03,2.950675e+03
1.996929e+03,2.945004e+03
1.999822e+03,2.950297e+03
2.002714e+03,2.926741e+03
2.005607e+03,2.895284e+03
2.008500e+03,2.902656e+03
2.011393e+03,2.903803e+03
2.014285e+03,2.905826e+03
2.017178e+03,2.893965e+03
2.020071e+03,2.884087e+03
2.022963e+03,2.886939e+03
2.025856e+03,2.865603e+03
2.028749e+03,2.877526e+03
2.031641e+03,2.859958e+03
2.034534e+03,2.873338e+03
2.037427e+03,2.823855e+03
2.040320e+03,2.823477e+03
2.043212e+03,2.807026e+03
2.046105e+03,2.844046e+03
2.048998e+03,2.812752e+03
2.051890e+03,2.815401e+03
2.054783e+03,2.784015e+03
2.057676e+03,2.793055e+03
2.060568e+03,2.769820e+03
2.063461e+03,2.787157e+03
2.066354e+03,2.790603e+03
2.069247e+03,2.778953e+03
2.072139e+03,2.756016e+03
2.075032e+03,2.740991e+03
2.077925e+03,2.754111e+03
2.080817e+03,2.734572e+03
2.083710e+03,2.738212e+03
2.086603e+03,2.706987e+03
2.089496e+03,2.730915e+03
2.092388e+03,2.706756e+03
2.095281e+03,2.697727e+03
2.098174e+03,2.725413e+03
2.101066e+03,2.700126e+03
2.103959e+03,2.670627e+03
2.106852e+03,2.676333e+03
2.109744e+03,2.703067e+03
2.112637e+03,2.644650e+03
2.115530e+03,2.647184e+03
2.118422e+03,2.644871e+03
2.121315e+03,2.674692e+03
2.124208e+03,2.666338e+03
2.127101e+03,2.610610e+03
2.129993e+03,2.628997e+03
2.132886e+03,2.615500e+03
2.135779e+03,2.610398e+03
2.138671e+03,2.597340e+03
2.141564e+03,2.582916e+03
2.144457e+03,2.568339e+03
2.147350e+03,2.581569e+03
2.150242e+03,2.582322e+03
2.153135e+03,2.569481e+03
2.156028e+03,2.564642e+03
2.158920e+03,2.554203e+03
2.161813e+03,2.550048e+03
2.164706e+03,2.533502e+03
2.167598e+03,2.543194e+03
2.170491e+03,2.514944e+03
2.173384e+03,2.517200e+03
2.176277e+03,2.532522e+03
2.179169e+03,2.487905e+03
2.182062e+03,2.513893e+03
2.184955e+03,2.472060e+03
2.187847e+03,2.463195e+03
2.190740e+03,2.473195e+03
2.193633e+03,2.472132e+03
2.196525e+03,2.476110e+03
2.199418e+03,2.442706e+03
2.202311e+03,2.456665e+03
2.205204e+03,2.465047e+03
2.208096e+03,2.456358e+03
2.210989e+03,2.445967e+03
2.213882e+03,2.416816e+03
2.216774e+03,2.427333e+03
2.219667e+03,2.414139e+03
2.222560e+03,2.386080e+03
2.225452e+03,2.404695e+03
2.228345e+03,2.400584e+03
2.231238e+03,2.395657e+03
2.234131e+03,2.399076e+03
2.237023e+03,2.391275e+03
2.239916e+03,2.371906e+03
2.242809e+03,2.356487e+03
2.245701e+03,2.348134e+03
2.248594e+03,2.336460e+03
2.251487e+03,2.327449e+03
2.254379e+03,2.338278e+03
2.257272e+03,2.347858e+03
2.260165e+03,2.311681e+03
2.263058e+03,2.327094e+03
2.265950e+03,2.317924e+03
2.268843e+03,2.306211e+03
2.271736e+03,2.282449e+03
2.274628e+03,2.307632e+03
2.277521e+03,2.302250e+03
2.280414e+03,2.277958e+03
2.283306e+03,2.281314e+03
2.286199e+03,2.254879e+03
2.289092e+03,2.277560e+03
2.291985e+03,2.260855e+03
2.294877e+03,2.245841e+03
2.297770e+03,2.265388e+03
2.300663e+03,2.240730e+03
2.303555e+03,2.212248e+03
2.306448e+03,2.213594e+03
2.309341e+03,2.210254e+03
2.312233e+03,2.222407e+03
2.315126e+03,2.210976e+03
2.318019e+03,2.187090e+03
2.320912e+03,2.198518e+03
2.323804e+03,2.185678e+03
2.326697e+03,2.182375e+03
2.329590e+03,2.166568e+03
2.332482e+03,2.149021e+03
2.335375e+03,2.165204e+03
2.338268e+03,2.141038e+03
2.341160e+03,2.146817e+03
2.344053e+03,2.155575e+03
2.346946e+03,2.124385e+03
2.349839e+03,2.128396e+03
2.352731e+03,2.116501e+03
2.355624e+03,2.097610e+03
2.358517e+03,2.127977e+03
2.361409e+03,2.104921e+03
2.364302e+03,2.091966e+03
2.367195e+03,2.098988e+03
2.370087e+03,2.085362e+03
2.372980e+03,2.119555e+03
2.375873e+03,2.072959e+03
2.378766e+03,2.070520e+03
2.381658e+03,2.050958e+03
2.384551e+03,2.056110e+03
2.387444e+03,2.049105e+03
2.390336e+03,2.046331e+03
2.393229e+03,2.050535e+03
2.396122e+03,2.029657e+03
2.399014e+03,2.053155e+03
2.401907e+03,2.014126e+03
2.404800e+03,2.026822e+03
2.407693e+03,2.012747e+03
2.410585e+03,2.006505e+03
2.413478e+03,1.991766e+03
2.416371e+03,1.996374e+03
2.419263e+03,1.993649e+03
2.422156e+03,1.975667e+03
2.425049e+03,2.001248e+03
2.427941e+03,1.968483e+03
2.430834e+03,1.979720e+03
2.433727e+03,1.966428e+03
2.436620e+03,1.971487e+03
2.439512e+03,1.976588e+03
2.442405e+03,1.971555e+03
2.445298e+03,1.946416e+03
2.448190e+03,1.948236e+03
2.451083e+03,1.954771e+03
2.453976e+03,1.939554e+03
2.456868e+03,1.934018e+03
2.459761e+03,1.930583e+03
2.462654e+03,1.910418e+03
2.465547e+03,1.895360e+03
2.468439e+03,1.897372e+03
2.471332e+03,1.896735e+03
2.474225e+03,1.898947e+03
2.477117e+03,1.880382e+03
2.480010e+03,1.892786e+03
2.482903e+03,1.885546e+03
2.485795e+03,1.868194e+03
2.488688e+03,1.879314e+03
2.491581e+03,1.874756e+03
2.494474e+03,1.864941e+03
2.497366e+03,1.863976e+03
2.500259e+03,1.868025e+03
2.503152e+03,1.858683e+03
2.506044e+03,1.839384e+03
2.508937e+03,1.823623e+03
2.511830e+03,1.839068e+03
2.514722e+03,1.839399e+03
2.517615e+03,1.816181e+03
2.520508e+03,1.817046e+03
2.523401e+03,1.815312e+03
2.526293e+03,1.827312e+03
2.529186e+03,1.816317e+03
2.532079e+03,1.804037e+03
2.534971e+03,1.822743e+03
2.537864e+03,1.808597e+03
2.540757e+03,1.774151e+03
2.543649e+03,1.781496e+03
2.546542e+03,1.800687e+03
2.549435e+03,1.773086e+03
2.552328e+03,1.782152e+03
2.555220e+03,1.764305e+03
2.558113e+03,1.773866e+03
2.561006e+03,1.770064e+03
2.563898e+03,1.765654e+03
2.566791e+03,1.759908e+03
2.569684e+03,1.750670e+03
2.572576e+03,1.731070e+03
2.575469e+03,1.746754e+03
2.578362e+03,1.745539e+03
2.581255e+03,1.747833e+03
2.584147e+03,1.738332e+03
2.587040e+03,1.735075e+03
2.589933e+03,1.724607e+03
2.592825e+03,1.701497e+03
2.595718e+03,1.722299e+03
2.598611e+03,1.703736e+03
2.601503e+03,1.699829e+03
2.604396e+03,1.699386e+03
2.607289e+03,1.682753e+03
2.610182e+03,1.695743e+03
2.613074e+03,1.681417e+03
2.615967e+03,1.678376e+03
2.618860e+03,1.693692e+03
2.621752e+03,1.680624e+03
2.624645e+03,1.671013e+03
2.627538e+03,1.688153e+03
2.630430e+03,1.662853e+03
2.633323e+03,1.673598e+03
2.636216e+03,1.672984e+03
2.639109e+03,1.670385e+03
2.642001e+03,1.661900e+03
2.644894e+03,1.659427e+03
2.647787e+03,1.666807e+03
2.650679e+03,1.654221e+03
2.653572e+03,1.606197e+03
2.656465e+03,1.646614e+03
2.659357e+03,1.646916e+03
2.662250e+03,1.614179e+03
2.665143e+03,1.620757e+03
2.668036e+03,1.634195e+03
2.670928e+03,1.622402e+03
2.673821e+03,1.604468e+03
2.676714e+03,1.594058e+03
2.679606e+03,1.617508e+03
2.682499e+03,1.587869e+03
2.685392e+03,1.617043e+03
2.688284e+03,1.590172e+03
2.691177e+03,1.592699e+03
2.694070e+03,1.581352e+03
2.696963e+03,1.597096e+03
2.699855e+03,1.593341e+03
2.702748e+03,1.567148e+03
2.705641e+03,1.572655e+03
2.708533e+03,1.548210e+03
2.711426e+03,1.576879e+03
2.714319e+03,1.556053e+03
2.717211e+03,1.557289e+03
2.720104e+03,1.584974e+03
2.722997e+03,1.566625e+03
2.725890e+03,1.556266e+03
2.728782e+03,1.572213e+03
2.731675e+03,1.561244e+03
2.734568e+03,1.532968e+03
2.737460e+03,1.529654e+03
2.740353e+03,1.525854e+03
2.743246e+03,1.543520e+03
2.746138e+03,1.516220e+03
2.749031e+03,1.515246e+03
2.751924e+03,1.534299e+03
2.754817e+03,1.504075e+03
2.757709e+03,1.514420e+03
2.760602e+03,1.512505e+03
2.763495e+03,1.524359e+03
2.766387e+03,1.525160e+03
2.769280e+03,1.499379e+03
2.772173e+03,1.492273e+03
2.775065e+03,1.512402e+03
2.777958e+03,1.489656e+03
2.780851e+03,1.495603e+03
2.783744e+03,1.451777e+03
2.786636e+03,1.481827e+03
2.789529e+03,1.479540e+03
2.792422e+03,1.479483e+03
2.795314e+03,1.457079e+03
2.798207e+03,1.463799e+03
2.801100e+03,1.471474e+03
2.803992e+03,1.461838e+03
2.806885e+03,1.467661e+03
2.809778e+03,1.467375e+03
2.812671e+03,1.433271e+03
2.815563e+03,1.462963e+03
2.818456e+03,1.441003e+03
2.821349e+03,1.433382e+03
2.824241e+03,1.456249e+03
2.827134e+03,1.460147e+03
2.830027e+03,1.446184e+03
2.832919e+03,1.433589e+03
2.835812e+03,1.448140e+03
2.838705e+03,1.442453e+03
2.841598e+03,1.415988e+03
2.844490e+03,1.436915e+03
2.847383e+03,1.405132e+03
2.850276e+03,1.405767e+03
2.853168e+03,1.440427e+03
2.856061e+03,1.417401e+03
2.858954e+03,1.404823e+03
2.861846e+03,1.428229e+03
2.864739e+03,1.416595e+03
2.867632e+03,1.446060e+03
2.870525e+03,1.408608e+03
2.873417e+03,1.407691e+03
2.876310e+03,1.428997e+03
2.879203e+03,1.421729e+03
2.882095e+03,1.416422e+03
2.884988e+03,1.410427e+03
2.887881e+03,1.404961e+03
2.890773e+03,1.418436e+03
2.893666e+03,1.406554e+03
2.896559e+03,1.405922e+03
2.899452e+03,1.407429e+03
2.902344e+03,1.419352e+03
2.905237e+03,1.395472e+03
2.908130e+03,1.386462e+03
2.911022e+03,1.377718e+03
2.913915e+03,1.362390e+03
2.916808e+03,1.397555e+03
2.919700e+03,1.371639e+03
2.922593e+03,1.374037e+03
2.925486e+03,1.397454e+03
2.928379e+03,1.351224e+03
2.931271e+03,1.368685e+03
2.934164e+03,1.334224e+03
2.937057e+03,1.337864e+03
2.939949e+03,1.377841e+03
2.942842e+03,1.347412e+03
2.945735e+03,1.362424e+03
2.948627e+03,1.374768e+03
2.951520e+03,1.355056e+03
2.954413e+03,1.332372e+03
2.957306e+03,1.395129e+03
2.960198e+03,1.343814e+03
2.963091e+03,1.330628e+03
2.965984e+03,1.307989e+03
2.968876e+03,1.327650e+03
2.971769e+03,1.333077e+03
2.974662e+03,1.315750e+03
2.977554e+03,1.334663e+03
2.980447e+03,1.329208e+03
2.983340e+03,1.285383e+03
2.986233e+03,1.275349e+03
2.989125e+03,1.279714e+03
2.992018e+03,1.341695e+03
2.994911e+03,1.294218e+03
2.997803e+03,1.308969e+03
3.000696e+03,1.274402e+03
3.003589e+03,1.283071e+03
3.006481e+03,1.261665e+03
3.009374e+03,1.285690e+03
3.012267e+03,1.302217e+03
3.015160e+03,1.300711e+03
3.018052e+03,1.282722e+03
3.020945e+03,1.290733e+03
3.023838e+03,1.284118e+03
3.026730e+03,1.285639e+03
3.029623e+03,1.290492e+03
3.032516e+03,1.234448e+03
3.035408e+03,1.260036e+03
3.038301e+03,1.290685e+03
3.041194e+03,1.258237e+03
3.044087e+03,1.263775e+03
3.046979e+03,1.268948e+03
3.049872e+03,1.250946e+03
3.052765e+03,1.263127e+03
3.055657e+03,1.252484e+03
3.058550e+03,1.268636e+03
3.061443e+03,1.296068e+03
3.064335e+03,1.199814e+03
3.067228e+03,1.260352e+03
3.070121e+03,1.262785e+03
3.073014e+03,1.223443e+03
3.075906e+03,1.248665e+03
3.078799e+03,1.191354e+03
3.081692e+03,1.251981e+03
3.084584e+03,1.216911e+03
3.087477e+03,1.277886e+03
3.090370e+03,1.255417e+03
3.093262e+03,1.221341e+03
3.096155e+03,1.244420e+03
3.099048e+03,1.242068e+03
3.101941e+03,1.251972e+03
3.104833e+03,1.246473e+03
3.107726e+03,1.217877e+03
3.110619e+03,1.202754e+03
3.113511e+03,1.242864e+03
3.116404e+03,1.220239e+03
3.119297e+03,1.226188e+03
3.122189e+03,1.253803e+03
3.125082e+03,1.214686e+03
3.127975e+03,1.226745e+03
3.130868e+03,1.229123e+03
3.133760e+03,1.233668e+03
3.136653e+03,1.181651e+03
3.139546e+03,1.264771e+03
3.142438e+03,1.239607e+03
3.145331e+03,1.196154e+03
3.148224e+03,1.227188e+03
3.151116e+03,1.222117e+03
3.154009e+03,1.214105e+03
3.156902e+03,1.238790e+03
3.159795e+03,1.254455e+03
3.162687e+03,1.225089e+03
3.165580e+03,1.256522e+03
3.168473e+03,1.246213e+03
3.171365e+03,1.178257e+03
3.174258e+03,1.225716e+03
3.177151e+03,1.263698e+03
3.180043e+03,1.197922e+03
3.182936e+03,1.241953e+03
3.185829e+03,1.211929e+03
3.188722e+03,1.235384e+03
3.191614e+03,1.255356e+03
3.194507e+03,1.243692e+03
3.197400e+03,1.239077e+03
3.200292e+03,1.250598e+03
3.203185e+03,0.000000e+00
3.206078e+03,0.000000e+00
3.208970e+03,0.000000e+00
3.211863e+03,0.000000e+00
3.214756e+03,0.000000e+00
3.217649e+03,0.000000e+00
3.220541e+03,0.000000e+00
3.223434e+03,0.000000e+00
3.226327e+03,0.000000e+00
3.229219e+03,0.000000e+00
3.232112e+03,0.000000e+00
3.235005e+03,0.000000e+00
3.237897e+03,0.000000e+00
3.240790e+03,0.000000e+00
3.243683e+03,0.000000e+00
3.246576e+03,0.000000e+00
3.249468e+03,0.000000e+00
3.252361e+03,0.000000e+00
3.255254e+03,0.000000e+00
3.258146e+03,0.000000e+00
3.261039e+03,0.000000e+00
3.263932e+03,0.000000e+00
3.266824e+03,0.000000e+00
3.269717e+03,0.000000e+00
3.272610e+03,0.000000e+00
3.275503e+03,0.000000e+00
3.278395e+03,0.000000e+00
3.281288e+03,0.000000e+00
3.284181e+03,0.000000e+00
3.287073e+03,0.000000e+00
3.289966e+03,0.000000e+00
3.292859e+03,0.000000e+00
3.295751e+03,0.000000e+00
3.298644e+03,0.000000e+00
3.301537e+03,0.000000e+00
3.304430e+03,0.000000e+00
3.307322e+03,0.000000e+00
3.310215e+03,0.000000e+00
3.313108e+03,0.000000e+00
3.316000e+03,0.000000e+00
3.318893e+03,0.000000e+00
3.321786e+03,0.000000e+00
3.324678e+03,0.000000e+00
3.327571e+03,0.000000e+00
3.330464e+03,0.000000e+00
3.333357e+03,0.000000e+00
3.336249e+03,0.000000e+00
3.339142e+03,0.000000e+00
3.342035e+03,0.000000e+00
3.344927e+03,0.000000e+00
3.347820e+03,0.000000e+00
3.350713e+03,0.000000e+00
3.353605e+03,0.000000e+00
3.356498e+03,0.000000e+00
3.359391e+03,0.000000e+00
3.362284e+03,0.000000e+00
3.365176e+03,0.000000e+00
3.368069e+03,0.000000e+00
3.370962e+03,0.000000e+00
3.373854e+03,0.000000e+00
3.376747e+03,0.000000e+00
3.379640e+03,0.000000e+00
3.382532e+03,0.000000e+00
3.385425e+03,0.000000e+00
3.388318e+03,0.000000e+00
3.391211e+03,0.000000e+00
3.394103e+03,0.000000e+00
3.396996e+03,0.000000e+00
3.399889e+03,0.000000e+00
3.402781e+03,0.000000e+00
3.405674e+03,0.000000e+00
3.408567e+03,0.000000e+00
3.411459e+03,0.000000e+00
3.414352e+03,0.000000e+00
3.417245e+03,0.000000e+00
3.420138e+03,0.000000e+00
3.423030e+03,0.000000e+00
3.425923e+03,0.000000e+00
3.428816e+03,0.000000e+00
3.431708e+03,0.000000e+00
3.434601e+03,0.000000e+00
3.437494e+03,0.000000e+00
3.440386e+03,0.000000e+00
3.443279e+03,0.000000e+00
3.446172e+03,0.000000e+00
3.449065e+03,0.000000e+00
3.451957e+03,0.000000e+00
3.454850e+03,0.000000e+00
3.457743e+03,0.000000e+00
3.460635e+03,0.000000e+00
3.463528e+03,0.000000e+00
3.466421e+03,0.000000e+00
3.469313e+03,0.000000e+00
3.472206e+03,0.000000e+00
3.475099e+03,0.000000e+00
3.477992e+03,0.000000e+00
3.480884e+03,0.000000e+00
3.483777e+03,0.000000e+00
3.486670e+03,0.000000e+00
3.489563e+03,0.000000e+00
3.492455e+03,0.000000e+00
3.495348e+03,0.000000e+00
3.498240e+03,0.000000e+00
3.500169e+03,0.000000e+00