File: RAMAN_data/13112023_r1/black fibre2.CSV
9.931763e+01,0.000000e+00
1.022103e+02,0.000000e+00
1.051030e+02,0.000000e+00
1.079957e+02,0.000000e+00
1.108884e+02,0.000000e+00
1.137811e+02,0.000000e+00
1.166738e+02,0.000000e+00
1.195665e+02,0.000000e+00
1.224592e+02,0.000000e+00
1.253519e+02,0.000000e+00
1.282446e+02,0.000000e+00
1.311373e+02,0.000000e+00
1.340300e+02,0.000000e+00
1.369227e+02,0.000000e+00
1.398154e+02,0.000000e+00
1.427081e+02,0.000000e+00
1.456008e+02,0.000000e+00
1.484935e+02,0.000000e+00
1.513862e+02,0.000000e+00
1.542789e+02,0.000000e+00
1.571716e+02,0.000000e+00
1.600643e+02,0.000000e+00
1.629570e+02,0.000000e+00
1.658497e+02,0.000000e+00
1.687424e+02,0.000000e+00
1.716351e+02,0.000000e+00
1.745278e+02,0.000000e+00
1.774205e+02,0.000000e+00
1.803132e+02,0.000000e+00
1.832059e+02,0.000000e+00
1.860986e+02,0.000000e+00
1.889913e+02,0.000000e+00
1.918840e+02,0.000000e+00
1.947767e+02,0.000000e+00
1.976694e+02,0.000000e+00
2.005621e+02,4.547170e+03
2.034548e+02,4.570793e+03
2.063475e+02,4.586267e+03
2.092402e+02,4.591352e+03
2.121329e+02,4.610665e+03
2.150256e+02,4.607633e+03
2.179183e+02,4.642106e+03
2.208110e+02,4.644115e+03
2.237037e+02,4.648213e+03
2.265964e+02,4.652007e+03
2.294892e+02,4.665455e+03
2.323819e+02,4.672298e+03
2.352746e+02,4.700616e+03
2.381673e+02,4.708232e+03
2.410600e+02,4.718128e+03
2.439527e+02,4.737817e+03
2.468454e+02,4.756896e+03
2.497381e+02,4.790956e+03
2.526308e+02,4.813183e+03
2.555235e+02,4.770369e+03
2.584161e+02,4.767438e+03
2.613088e+02,4.787843e+03
2.642015e+02,4.802746e+03
2.670942e+02,4.810375e+03
2.699869e+02,4.830226e+03
2.728796e+02,4.816601e+03
2.757723e+02,4.827706e+03
2.786650e+02,4.830661e+03
2.815577e+02,4.835837e+03
2.844504e+02,4.842615e+03
2.873431e+02,4.857812e+03
2.902358e+02,4.847977e+03
2.931285e+02,4.858054e+03
2.960212e+02,4.875564e+03
2.989139e+02,4.874128e+03
3.018066e+02,4.844194e+03
3.046993e+02,4.870208e+03
3.075920e+02,4.898387e+03
3.104847e+02,4.904270e+03
3.133774e+02,4.909766e+03
3.162701e+02,4.911346e+03
3.191628e+02,4.922097e+03
3.220555e+02,4.927193e+03
3.249482e+02,4.941336e+03
3.278409e+02,4.936094e+03
3.307336e+02,4.941124e+03
3.336263e+02,4.955014e+03
3.365190e+02,4.951743e+03
3.394117e+02,4.955884e+03
3.423044e+02,4.985687e+03
3.451971e+02,4.991181e+03
3.480898e+02,5.000611e+03
3.509825e+02,4.998103e+03
3.538752e+02,4.991196e+03
3.567680e+02,4.999693e+03
3.596607e+02,5.000835e+03
3.625534e+02,5.022779e+03
3.654461e+02,5.017929e+03
3.683388e+02,5.011821e+03
3.712315e+02,5.027395e+03
3.741242e+02,5.051482e+03
3.770169e+02,5.055191e+03
3.799096e+02,5.042669e+03
3.828023e+02,5.051664e+03
3.856950e+02,5.058338e+03
3.885877e+02,5.049508e+03
3.914804e+02,5.064278e+03
3.943731e+02,5.062842e+03
3.972658e+02,5.058508e+03
4.001585e+02,5.071959e+03
4.030512e+02,5.066615e+03
4.059439e+02,5.089289e+03
4.088366e+02,5.102712e+03
4.117293e+02,5.095963e+03
4.146220e+02,5.075289e+03
4.175147e+02,5.130111e+03
4.204074e+02,5.121748e+03
4.233001e+02,5.106849e+03
4.261928e+02,5.137829e+03
4.290855e+02,5.121083e+03
4.319782e+02,5.142166e+03
4.348709e+02,5.146861e+03
4.377636e+02,5.129854e+03
4.406563e+02,5.152083e+03
4.435490e+02,5.143103e+03
4.464417e+02,5.136154e+03
4.493344e+02,5.154984e+03
4.522271e+02,5.167505e+03
4.551198e+02,5.173722e+03
4.580125e+02,5.172167e+03
4.609052e+02,5.180255e+03
4.637979e+02,5.182033e+03
4.666906e+02,5.168788e+03
4.695833e+02,5.167807e+03
4.724760e+02,5.176764e+03
4.753687e+02,5.163771e+03
4.782614e+02,5.177700e+03
4.811541e+02,5.157507e+03
4.840468e+02,5.164788e+03
4.869395e+02,5.192404e+03
4.898322e+02,5.189321e+03
4.927249e+02,5.175881e+03
4.956176e+02,5.177135e+03
4.985103e+02,5.205288e+03
5.014030e+02,5.221551e+03
5.042957e+02,5.205198e+03
5.071884e+02,5.223232e+03
5.100811e+02,5.224042e+03
5.129738e+02,5.189963e+03
5.158665e+02,5.236679e+03
5.187592e+02,5.230954e+03
5.216519e+02,5.222772e+03
5.245446e+02,5.230230e+03
5.274373e+02,5.227906e+03
5.303300e+02,5.209381e+03
5.332227e+02,5.218515e+03
5.361154e+02,5.257784e+03
5.390081e+02,5.282333e+03
5.419008e+02,5.295713e+03
5.447935e+02,5.285904e+03
5.476862e+02,5.273778e+03
5.505789e+02,5.268391e+03
5.534716e+02,5.230211e+03
5.563643e+02,5.219219e+03
5.592570e+02,5.239743e+03
5.621497e+02,5.237025e+03
5.650424e+02,5.227146e+03
5.679351e+02,5.208839e+03
5.708278e+02,5.200613e+03
5.737205e+02,5.204019e+03
5.766132e+02,5.243524e+03
5.795059e+02,5.241701e+03
5.823986e+02,5.212741e+03
5.852913e+02,5.217348e+03
5.881840e+02,5.224987e+03
5.910767e+02,5.223507e+03
5.939694e+02,5.217202e+03
5.968621e+02,5.233273e+03
5.997548e+02,5.220660e+03
6.026475e+02,5.220985e+03
6.055402e+02,5.225958e+03
6.084329e+02,5.233287e+03
6.113256e+02,5.208433e+03
6.142183e+02,5.206220e+03
6.171110e+02,5.197553e+03
6.200037e+02,5.236474e+03
6.228964e+02,5.202047e+03
6.257891e+02,5.232281e+03
6.286818e+02,5.207620e+03
6.315745e+02,5.211236e+03
6.344672e+02,5.187548e+03
6.373599e+02,5.219208e+03
6.402526e+02,5.215513e+03
6.431453e+02,5.202202e+03
6.460380e+02,5.192494e+03
6.489307e+02,5.196076e+03
6.518234e+02,5.213404e+03
6.547161e+02,5.193519e+03
6.576088e+02,5.184665e+03
6.605015e+02,5.212566e+03
6.633942e+02,5.186040e+03
6.662869e+02,5.177148e+03
6.691796e+02,5.179367e+03
6.720723e+02,5.199952e+03
6.749650e+02,5.199318e+03
6.778577e+02,5.179950e+03
6.807504e+02,5.166479e+03
6.836431e+02,5.187543e+03
6.865358e+02,5.165743e+03
6.894285e+02,5.178609e+03
6.923212e+02,5.183931e+03
6.952139e+02,5.156458e+03
6.981066e+02,5.172201e+03
7.009993e+02,5.179208e+03
7.038920e+02,5.151053e+03
7.067847e+02,5.154335e+03
7.096774e+02,5.114550e+03
7.125701e+02,5.166302e+03
7.154628e+02,5.191838e+03
7.183555e+02,5.168969e+03
7.212482e+02,5.156329e+03
7.241409e+02,5.159466e+03
7.270336e+02,5.155145e+03
7.299263e+02,5.131100e+03
7.328190e+02,5.137635e+03
7.357117e+02,5.141569e+03
7.386044e+02,5.145898e+03
7.414971e+02,5.149198e+03
7.443898e+02,5.144474e+03
7.472825e+02,5.167781e+03
7.501752e+02,5.138829e+03
7.530679e+02,5.150005e+03
7.559606e+02,5.151036e+03
7.588533e+02,5.167178e+03
7.617460e+02,5.171039e+03
7.646387e+02,5.121875e+03
7.675314e+02,5.123610e+03
7.704241e+02,5.095400e+03
7.733168e+02,5.100503e+03
7.762095e+02,5.115149e+03
7.791022e+02,5.128221e+03
7.819949e+02,5.093735e+03
7.848876e+02,5.103126e+03
7.877803e+02,5.100243e+03
7.906730e+02,5.099793e+03
7.935657e+02,5.107960e+03
7.964584e+02,5.082355e+03
7.993511e+02,5.079159e+03
8.022438e+02,5.083736e+03
8.051365e+02,5.077866e+03
8.080292e+02,5.065404e+03
8.109219e+02,5.088351e+03
8.138146e+02,5.066990e+03
8.167073e+02,5.067548e+03
8.196000e+02,5.062600e+03
8.224927e+02,5.075849e+03
8.253854e+02,5.068827e+03
8.282781e+02,5.064549e+03
8.311708e+02,5.045257e+03
8.340635e+02,5.061157e+03
8.369562e+02,5.053513e+03
8.398489e+02,5.041352e+03
8.427416e+02,5.051734e+03
8.456343e+02,5.024548e+03
8.485270e+02,5.032864e+03
8.514197e+02,5.031646e+03
8.543124e+02,5.026670e+03
8.572051e+02,5.019117e+03
8.600978e+02,4.986925e+03
8.629905e+02,5.010301e+03
8.658832e+02,5.017328e+03
8.687759e+02,5.000821e+03
8.716686e+02,5.023227e+03
8.745613e+02,4.994571e+03
8.774540e+02,4.991863e+03
8.803467e+02,5.000072e+03
8.832394e+02,4.981090e+03
8.861321e+02,4.991694e+03
8.890248e+02,4.990736e+03
8.919175e+02,4.946234e+03
8.948102e+02,4.963901e+03
8.977029e+02,4.939271e+03
9.005956e+02,4.952408e+03
9.034883e+02,4.977508e+03
9.063810e+02,4.949306e+03
9.092737e+02,4.945177e+03
9.121664e+02,4.933062e+03
9.150591e+02,4.930976e+03
9.179518e+02,4.929235e+03
9.208445e+02,4.915354e+03
9.237372e+02,4.926281e+03
9.266299e+02,4.915339e+03
9.295226e+02,4.930095e+03
9.324153e+02,4.902959e+03
9.353080e+02,4.932327e+03
9.382007e+02,4.887335e+03
9.410934e+02,4.887711e+03
9.439861e+02,4.906803e+03
9.468788e+02,4.898988e+03
9.497715e+02,4.900613e+03
9.526642e+02,4.894058e+03
9.555569e+02,4.878331e+03
9.584496e+02,4.862160e+03
9.613423e+02,4.885616e+03
9.642350e+02,4.883091e+03
9.671277e+02,4.890532e+03
9.700204e+02,4.850910e+03
9.729131e+02,4.839672e+03
9.758058e+02,4.843214e+03
9.786985e+02,4.854961e+03
9.815912e+02,4.853795e+03
9.844839e+02,4.829808e+03
9.873766e+02,4.806812e+03
9.902693e+02,4.828637e+03
9.931620e+02,4.843291e+03
9.960547e+02,4.847662e+03
9.989474e+02,4.847063e+03
1.001840e+03,4.791213e+03
1.004733e+03,4.783601e+03
1.007626e+03,4.811946e+03
1.010518e+03,4.817721e+03
1.013411e+03,4.786039e+03
1.016304e+03,4.767060e+03
1.019196e+03,4.782448e+03
1.022089e+03,4.787294e+03
1.024982e+03,4.781673e+03
1.027875e+03,4.768829e+03
1.030767e+03,4.754554e+03
1.033660e+03,4.760757e+03
1.036552e+03,4.771980e+03
1.039445e+03,4.769703e+03
1.042338e+03,4.744602e+03
1.045231e+03,4.759722e+03
1.048123e+03,4.745148e+03
1.051016e+03,4.737399e+03
1.053909e+03,4.734443e+03
1.056802e+03,4.733898e+03
1.059694e+03,4.704945e+03
1.062587e+03,4.728784e+03
1.065479e+03,4.710060e+03
1.068372e+03,4.710213e+03
1.071265e+03,4.725557e+03
1.074158e+03,4.712433e+03
1.077050e+03,4.692739e+03
1.079943e+03,4.673251e+03
1.082836e+03,4.687435e+03
1.085729e+03,4.701337e+03
1.088621e+03,4.707737e+03
1.091514e+03,4.690397e+03
1.094406e+03,4.702643e+03
1.097299e+03,4.671611e+03
1.100192e+03,4.668403e+03
1.103085e+03,4.669485e+03
1.105977e+03,4.674564e+03
1.108870e+03,4.664696e+03
1.111763e+03,4.654083e+03
1.114656e+03,4.651087e+03
1.117548e+03,4.641052e+03
1.120441e+03,4.629088e+03
1.123334e+03,4.640926e+03
1.126226e+03,4.628291e+03
1.129119e+03,4.602944e+03
1.132012e+03,4.614843e+03
1.134904e+03,4.598134e+03
1.137797e+03,4.603991e+03
1.140690e+03,4.578233e+03
1.143583e+03,4.587782e+03
1.146475e+03,4.587108e+03
1.149368e+03,4.594239e+03
1.152261e+03,4.575252e+03
1.155153e+03,4.557636e+03
1.158046e+03,4.551693e+03
1.160939e+03,4.558356e+03
1.163831e+03,4.554431e+03
1.166724e+03,4.544342e+03
1.169617e+03,4.534693e+03
1.172510e+03,4.521606e+03
1.175402e+03,4.526861e+03
1.178295e+03,4.520026e+03
1.181188e+03,4.526534e+03
1.184080e+03,4.537625e+03
1.186973e+03,4.496385e+03
1.189866e+03,4.512015e+03
1.192758e+03,4.480085e+03
1.195651e+03,4.508306e+03
1.198544e+03,4.501042e+03
1.201437e+03,4.500038e+03
1.204329e+03,4.464349e+03
1.207222e+03,4.467247e+03
1.210115e+03,4.497859e+03
1.213007e+03,4.481986e+03
1.215900e+03,4.471174e+03
1.218793e+03,4.464467e+03
1.221685e+03,4.464320e+03
1.224578e+03,4.477319e+03
1.227471e+03,4.481843e+03
1.230364e+03,4.447812e+03
1.233256e+03,4.444271e+03
1.236149e+03,4.420299e+03
1.239042e+03,4.428229e+03
1.241934e+03,4.428423e+03
1.244827e+03,4.406703e+03
1.247720e+03,4.398660e+03
1.250612e+03,4.401456e+03
1.253505e+03,4.392979e+03
1.256398e+03,4.425536e+03
1.259291e+03,4.400898e+03
1.262183e+03,4.379677e+03
1.265076e+03,4.382703e+03
1.267969e+03,4.357817e+03
1.270861e+03,4.385868e+03
1.273754e+03,4.389793e+03
1.276647e+03,4.391764e+03
1.279539e+03,4.367460e+03
1.282432e+03,4.369971e+03
1.285325e+03,4.365651e+03
1.288218e+03,4.366815e+03
1.291110e+03,4.361249e+03
1.294003e+03,4.340686e+03
1.296896e+03,4.345083e+03
1.299788e+03,4.341127e+03
1.302681e+03,4.341302e+03
1.305574e+03,4.364667e+03
1.308466e+03,4.354617e+03
1.311359e+03,4.345883e+03
1.314252e+03,4.329075e+03
1.317145e+03,4.340304e+03
1.320037e+03,4.326910e+03
1.322930e+03,4.324838e+03
1.325823e+03,4.309273e+03
1.328715e+03,4.301330e+03
1.331608e+03,4.325468e+03
1.334501e+03,4.301890e+03
1.337393e+03,4.284956e+03
1.340286e+03,4.292535e+03
1.343179e+03,4.270971e+03
1.346072e+03,4.280748e+03
1.348964e+03,4.266018e+03
1.351857e+03,4.269575e+03
1.354750e+03,4.269373e+03
1.357642e+03,4.265216e+03
1.360535e+03,4.255675e+03
1.363428e+03,4.261572e+03
1.366320e+03,4.263903e+03
1.369213e+03,4.278238e+03
1.372106e+03,4.237085e+03
1.374999e+03,4.242628e+03
1.377891e+03,4.246733e+03
1.380784e+03,4.230052e+03
1.383677e+03,4.218642e+03
1.386569e+03,4.219353e+03
1.389462e+03,4.203559e+03
1.392355e+03,4.196094e+03
1.395247e+03,4.199289e+03
1.398140e+03,4.195659e+03
1.401033e+03,4.192681e+03
1.403926e+03,4.201942e+03
1.406818e+03,4.178764e+03
1.409711e+03,4.154910e+03
1.412604e+03,4.175689e+03
1.415496e+03,4.149955e+03
1.418389e+03,4.157395e+03
1.421282e+03,4.136994e+03
1.424174e+03,4.156709e+03
1.427067e+03,4.165553e+03
1.429960e+03,4.143337e+03
1.432853e+03,4.135716e+03
1.435745e+03,4.112564e+03
1.438638e+03,4.135712e+03
1.441531e+03,4.121322e+03
1.444423e+03,4.104904e+03
1.447316e+03,4.100745e+03
1.450209e+03,4.092945e+03
1.453101e+03,4.088332e+03
1.455994e+03,4.105339e+03
1.458887e+03,4.117346e+03
1.461780e+03,4.132955e+03
1.464672e+03,4.099434e+03
1.467565e+03,4.074687e+03
1.470458e+03,4.056386e+03
1.473350e+03,4.070742e+03
1.476243e+03,4.073687e+03
1.479136e+03,4.062302e+03
1.482028e+03,4.024004e+03
1.484921e+03,4.042011e+03
1.487814e+03,4.041234e+03
1.490707e+03,4.044844e+03
1.493599e+03,4.032079e+03
1.496492e+03,3.999659e+03
1.499385e+03,4.013324e+03
1.502277e+03,4.003229e+03
1.505170e+03,4.030544e+03
1.508063e+03,4.007786e+03
1.510955e+03,3.996370e+03
1.513848e+03,3.977396e+03
1.516741e+03,3.986464e+03
1.519634e+03,3.978999e+03
1.522526e+03,3.971692e+03
1.525419e+03,3.986636e+03
1.528312e+03,3.941584e+03
1.531204e+03,3.958969e+03
1.534097e+03,3.964437e+03
1.536990e+03,3.969378e+03
1.539882e+03,3.959278e+03
1.542775e+03,3.960899e+03
1.545668e+03,3.940230e+03
1.548561e+03,3.943951e+03
1.551453e+03,3.968304e+03
1.554346e+03,3.951312e+03
1.557239e+03,3.959796e+03
1.560131e+03,3.962371e+03
1.563024e+03,3.978353e+03
1.565917e+03,4.018156e+03
1.568809e+03,4.054323e+03
1.571702e+03,4.085782e+03
1.574595e+03,4.062741e+03
1.577488e+03,4.029863e+03
1.580380e+03,4.018560e+03
1.583273e+03,4.026127e+03
1.586166e+03,3.984319e+03
1.589058e+03,3.959320e+03
1.591951e+03,3.934479e+03
1.594844e+03,3.918676e+03
1.597736e+03,3.908398e+03
1.600629e+03,3.903149e+03
1.603522e+03,3.891927e+03
1.606415e+03,3.852113e+03
1.609307e+03,3.875655e+03
1.612200e+03,3.866944e+03
1.615093e+03,3.864813e+03
1.617985e+03,3.872782e+03
1.620878e+03,3.844136e+03
1.623771e+03,3.838239e+03
1.626663e+03,3.848956e+03
1.629556e+03,3.836949e+03
1.632449e+03,3.838082e+03
1.635342e+03,3.815555e+03
1.638234e+03,3.798306e+03
1.641127e+03,3.789674e+03
1.644020e+03,3.812260e+03
1.646912e+03,3.799457e+03
1.649805e+03,3.775039e+03
1.652698e+03,3.806968e+03
1.655590e+03,3.770272e+03
1.658483e+03,3.783466e+03
1.661376e+03,3.762346e+03
1.664269e+03,3.772373e+03
1.667161e+03,3.762145e+03
1.670054e+03,3.737172e+03
1.672947e+03,3.768129e+03
1.675839e+03,3.752481e+03
1.678732e+03,3.753958e+03
1.681625e+03,3.734591e+03
1.684517e+03,3.746293e+03
1.687410e+03,3.741440e+03
1.690303e+03,3.734607e+03
1.693196e+03,3.736126e+03
1.696088e+03,3.713608e+03
1.698981e+03,3.688227e+03
1.701874e+03,3.721703e+03
1.704766e+03,3.694298e+03
1.707659e+03,3.717234e+03
1.710552e+03,3.705537e+03
1.713444e+03,3.692356e+03
1.716337e+03,3.693216e+03
1.719230e+03,3.686239e+03
1.722123e+03,3.667544e+03
1.725015e+03,3.669955e+03
1.727908e+03,3.675528e+03
1.730801e+03,3.654147e+03
1.733693e+03,3.669451e+03
1.736586e+03,3.656438e+03
1.739479e+03,3.668442e+03
1.742371e+03,3.653119e+03
1.745264e+03,3.650917e+03
1.748157e+03,3.647104e+03
1.751050e+03,3.660797e+03
1.753942e+03,3.659358e+03
1.756835e+03,3.634746e+03
1.759728e+03,3.612333e+03
1.762620e+03,3.605687e+03
1.765513e+03,3.624048e+03
1.768406e+03,3.629559e+03
1.771298e+03,3.613574e+03
1.774191e+03,3.591938e+03
1.777084e+03,3.609540e+03
1.779977e+03,3.609177e+03
1.782869e+03,3.602687e+03
1.785762e+03,3.622712e+03
1.788655e+03,3.582179e+03
1.791547e+03,3.553196e+03
1.794440e+03,3.578784e+03
1.797333e+03,3.564128e+03
1.800225e+03,3.582426e+03
1.803118e+03,3.575452e+03
1.806011e+03,3.548160e+03
1.808904e+03,3.546831e+03
1.811796e+03,3.555234e+03
1.814689e+03,3.563095e+03
1.817582e+03,3.572559e+03
1.820474e+03,3.518128e+03
1.823367e+03,3.520366e+03
1.826260e+03,3.531344e+03
1.829152e+03,3.533414e+03
1.832045e+03,3.540146e+03
1.834938e+03,3.495151e+03
1.837831e+03,3.530382e+03
1.840723e+03,3.491442e+03
1.843616e+03,3.503070e+03
1.846509e+03,3.524182e+03
1.849401e+03,3.496229e+03
1.852294e+03,3.466448e+03
1.855187e+03,3.482208e+03
1.858079e+03,3.473297e+03
1.860972e+03,3.452543e+03
1.863865e+03,3.464215e+03
1.866758e+03,3.444927e+03
1.869650e+03,3.468326e+03
1.872543e+03,3.448356e+03
1.875436e+03,3.452723e+03
1.878328e+03,3.440417e+03
1.881221e+03,3.422947e+03
1.884114e+03,3.433876e+03
1.887006e+03,3.432468e+03
1.889899e+03,3.420478e+03
1.892792e+03,3.419911e+03
1.895685e+03,3.429253e+03
1.898577e+03,3.403288e+03
1.901470e+03,3.409509e+03
1.904363e+03,3.404427e+03
1.907255e+03,3.418435e+03
1.910148e+03,3.396591e+03
1.913041e+03,3.398570e+03
1.915933e+03,3.371257e+03
1.918826e+03,3.355382e+03
1.921719e+03,3.338408e+03
1.924612e+03,3.361322e+03
1.927504e+03,3.359099e+03
1.930397e+03,3.342167e+03
1.933290e+03,3.328002e+03
1.936182e+03,3.359166e+03
1.939075e+03,3.328088e+03
1.941968e+03,3.342234e+03
1.944860e+03,3.318268e+03
1.947753e+03,3.309135e+03
1.950646e+03,3.294926e+03
1.953539e+03,3.316898e+03
1.956431e+03,3.294088e+03
1.959324e+03,3.303401e+03
1.962217e+03,3.278159e+03
1.965109e+03,3.318906e+03
1.968002e+03,3.275265e+03
1.970895e+03,3.247387e+03
1.973787e+03,3.270876e+03
1.976680e+03,3.247603e+03
1.979573e+03,3.237846e+03
1.982466e+03,3.246481e+03
1.985358e+03,3.236093e+03
1.988251e+03,3.230502e+03
1.991144e+03,3.229242e+03
1.994036e+03,3.226923e+03
1.996929e+03,3.186095e+03
1.999822e+03,3.228615e+03
2.002714e+03,3.215945e+03
2.005607e+03,3.204785e+03
2.008500e+03,3.204318e+03
2.011393e+03,3.195232e+03
2.014285e+03,3.191593e+03
2.017178e+03,3.201334e+03
2.020071e+03,3.192140e+03
2.022963e+03,3.183219e+03
2.025856e+03,3.151652e+03
2.028749e+03,3.165492e+03
2.031641e+03,3.165276e+03
2.034534e+03,3.162516e+03
2.037427e+03,3.161439e+03
2.040320e+03,3.127770e+03
2.043212e+03,3.155599e+03
2.046105e+03,3.137241e+03
2.048998e+03,3.115430e+03
2.051890e+03,3.124381e+03
2.054783e+03,3.086816e+03
2.057676e+03,3.111023e+03
2.060568e+03,3.092351e+03
2.063461e+03,3.105871e+03
2.066354e+03,3.098810e+03
2.069247e+03,3.060678e+03
2.072139e+03,3.057317e+03
2.075032e+03,3.060323e+03
2.077925e+03,3.054859e+03
2.080817e+03,3.045000e+03
2.083710e+03,3.028109e+03
2.086603e+03,3.040524e+03
2.089496e+03,3.035865e+03
2.092388e+03,3.017229e+03
2.095281e+03,3.028128e+03
2.098174e+03,3.036844e+03
2.101066e+03,3.016895e+03
2.103959e+03,3.005542e+03
2.106852e+03,2.986738e+03
2.109744e+03,2.989327e+03
2.112637e+03,3.001040e+03
2.115530e+03,2.952505e+03
2.118422e+03,2.979880e+03
2.121315e+03,2.964292e+03
2.124208e+03,2.987132e+03
2.127101e+03,2.950884e+03
2.129993e+03,2.944202e+03
2.132886e+03,2.964848e+03
2.135779e+03,2.925077e+03
2.138671e+03,2.929812e+03
2.141564e+03,2.904825e+03
2.144457e+03,2.918751e+03
2.147350e+03,2.906309e+03
2.150242e+03,2.897337e+03
2.153135e+03,2.887517e+03
2.156028e+03,2.885679e+03
2.158920e+03,2.883221e+03
2.161813e+03,2.892134e+03
2.164706e+03,2.869710e+03
2.167598e+03,2.842442e+03
2.170491e+03,2.866647e+03
2.173384e+03,2.852952e+03
2.176277e+03,2.856187e+03
2.179169e+03,2.827595e+03
2.182062e+03,2.819697e+03
2.184955e+03,2.815600e+03
2.187847e+03,2.831895e+03
2.190740e+03,2.803640e+03
2.193633e+03,2.797922e+03
2.196525e+03,2.793657e+03
2.199418e+03,2.769738e+03
2.202311e+03,2.788927e+03
2.205204e+03,2.787847e+03
2.208096e+03,2.761098e+03
2.210989e+03,2.745944e+03
2.213882e+03,2.726620e+03
2.216774e+03,2.753874e+03
2.219667e+03,2.741697e+03
2.222560e+03,2.721802e+03
2.225452e+03,2.727277e+03
2.228345e+03,2.715789e+03
2.231238e+03,2.713331e+03
2.234131e+03,2.717477e+03
2.237023e+03,2.699280e+03
2.239916e+03,2.677813e+03
2.242809e+03,2.677454e+03
2.245701e+03,2.676109e+03
2.248594e+03,2.672688e+03
2.251487e+03,2.704571e+03
2.254379e+03,2.680435e+03
2.257272e+03,2.667560e+03
2.260165e+03,2.666312e+03
2.263058e+03,2.642921e+03
2.265950e+03,2.658157e+03
2.268843e+03,2.634656e+03
2.271736e+03,2.614470e+03
2.274628e+03,2.618566e+03
2.277521e+03,2.618617e+03
2.280414e+03,2.600551e+03
2.283306e+03,2.615266e+03
2.286199e+03,2.605268e+03
2.289092e+03,2.586331e+03
2.291985e+03,2.553151e+03
2.294877e+03,2.581748e+03
2.297770e+03,2.568515e+03
2.300663e+03,2.569009e+03
2.303555e+03,2.548207e+03
2.306448e+03,2.524251e+03
2.309341e+03,2.530796e+03
2.312233e+03,2.520483e+03
2.315126e+03,2.514020e+03
2.318019e+03,2.496282e+03
2.320912e+03,2.530550e+03
2.323804e+03,2.487499e+03
2.326697e+03,2.500931e+03
2.329590e+03,2.503406e+03
2.332482e+03,2.472942e+03
2.335375e+03,2.458529e+03
2.338268e+03,2.480240e+03
2.341160e+03,2.451616e+03
2.344053e+03,2.457884e+03
2.346946e+03,2.450384e+03
2.349839e+03,2.443883e+03
2.352731e+03,2.422929e+03
2.355624e+03,2.425666e+03
2.358517e+03,2.422416e+03
2.361409e+03,2.410712e+03
2.364302e+03,2.413974e+03
2.367195e+03,2.399754e+03
2.370087e+03,2.395677e+03
2.372980e+03,2.391508e+03
2.375873e+03,2.381805e+03
2.378766e+03,2.378824e+03
2.381658e+03,2.362411e+03
2.384551e+03,2.360254e+03
2.387444e+03,2.367841e+03
2.390336e+03,2.354136e+03
2.393229e+03,2.359373e+03
2.396122e+03,2.341671e+03
2.399014e+03,2.321318e+03
2.401907e+03,2.328567e+03
2.404800e+03,2.320749e+03
2.407693e+03,2.326191e+03
2.410585e+03,2.320587e+03
2.413478e+03,2.302496e+03
2.416371e+03,2.286527e+03
2.419263e+03,2.303119e+03
2.422156e+03,2.304278e+03
2.425049e+03,2.267065e+03
2.427941e+03,2.250979e+03
2.430834e+03,2.271230e+03
2.433727e+03,2.253955e+03
2.436620e+03,2.267147e+03
2.439512e+03,2.269457e+03
2.442405e+03,2.244984e+03
2.445298e+03,2.247144e+03
2.448190e+03,2.238567e+03
2.451083e+03,2.224201e+03
2.453976e+03,2.224555e+03
2.456868e+03,2.231612e+03
2.459761e+03,2.186640e+03
2.462654e+03,2.195316e+03
2.465547e+03,2.191206e+03
2.468439e+03,2.202576e+03
2.471332e+03,2.192147e+03
2.474225e+03,2.160748e+03
2.477117e+03,2.182186e+03
2.480010e+03,2.169794e+03
2.482903e+03,2.162601e+03
2.485795e+03,2.182877e+03
2.488688e+03,2.165200e+03
2.491581e+03,2.168930e+03
2.494474e+03,2.160726e+03
2.497366e+03,2.135879e+03
2.500259e+03,2.139218e+03
2.503152e+03,2.108560e+03
2.506044e+03,2.135573e+03
2.508937e+03,2.116044e+03
2.511830e+03,2.115222e+03
2.514722e+03,2.104380e+03
2.517615e+03,2.106184e+03
2.520508e+03,2.074493e+03
2.523401e+03,2.100128e+03
2.526293e+03,2.103108e+03
2.529186e+03,2.092462e+03
2.532079e+03,2.077248e+03
2.534971e+03,2.080204e+03
2.537864e+03,2.075788e+03
2.540757e+03,2.050999e+03
2.543649e+03,2.055590e+03
2.546542e+03,2.086301e+03
2.549435e+03,2.075102e+03
2.552328e+03,2.067070e+03
2.555220e+03,2.040967e+03
2.558113e+03,2.061498e+03
2.561006e+03,2.044116e+03
2.563898e+03,2.045120e+03
2.566791e+03,2.044926e+03
2.569684e+03,2.048966e+03
2.572576e+03,2.000317e+03
2.575469e+03,2.034349e+03
2.578362e+03,2.017715e+03
2.581255e+03,1.997868e+03
2.584147e+03,1.978987e+03
2.587040e+03,1.985790e+03
2.589933e+03,1.979988e+03
2.592825e+03,1.988914e+03
2.595718e+03,1.955769e+03
2.598611e+03,1.970740e+03
2.601503e+03,1.969199e+03
2.604396e+03,1.952251e+03
2.607289e+03,1.947379e+03
2.610182e+03,1.953431e+03
2.613074e+03,1.942530e+03
2.615967e+03,1.917668e+03
2.618860e+03,1.934521e+03
2.621752e+03,1.916277e+03
2.624645e+03,1.934738e+03
2.627538e+03,1.917101e+03
2.630430e+03,1.920745e+03
2.633323e+03,1.913211e+03
2.636216e+03,1.934022e+03
2.639109e+03,1.924680e+03
2.642001e+03,1.888477e+03
2.644894e+03,1.920530e+03
2.647787e+03,1.898861e+03
2.650679e+03,1.899805e+03
2.653572e+03,1.894033e+03
2.656465e+03,1.887380e+03
2.659357e+03,1.886874e+03
2.662250e+03,1.874198e+03
2.665143e+03,1.874615e+03
2.668036e+03,1.858986e+03
2.670928e+03,1.879510e+03
2.673821e+03,1.865432e+03
2.676714e+03,1.838133e+03
2.679606e+03,1.866852e+03
2.682499e+03,1.843240e+03
2.685392e+03,1.839804e+03
2.688284e+03,1.840862e+03
2.691177e+03,1.830072e+03
2.694070e+03,1.818544e+03
2.696963e+03,1.829946e+03
2.699855e+03,1.800713e+03
2.702748e+03,1.853467e+03
2.705641e+03,1.813084e+03
2.708533e+03,1.810552e+03
2.711426e+03,1.783543e+03
2.714319e+03,1.791509e+03
2.717211e+03,1.795252e+03
2.720104e+03,1.785423e+03
2.722997e+03,1.798421e+03
2.725890e+03,1.816289e+03
2.728782e+03,1.781612e+03
2.731675e+03,1.766907e+03
2.734568e+03,1.768592e+03
2.737460e+03,1.782299e+03
2.740353e+03,1.773634e+03
2.743246e+03,1.755147e+03
2.746138e+03,1.755843e+03
2.749031e+03,1.787740e+03
2.751924e+03,1.779365e+03
2.754817e+03,1.766485e+03
2.757709e+03,1.769071e+03
2.760602e+03,1.763751e+03
2.763495e+03,1.738158e+03
2.766387e+03,1.745239e+03
2.769280e+03,1.757170e+03
2.772173e+03,1.720968e+03
2.775065e+03,1.755078e+03
2.777958e+03,1.722159e+03
2.780851e+03,1.746354e+03
2.783744e+03,1.714009e+03
2.786636e+03,1.722592e+03
2.789529e+03,1.715560e+03
2.792422e+03,1.701784e+03
2.795314e+03,1.755816e+03
2.798207e+03,1.688665e+03
2.801100e+03,1.726772e+03
2.803992e+03,1.713097e+03
2.806885e+03,1.710485e+03
2.809778e+03,1.686084e+03
2.812671e+03,1.691787e+03
2.815563e+03,1.686962e+03
2.818456e+03,1.705384e+03
2.821349e+03,1.680821e+03
2.824241e+03,1.657169e+03
2.827134e+03,1.654850e+03
2.830027e+03,1.692168e+03
2.832919e+03,1.660361e+03
2.835812e+03,1.686069e+03
2.838705e+03,1.659537e+03
2.841598e+03,1.689387e+03
2.844490e+03,1.660150e+03
2.847383e+03,1.655528e+03
2.850276e+03,1.650471e+03
2.853168e+03,1.651265e+03
2.856061e+03,1.638743e+03
2.858954e+03,1.629781e+03
2.861846e+03,1.673167e+03
2.864739e+03,1.689293e+03
2.867632e+03,1.642948e+03
2.870525e+03,1.659471e+03
2.873417e+03,1.646248e+03
2.876310e+03,1.663428e+03
2.879203e+03,1.656660e+03
2.882095e+03,1.639932e+03
2.884988e+03,1.651895e+03
2.887881e+03,1.650011e+03
2.890773e+03,1.623420e+03
2.893666e+03,1.617332e+03
2.896559e+03,1.627870e+03
2.899452e+03,1.627738e+03
2.902344e+03,1.625776e+03
2.905237e+03,1.624656e+03
2.908130e+03,1.629899e+03
2.911022e+03,1.618555e+03
2.913915e+03,1.627771e+03
2.916808e+03,1.608387e+03
2.919700e+03,1.599411e+03
2.922593e+03,1.602830e+03
2.925486e+03,1.568485e+03
2.928379e+03,1.589309e+03
2.931271e+03,1.559966e+03
2.934164e+03,1.581502e+03
2.937057e+03,1.569817e+03
2.939949e+03,1.556947e+03
2.942842e+03,1.569335e+03
2.945735e+03,1.543004e+03
2.948627e+03,1.532297e+03
2.951520e+03,1.572932e+03
2.954413e+03,1.562849e+03
2.957306e+03,1.587407e+03
2.960198e+03,1.526174e+03
2.963091e+03,1.559572e+03
2.965984e+03,1.552742e+03
2.968876e+03,1.511691e+03
2.971769e+03,1.544266e+03
2.974662e+03,1.555677e+03
2.977554e+03,1.543032e+03
2.980447e+03,1.547880e+03
2.983340e+03,1.519717e+03
2.986233e+03,1.539859e+03
2.989125e+03,1.486426e+03
2.992018e+03,1.484739e+03
2.994911e+03,1.499621e+03
2.997803e+03,1.522047e+03
3.000696e+03,1.492323e+03
3.003589e+03,1.481326e+03
3.006481e+03,1.496875e+03
3.009374e+03,1.501485e+03
3.012267e+03,1.514642e+03
3.015160e+03,1.479621e+03
3.018052e+03,1.518453e+03
3.020945e+03,1.518351e+03
3.023838e+03,1.496648e+03
3.026730e+03,1.459516e+03
3.029623e+03,1.522334e+03
3.032516e+03,1.484850e+03
3.035408e+03,1.473856e+03
3.038301e+03,1.488790e+03
3.041194e+03,1.473892e+03
3.044087e+03,1.436101e+03
3.046979e+03,1.501873e+03
3.049872e+03,1.440187e+03
3.052765e+03,1.469759e+03
3.055657e+03,1.484906e+03
3.058550e+03,1.474549e+03
3.061443e+03,1.463542e+03
3.064335e+03,1.447434e+03
3.067228e+03,1.429747e+03
3.070121e+03,1.442944e+03
3.073014e+03,1.438814e+03
3.075906e+03,1.462484e+03
3.078799e+03,1.423326e+03
3.081692e+03,1.437949e+03
3.084584e+03,1.412385e+03
3.087477e+03,1.470466e+03
3.090370e+03,1.429730e+03
3.093262e+03,1.424626e+03
3.096155e+03,1.420707e+03
3.099048e+03,1.419272e+03
3.101941e+03,1.504795e+03
3.104833e+03,1.424040e+03
3.107726e+03,1.404312e+03
3.110619e+03,1.426020e+03
3.113511e+03,1.393252e+03
3.116404e+03,1.443926e+03
3.119297e+03,1.412080e+03
3.122189e+03,1.406714e+03
3.125082e+03,1.388920e+03
3.127975e+03,1.434679e+03
3.130868e+03,1.418596e+03
3.133760e+03,1.434926e+03
3.136653e+03,1.459039e+03
3.139546e+03,1.450162e+03
3.142438e+03,1.444883e+03
3.145331e+03,1.397823e+03
3.148224e+03,1.385193e+03
3.151116e+03,1.407758e+03
3.154009e+03,1.421766e+03
3.156902e+03,1.377065e+03
3.159795e+03,1.416845e+03
3.162687e+03,1.412832e+03
3.165580e+03,1.418565e+03
3.168473e+03,1.414996e+03
3.171365e+03,1.359646e+03
3.174258e+03,1.473616e+03
3.177151e+03,1.438718e+03
3.180043e+03,1.404890e+03
3.182936e+03,1.418832e+03
3.185829e+03,1.469611e+03
3.188722e+03,1.381199e+03
3.191614e+03,1.425418e+03
3.194507e+03,1.414692e+03
3.197400e+03,1.399020e+03
3.200292e+03,1.410458e+03
3.203185e+03,0.000000e+00
3.206078e+03,0.000000e+00
3.208970e+03,0.000000e+00
3.211863e+03,0.000000e+00
3.214756e+03,0.000000e+00
3.217649e+03,0.000000e+00
3.220541e+03,0.000000e+00
3.223434e+03,0.000000e+00
3.226327e+03,0.000000e+00
3.229219e+03,0.000000e+00
3.232112e+03,0.000000e+00
3.235005e+03,0.000000e+00
3.237897e+03,0.000000e+00
3.240790e+03,0.000000e+00
3.243683e+03,0.000000e+00
3.246576e+03,0.000000e+00
3.249468e+03,0.000000e+00
3.252361e+03,0.000000e+00
3.255254e+03,0.000000e+00
3.258146e+03,0.000000e+00
3.261039e+03,0.000000e+00
3.263932e+03,0.000000e+00
3.266824e+03,0.000000e+00
3.269717e+03,0.000000e+00
3.272610e+03,0.000000e+00
3.275503e+03,0.000000e+00
3.278395e+03,0.000000e+00
3.281288e+03,0.000000e+00
3.284181e+03,0.000000e+00
3.287073e+03,0.000000e+00
3.289966e+03,0.000000e+00
3.292859e+03,0.000000e+00
3.295751e+03,0.000000e+00
3.298644e+03,0.000000e+00
3.301537e+03,0.000000e+00
3.304430e+03,0.000000e+00
3.307322e+03,0.000000e+00
3.310215e+03,0.000000e+00
3.313108e+03,0.000000e+00
3.316000e+03,0.000000e+00
3.318893e+03,0.000000e+00
3.321786e+03,0.000000e+00
3.324678e+03,0.000000e+00
3.327571e+03,0.000000e+00
3.330464e+03,0.000000e+00
3.333357e+03,0.000000e+00
3.336249e+03,0.000000e+00
3.339142e+03,0.000000e+00
3.342035e+03,0.000000e+00
3.344927e+03,0.000000e+00
3.347820e+03,0.000000e+00
3.350713e+03,0.000000e+00
3.353605e+03,0.000000e+00
3.356498e+03,0.000000e+00
3.359391e+03,0.000000e+00
3.362284e+03,0.000000e+00
3.365176e+03,0.000000e+00
3.368069e+03,0.000000e+00
3.370962e+03,0.000000e+00
3.373854e+03,0.000000e+00
3.376747e+03,0.000000e+00
3.379640e+03,0.000000e+00
3.382532e+03,0.000000e+00
3.385425e+03,0.000000e+00
3.388318e+03,0.000000e+00
3.391211e+03,0.000000e+00
3.394103e+03,0.000000e+00
3.396996e+03,0.000000e+00
3.399889e+03,0.000000e+00
3.402781e+03,0.000000e+00
3.405674e+03,0.000000e+00
3.408567e+03,0.000000e+00
3.411459e+03,0.000000e+00
3.414352e+03,0.000000e+00
3.417245e+03,0.000000e+00
3.420138e+03,0.000000e+00
3.423030e+03,0.000000e+00
3.425923e+03,0.000000e+00
3.428816e+03,0.000000e+00
3.431708e+03,0.000000e+00
3.434601e+03,0.000000e+00
3.437494e+03,0.000000e+00
3.440386e+03,0.000000e+00
3.443279e+03,0.000000e+00
3.446172e+03,0.000000e+00
3.449065e+03,0.000000e+00
3.451957e+03,0.000000e+00
3.454850e+03,0.000000e+00
3.457743e+03,0.000000e+00
3.460635e+03,0.000000e+00
3.463528e+03,0.000000e+00
3.466421e+03,0.000000e+00
3.469313e+03,0.000000e+00
3.472206e+03,0.000000e+00
3.475099e+03,0.000000e+00
3.477992e+03,0.000000e+00
3.480884e+03,0.000000e+00
3.483777e+03,0.000000e+00
3.486670e+03,0.000000e+00
3.489563e+03,0.000000e+00
3.492455e+03,0.000000e+00
3.495348e+03,0.000000e+00
3.498240e+03,0.000000e+00
3.500169e+03,0.000000e+00