File: RAMAN_data/13112023_r1/black fibre4.CSV
9.931763e+01,0.000000e+00
1.022103e+02,0.000000e+00
1.051030e+02,0.000000e+00
1.079957e+02,0.000000e+00
1.108884e+02,0.000000e+00
1.137811e+02,0.000000e+00
1.166738e+02,0.000000e+00
1.195665e+02,0.000000e+00
1.224592e+02,0.000000e+00
1.253519e+02,0.000000e+00
1.282446e+02,0.000000e+00
1.311373e+02,0.000000e+00
1.340300e+02,0.000000e+00
1.369227e+02,0.000000e+00
1.398154e+02,0.000000e+00
1.427081e+02,0.000000e+00
1.456008e+02,0.000000e+00
1.484935e+02,0.000000e+00
1.513862e+02,0.000000e+00
1.542789e+02,0.000000e+00
1.571716e+02,0.000000e+00
1.600643e+02,0.000000e+00
1.629570e+02,0.000000e+00
1.658497e+02,0.000000e+00
1.687424e+02,0.000000e+00
1.716351e+02,0.000000e+00
1.745278e+02,0.000000e+00
1.774205e+02,0.000000e+00
1.803132e+02,0.000000e+00
1.832059e+02,0.000000e+00
1.860986e+02,0.000000e+00
1.889913e+02,0.000000e+00
1.918840e+02,0.000000e+00
1.947767e+02,0.000000e+00
1.976694e+02,0.000000e+00
2.005621e+02,1.047981e+04
2.034548e+02,1.052034e+04
2.063475e+02,1.054905e+04
2.092402e+02,1.055023e+04
2.121329e+02,1.055114e+04
2.150256e+02,1.057994e+04
2.179183e+02,1.060919e+04
2.208110e+02,1.066058e+04
2.237037e+02,1.067718e+04
2.265964e+02,1.068749e+04
2.294892e+02,1.071674e+04
2.323819e+02,1.076485e+04
2.352746e+02,1.080180e+04
2.381673e+02,1.083688e+04
2.410600e+02,1.083374e+04
2.439527e+02,1.085114e+04
2.468454e+02,1.088743e+04
2.497381e+02,1.092293e+04
2.526308e+02,1.095972e+04
2.555235e+02,1.097477e+04
2.584161e+02,1.097703e+04
2.613088e+02,1.102010e+04
2.642015e+02,1.107264e+04
2.670942e+02,1.109793e+04
2.699869e+02,1.113241e+04
2.728796e+02,1.114520e+04
2.757723e+02,1.118599e+04
2.786650e+02,1.122956e+04
2.815577e+02,1.125743e+04
2.844504e+02,1.128402e+04
2.873431e+02,1.129060e+04
2.902358e+02,1.131700e+04
2.931285e+02,1.134644e+04
2.960212e+02,1.139113e+04
2.989139e+02,1.141448e+04
3.018066e+02,1.143413e+04
3.046993e+02,1.146692e+04
3.075920e+02,1.148884e+04
3.104847e+02,1.152890e+04
3.133774e+02,1.157925e+04
3.162701e+02,1.159601e+04
3.191628e+02,1.160888e+04
3.220555e+02,1.164175e+04
3.249482e+02,1.168424e+04
3.278409e+02,1.172364e+04
3.307336e+02,1.175929e+04
3.336263e+02,1.178546e+04
3.365190e+02,1.179593e+04
3.394117e+02,1.184477e+04
3.423044e+02,1.189110e+04
3.451971e+02,1.195065e+04
3.480898e+02,1.197636e+04
3.509825e+02,1.198931e+04
3.538752e+02,1.203903e+04
3.567680e+02,1.208796e+04
3.596607e+02,1.212734e+04
3.625534e+02,1.216518e+04
3.654461e+02,1.215143e+04
3.683388e+02,1.217766e+04
3.712315e+02,1.224066e+04
3.741242e+02,1.227460e+04
3.770169e+02,1.231209e+04
3.799096e+02,1.235504e+04
3.828023e+02,1.237077e+04
3.856950e+02,1.241141e+04
3.885877e+02,1.246715e+04
3.914804e+02,1.251785e+04
3.943731e+02,1.254676e+04
3.972658e+02,1.256984e+04
4.001585e+02,1.258653e+04
4.030512e+02,1.263860e+04
4.059439e+02,1.265197e+04
4.088366e+02,1.266040e+04
4.117293e+02,1.267844e+04
4.146220e+02,1.271696e+04
4.175147e+02,1.272790e+04
4.204074e+02,1.276549e+04
4.233001e+02,1.278053e+04
4.261928e+02,1.278866e+04
4.290855e+02,1.280172e+04
4.319782e+02,1.284297e+04
4.348709e+02,1.288537e+04
4.377636e+02,1.289697e+04
4.406563e+02,1.292823e+04
4.435490e+02,1.297178e+04
4.464417e+02,1.298831e+04
4.493344e+02,1.301869e+04
4.522271e+02,1.302800e+04
4.551198e+02,1.304032e+04
4.580125e+02,1.304035e+04
4.609052e+02,1.305542e+04
4.637979e+02,1.307924e+04
4.666906e+02,1.307304e+04
4.695833e+02,1.310159e+04
4.724760e+02,1.309439e+04
4.753687e+02,1.310630e+04
4.782614e+02,1.311149e+04
4.811541e+02,1.314698e+04
4.840468e+02,1.319487e+04
4.869395e+02,1.321111e+04
4.898322e+02,1.318686e+04
4.927249e+02,1.318878e+04
4.956176e+02,1.320677e+04
4.985103e+02,1.319026e+04
5.014030e+02,1.316528e+04
5.042957e+02,1.316454e+04
5.071884e+02,1.315645e+04
5.100811e+02,1.314758e+04
5.129738e+02,1.314803e+04
5.158665e+02,1.315240e+04
5.187592e+02,1.316076e+04
5.216519e+02,1.316431e+04
5.245446e+02,1.317816e+04
5.274373e+02,1.317985e+04
5.303300e+02,1.317475e+04
5.332227e+02,1.315396e+04
5.361154e+02,1.312555e+04
5.390081e+02,1.314591e+04
5.419008e+02,1.318281e+04
5.447935e+02,1.316309e+04
5.476862e+02,1.320467e+04
5.505789e+02,1.312939e+04
5.534716e+02,1.308984e+04
5.563643e+02,1.309172e+04
5.592570e+02,1.309105e+04
5.621497e+02,1.308740e+04
5.650424e+02,1.310679e+04
5.679351e+02,1.304485e+04
5.708278e+02,1.301996e+04
5.737205e+02,1.301971e+04
5.766132e+02,1.303800e+04
5.795059e+02,1.304633e+04
5.823986e+02,1.301599e+04
5.852913e+02,1.300030e+04
5.881840e+02,1.297811e+04
5.910767e+02,1.298227e+04
5.939694e+02,1.299335e+04
5.968621e+02,1.297792e+04
5.997548e+02,1.297582e+04
6.026475e+02,1.293234e+04
6.055402e+02,1.294932e+04
6.084329e+02,1.292408e+04
6.113256e+02,1.293140e+04
6.142183e+02,1.287915e+04
6.171110e+02,1.279964e+04
6.200037e+02,1.286163e+04
6.228964e+02,1.283260e+04
6.257891e+02,1.287167e+04
6.286818e+02,1.281945e+04
6.315745e+02,1.278395e+04
6.344672e+02,1.278782e+04
6.373599e+02,1.277446e+04
6.402526e+02,1.275956e+04
6.431453e+02,1.273241e+04
6.460380e+02,1.270740e+04
6.489307e+02,1.270291e+04
6.518234e+02,1.268556e+04
6.547161e+02,1.268126e+04
6.576088e+02,1.266552e+04
6.605015e+02,1.260154e+04
6.633942e+02,1.259970e+04
6.662869e+02,1.263176e+04
6.691796e+02,1.262498e+04
6.720723e+02,1.259370e+04
6.749650e+02,1.256459e+04
6.778577e+02,1.250997e+04
6.807504e+02,1.249831e+04
6.836431e+02,1.250677e+04
6.865358e+02,1.248038e+04
6.894285e+02,1.243310e+04
6.923212e+02,1.241173e+04
6.952139e+02,1.241510e+04
6.981066e+02,1.242727e+04
7.009993e+02,1.237393e+04
7.038920e+02,1.237359e+04
7.067847e+02,1.236048e+04
7.096774e+02,1.235656e+04
7.125701e+02,1.229692e+04
7.154628e+02,1.231070e+04
7.183555e+02,1.234678e+04
7.212482e+02,1.227035e+04
7.241409e+02,1.226400e+04
7.270336e+02,1.221242e+04
7.299263e+02,1.218758e+04
7.328190e+02,1.217525e+04
7.357117e+02,1.217150e+04
7.386044e+02,1.216108e+04
7.414971e+02,1.213427e+04
7.443898e+02,1.211837e+04
7.472825e+02,1.216208e+04
7.501752e+02,1.208202e+04
7.530679e+02,1.209001e+04
7.559606e+02,1.204642e+04
7.588533e+02,1.203679e+04
7.617460e+02,1.204886e+04
7.646387e+02,1.204550e+04
7.675314e+02,1.201051e+04
7.704241e+02,1.194359e+04
7.733168e+02,1.192737e+04
7.762095e+02,1.196389e+04
7.791022e+02,1.195704e+04
7.819949e+02,1.187176e+04
7.848876e+02,1.188878e+04
7.877803e+02,1.188542e+04
7.906730e+02,1.182445e+04
7.935657e+02,1.187340e+04
7.964584e+02,1.180873e+04
7.993511e+02,1.182175e+04
8.022438e+02,1.178215e+04
8.051365e+02,1.175910e+04
8.080292e+02,1.175553e+04
8.109219e+02,1.171948e+04
8.138146e+02,1.173386e+04
8.167073e+02,1.169690e+04
8.196000e+02,1.170405e+04
8.224927e+02,1.170959e+04
8.253854e+02,1.164518e+04
8.282781e+02,1.168714e+04
8.311708e+02,1.161019e+04
8.340635e+02,1.161460e+04
8.369562e+02,1.160667e+04
8.398489e+02,1.162113e+04
8.427416e+02,1.158625e+04
8.456343e+02,1.154168e+04
8.485270e+02,1.152185e+04
8.514197e+02,1.151002e+04
8.543124e+02,1.151445e+04
8.572051e+02,1.144162e+04
8.600978e+02,1.144105e+04
8.629905e+02,1.139511e+04
8.658832e+02,1.140911e+04
8.687759e+02,1.139471e+04
8.716686e+02,1.139377e+04
8.745613e+02,1.135543e+04
8.774540e+02,1.133177e+04
8.803467e+02,1.132195e+04
8.832394e+02,1.128312e+04
8.861321e+02,1.132621e+04
8.890248e+02,1.130091e+04
8.919175e+02,1.127542e+04
8.948102e+02,1.123308e+04
8.977029e+02,1.123507e+04
9.005956e+02,1.124541e+04
9.034883e+02,1.117112e+04
9.063810e+02,1.117297e+04
9.092737e+02,1.114283e+04
9.121664e+02,1.112833e+04
9.150591e+02,1.109817e+04
9.179518e+02,1.111026e+04
9.208445e+02,1.107041e+04
9.237372e+02,1.106610e+04
9.266299e+02,1.104387e+04
9.295226e+02,1.104838e+04
9.324153e+02,1.103271e+04
9.353080e+02,1.098036e+04
9.382007e+02,1.094958e+04
9.410934e+02,1.092269e+04
9.439861e+02,1.092350e+04
9.468788e+02,1.090553e+04
9.497715e+02,1.088138e+04
9.526642e+02,1.085696e+04
9.555569e+02,1.082402e+04
9.584496e+02,1.077771e+04
9.613423e+02,1.082775e+04
9.642350e+02,1.077027e+04
9.671277e+02,1.078666e+04
9.700204e+02,1.076697e+04
9.729131e+02,1.071482e+04
9.758058e+02,1.072915e+04
9.786985e+02,1.072445e+04
9.815912e+02,1.068522e+04
9.844839e+02,1.060716e+04
9.873766e+02,1.061435e+04
9.902693e+02,1.063315e+04
9.931620e+02,1.063510e+04
9.960547e+02,1.063441e+04
9.989474e+02,1.062153e+04
1.001840e+03,1.057395e+04
1.004733e+03,1.058604e+04
1.007626e+03,1.057236e+04
1.010518e+03,1.058995e+04
1.013411e+03,1.052664e+04
1.016304e+03,1.048644e+04
1.019196e+03,1.047095e+04
1.022089e+03,1.047498e+04
1.024982e+03,1.046652e+04
1.027875e+03,1.045089e+04
1.030767e+03,1.042394e+04
1.033660e+03,1.041752e+04
1.036552e+03,1.042178e+04
1.039445e+03,1.041014e+04
1.042338e+03,1.037270e+04
1.045231e+03,1.036766e+04
1.048123e+03,1.032377e+04
1.051016e+03,1.032932e+04
1.053909e+03,1.035865e+04
1.056802e+03,1.032847e+04
1.059694e+03,1.027857e+04
1.062587e+03,1.026638e+04
1.065479e+03,1.023680e+04
1.068372e+03,1.023213e+04
1.071265e+03,1.025386e+04
1.074158e+03,1.024003e+04
1.077050e+03,1.021402e+04
1.079943e+03,1.015781e+04
1.082836e+03,1.021109e+04
1.085729e+03,1.019442e+04
1.088621e+03,1.023188e+04
1.091514e+03,1.018025e+04
1.094406e+03,1.012283e+04
1.097299e+03,1.012154e+04
1.100192e+03,1.011144e+04
1.103085e+03,1.009785e+04
1.105977e+03,1.008021e+04
1.108870e+03,1.007473e+04
1.111763e+03,1.011822e+04
1.114656e+03,1.010135e+04
1.117548e+03,1.009917e+04
1.120441e+03,1.007646e+04
1.123334e+03,1.009647e+04
1.126226e+03,1.008002e+04
1.129119e+03,1.006368e+04
1.132012e+03,1.008383e+04
1.134904e+03,1.006748e+04
1.137797e+03,9.974167e+03
1.140690e+03,9.970667e+03
1.143583e+03,1.001890e+04
1.146475e+03,9.999799e+03
1.149368e+03,9.964356e+03
1.152261e+03,1.000359e+04
1.155153e+03,9.964556e+03
1.158046e+03,9.911928e+03
1.160939e+03,9.894890e+03
1.163831e+03,9.870155e+03
1.166724e+03,9.821635e+03
1.169617e+03,9.820099e+03
1.172510e+03,9.805946e+03
1.175402e+03,9.786403e+03
1.178295e+03,9.790007e+03
1.181188e+03,9.855376e+03
1.184080e+03,9.792359e+03
1.186973e+03,9.759818e+03
1.189866e+03,9.760842e+03
1.192758e+03,9.736287e+03
1.195651e+03,9.740966e+03
1.198544e+03,9.701303e+03
1.201437e+03,9.666926e+03
1.204329e+03,9.675141e+03
1.207222e+03,9.650267e+03
1.210115e+03,9.665016e+03
1.213007e+03,9.685516e+03
1.215900e+03,9.669819e+03
1.218793e+03,9.635533e+03
1.221685e+03,9.620900e+03
1.224578e+03,9.621813e+03
1.227471e+03,9.622396e+03
1.230364e+03,9.573112e+03
1.233256e+03,9.556071e+03
1.236149e+03,9.565265e+03
1.239042e+03,9.563044e+03
1.241934e+03,9.540976e+03
1.244827e+03,9.573584e+03
1.247720e+03,9.541422e+03
1.250612e+03,9.497491e+03
1.253505e+03,9.504964e+03
1.256398e+03,9.522997e+03
1.259291e+03,9.497442e+03
1.262183e+03,9.470604e+03
1.265076e+03,9.449454e+03
1.267969e+03,9.489280e+03
1.270861e+03,9.484098e+03
1.273754e+03,9.475116e+03
1.276647e+03,9.512554e+03
1.279539e+03,9.485221e+03
1.282432e+03,9.478505e+03
1.285325e+03,9.441638e+03
1.288218e+03,9.457313e+03
1.291110e+03,9.371672e+03
1.294003e+03,9.353752e+03
1.296896e+03,9.333112e+03
1.299788e+03,9.292733e+03
1.302681e+03,9.292905e+03
1.305574e+03,9.304021e+03
1.308466e+03,9.277389e+03
1.311359e+03,9.250887e+03
1.314252e+03,9.223999e+03
1.317145e+03,9.234828e+03
1.320037e+03,9.262757e+03
1.322930e+03,9.211557e+03
1.325823e+03,9.200419e+03
1.328715e+03,9.162893e+03
1.331608e+03,9.215346e+03
1.334501e+03,9.233516e+03
1.337393e+03,9.209094e+03
1.340286e+03,9.213625e+03
1.343179e+03,9.210935e+03
1.346072e+03,9.204014e+03
1.348964e+03,9.175710e+03
1.351857e+03,9.168503e+03
1.354750e+03,9.162871e+03
1.357642e+03,9.130462e+03
1.360535e+03,9.127353e+03
1.363428e+03,9.102161e+03
1.366320e+03,9.133600e+03
1.369213e+03,9.099295e+03
1.372106e+03,9.063451e+03
1.374999e+03,9.029849e+03
1.377891e+03,9.038902e+03
1.380784e+03,9.055971e+03
1.383677e+03,9.005608e+03
1.386569e+03,8.981743e+03
1.389462e+03,8.970025e+03
1.392355e+03,8.943706e+03
1.395247e+03,8.924437e+03
1.398140e+03,8.948073e+03
1.401033e+03,8.918935e+03
1.403926e+03,8.911670e+03
1.406818e+03,8.922053e+03
1.409711e+03,8.929143e+03
1.412604e+03,8.866872e+03
1.415496e+03,8.865771e+03
1.418389e+03,8.857056e+03
1.421282e+03,8.852313e+03
1.424174e+03,8.828348e+03
1.427067e+03,8.784761e+03
1.429960e+03,8.766423e+03
1.432853e+03,8.771194e+03
1.435745e+03,8.730686e+03
1.438638e+03,8.710310e+03
1.441531e+03,8.715752e+03
1.444423e+03,8.670618e+03
1.447316e+03,8.689958e+03
1.450209e+03,8.660893e+03
1.453101e+03,8.645009e+03
1.455994e+03,8.658049e+03
1.458887e+03,8.638788e+03
1.461780e+03,8.656482e+03
1.464672e+03,8.616896e+03
1.467565e+03,8.595444e+03
1.470458e+03,8.589998e+03
1.473350e+03,8.579868e+03
1.476243e+03,8.586223e+03
1.479136e+03,8.565260e+03
1.482028e+03,8.531251e+03
1.484921e+03,8.542661e+03
1.487814e+03,8.571642e+03
1.490707e+03,8.541857e+03
1.493599e+03,8.527099e+03
1.496492e+03,8.514552e+03
1.499385e+03,8.489622e+03
1.502277e+03,8.481467e+03
1.505170e+03,8.477429e+03
1.508063e+03,8.419551e+03
1.510955e+03,8.419175e+03
1.513848e+03,8.389044e+03
1.516741e+03,8.393826e+03
1.519634e+03,8.389181e+03
1.522526e+03,8.369184e+03
1.525419e+03,8.357721e+03
1.528312e+03,8.308235e+03
1.531204e+03,8.307354e+03
1.534097e+03,8.321385e+03
1.536990e+03,8.317253e+03
1.539882e+03,8.302098e+03
1.542775e+03,8.274763e+03
1.545668e+03,8.273789e+03
1.548561e+03,8.283227e+03
1.551453e+03,8.282539e+03
1.554346e+03,8.262338e+03
1.557239e+03,8.256718e+03
1.560131e+03,8.267475e+03
1.563024e+03,8.203336e+03
1.565917e+03,8.241660e+03
1.568809e+03,8.239216e+03
1.571702e+03,8.224047e+03
1.574595e+03,8.216746e+03
1.577488e+03,8.220695e+03
1.580380e+03,8.203983e+03
1.583273e+03,8.204059e+03
1.586166e+03,8.197746e+03
1.589058e+03,8.186870e+03
1.591951e+03,8.146623e+03
1.594844e+03,8.128283e+03
1.597736e+03,8.059689e+03
1.600629e+03,8.073312e+03
1.603522e+03,8.043296e+03
1.606415e+03,8.020770e+03
1.609307e+03,8.006786e+03
1.612200e+03,7.986960e+03
1.615093e+03,7.954144e+03
1.617985e+03,7.945773e+03
1.620878e+03,7.919475e+03
1.623771e+03,7.896459e+03
1.626663e+03,7.914990e+03
1.629556e+03,7.871697e+03
1.632449e+03,7.876427e+03
1.635342e+03,7.844601e+03
1.638234e+03,7.809787e+03
1.641127e+03,7.791295e+03
1.644020e+03,7.805808e+03
1.646912e+03,7.766569e+03
1.649805e+03,7.764117e+03
1.652698e+03,7.749849e+03
1.655590e+03,7.706687e+03
1.658483e+03,7.720405e+03
1.661376e+03,7.678427e+03
1.664269e+03,7.682581e+03
1.667161e+03,7.653957e+03
1.670054e+03,7.650842e+03
1.672947e+03,7.605142e+03
1.675839e+03,7.644337e+03
1.678732e+03,7.636538e+03
1.681625e+03,7.587078e+03
1.684517e+03,7.552693e+03
1.687410e+03,7.556557e+03
1.690303e+03,7.545777e+03
1.693196e+03,7.555010e+03
1.696088e+03,7.510583e+03
1.698981e+03,7.488208e+03
1.701874e+03,7.475398e+03
1.704766e+03,7.474521e+03
1.707659e+03,7.471433e+03
1.710552e+03,7.443859e+03
1.713444e+03,7.385862e+03
1.716337e+03,7.392569e+03
1.719230e+03,7.348581e+03
1.722123e+03,7.409524e+03
1.725015e+03,7.361313e+03
1.727908e+03,7.296390e+03
1.730801e+03,7.319665e+03
1.733693e+03,7.316933e+03
1.736586e+03,7.314501e+03
1.739479e+03,7.287614e+03
1.742371e+03,7.265999e+03
1.745264e+03,7.243889e+03
1.748157e+03,7.232793e+03
1.751050e+03,7.204354e+03
1.753942e+03,7.241597e+03
1.756835e+03,7.195924e+03
1.759728e+03,7.166154e+03
1.762620e+03,7.146569e+03
1.765513e+03,7.183109e+03
1.768406e+03,7.105625e+03
1.771298e+03,7.108366e+03
1.774191e+03,7.091490e+03
1.777084e+03,7.123429e+03
1.779977e+03,7.041287e+03
1.782869e+03,7.061892e+03
1.785762e+03,7.050166e+03
1.788655e+03,7.001116e+03
1.791547e+03,6.966275e+03
1.794440e+03,6.964432e+03
1.797333e+03,7.006762e+03
1.800225e+03,6.982889e+03
1.803118e+03,6.958729e+03
1.806011e+03,6.911786e+03
1.808904e+03,6.903682e+03
1.811796e+03,6.878818e+03
1.814689e+03,6.890615e+03
1.817582e+03,6.873245e+03
1.820474e+03,6.831998e+03
1.823367e+03,6.811320e+03
1.826260e+03,6.799881e+03
1.829152e+03,6.794432e+03
1.832045e+03,6.796868e+03
1.834938e+03,6.766381e+03
1.837831e+03,6.776338e+03
1.840723e+03,6.731849e+03
1.843616e+03,6.747476e+03
1.846509e+03,6.745948e+03
1.849401e+03,6.705851e+03
1.852294e+03,6.659970e+03
1.855187e+03,6.692938e+03
1.858079e+03,6.644816e+03
1.860972e+03,6.618592e+03
1.863865e+03,6.639061e+03
1.866758e+03,6.594061e+03
1.869650e+03,6.550245e+03
1.872543e+03,6.555531e+03
1.875436e+03,6.566979e+03
1.878328e+03,6.558779e+03
1.881221e+03,6.495708e+03
1.884114e+03,6.496457e+03
1.887006e+03,6.491341e+03
1.889899e+03,6.466376e+03
1.892792e+03,6.463458e+03
1.895685e+03,6.421008e+03
1.898577e+03,6.424206e+03
1.901470e+03,6.404541e+03
1.904363e+03,6.385532e+03
1.907255e+03,6.344740e+03
1.910148e+03,6.369997e+03
1.913041e+03,6.347294e+03
1.915933e+03,6.306291e+03
1.918826e+03,6.299080e+03
1.921719e+03,6.273469e+03
1.924612e+03,6.278351e+03
1.927504e+03,6.293369e+03
1.930397e+03,6.242806e+03
1.933290e+03,6.200250e+03
1.936182e+03,6.227976e+03
1.939075e+03,6.183050e+03
1.941968e+03,6.159618e+03
1.944860e+03,6.127144e+03
1.947753e+03,6.123119e+03
1.950646e+03,6.122548e+03
1.953539e+03,6.137823e+03
1.956431e+03,6.122269e+03
1.959324e+03,6.080760e+03
1.962217e+03,6.068594e+03
1.965109e+03,6.068338e+03
1.968002e+03,6.076558e+03
1.970895e+03,6.031667e+03
1.973787e+03,6.001794e+03
1.976680e+03,6.034945e+03
1.979573e+03,5.965297e+03
1.982466e+03,5.938758e+03
1.985358e+03,5.962210e+03
1.988251e+03,5.940722e+03
1.991144e+03,5.868702e+03
1.994036e+03,5.902594e+03
1.996929e+03,5.898226e+03
1.999822e+03,5.868375e+03
2.002714e+03,5.829381e+03
2.005607e+03,5.819149e+03
2.008500e+03,5.822708e+03
2.011393e+03,5.756976e+03
2.014285e+03,5.790585e+03
2.017178e+03,5.754960e+03
2.020071e+03,5.731308e+03
2.022963e+03,5.716952e+03
2.025856e+03,5.677722e+03
2.028749e+03,5.653890e+03
2.031641e+03,5.711275e+03
2.034534e+03,5.678062e+03
2.037427e+03,5.651067e+03
2.040320e+03,5.600113e+03
2.043212e+03,5.626162e+03
2.046105e+03,5.612290e+03
2.048998e+03,5.592619e+03
2.051890e+03,5.574913e+03
2.054783e+03,5.536519e+03
2.057676e+03,5.521416e+03
2.060568e+03,5.513804e+03
2.063461e+03,5.506219e+03
2.066354e+03,5.459867e+03
2.069247e+03,5.467010e+03
2.072139e+03,5.440862e+03
2.075032e+03,5.431195e+03
2.077925e+03,5.423394e+03
2.080817e+03,5.448038e+03
2.083710e+03,5.390134e+03
2.086603e+03,5.364502e+03
2.089496e+03,5.398615e+03
2.092388e+03,5.360241e+03
2.095281e+03,5.360372e+03
2.098174e+03,5.354313e+03
2.101066e+03,5.311808e+03
2.103959e+03,5.299753e+03
2.106852e+03,5.326704e+03
2.109744e+03,5.270707e+03
2.112637e+03,5.261611e+03
2.115530e+03,5.226072e+03
2.118422e+03,5.183631e+03
2.121315e+03,5.231869e+03
2.124208e+03,5.212569e+03
2.127101e+03,5.169765e+03
2.129993e+03,5.131074e+03
2.132886e+03,5.143587e+03
2.135779e+03,5.145060e+03
2.138671e+03,5.101546e+03
2.141564e+03,5.065572e+03
2.144457e+03,5.050983e+03
2.147350e+03,5.040010e+03
2.150242e+03,5.044712e+03
2.153135e+03,5.042995e+03
2.156028e+03,5.029230e+03
2.158920e+03,5.021234e+03
2.161813e+03,5.023389e+03
2.164706e+03,4.958279e+03
2.167598e+03,4.982979e+03
2.170491e+03,4.949152e+03
2.173384e+03,4.953034e+03
2.176277e+03,4.932623e+03
2.179169e+03,4.868073e+03
2.182062e+03,4.902043e+03
2.184955e+03,4.872457e+03
2.187847e+03,4.861400e+03
2.190740e+03,4.865921e+03
2.193633e+03,4.832481e+03
2.196525e+03,4.839548e+03
2.199418e+03,4.823603e+03
2.202311e+03,4.821636e+03
2.205204e+03,4.801218e+03
2.208096e+03,4.774287e+03
2.210989e+03,4.758755e+03
2.213882e+03,4.725114e+03
2.216774e+03,4.727452e+03
2.219667e+03,4.729727e+03
2.222560e+03,4.709060e+03
2.225452e+03,4.698479e+03
2.228345e+03,4.637950e+03
2.231238e+03,4.697034e+03
2.234131e+03,4.642830e+03
2.237023e+03,4.616433e+03
2.239916e+03,4.611307e+03
2.242809e+03,4.588342e+03
2.245701e+03,4.594286e+03
2.248594e+03,4.549272e+03
2.251487e+03,4.577506e+03
2.254379e+03,4.542398e+03
2.257272e+03,4.492252e+03
2.260165e+03,4.487745e+03
2.263058e+03,4.511050e+03
2.265950e+03,4.494253e+03
2.268843e+03,4.453467e+03
2.271736e+03,4.442565e+03
2.274628e+03,4.442491e+03
2.277521e+03,4.451063e+03
2.280414e+03,4.406797e+03
2.283306e+03,4.414450e+03
2.286199e+03,4.380143e+03
2.289092e+03,4.380275e+03
2.291985e+03,4.346822e+03
2.294877e+03,4.348675e+03
2.297770e+03,4.371445e+03
2.300663e+03,4.337737e+03
2.303555e+03,4.288026e+03
2.306448e+03,4.287688e+03
2.309341e+03,4.280628e+03
2.312233e+03,4.254600e+03
2.315126e+03,4.300429e+03
2.318019e+03,4.233741e+03
2.320912e+03,4.250502e+03
2.323804e+03,4.253413e+03
2.326697e+03,4.223674e+03
2.329590e+03,4.228350e+03
2.332482e+03,4.193285e+03
2.335375e+03,4.181209e+03
2.338268e+03,4.171436e+03
2.341160e+03,4.143962e+03
2.344053e+03,4.172310e+03
2.346946e+03,4.167568e+03
2.349839e+03,4.133851e+03
2.352731e+03,4.096380e+03
2.355624e+03,4.123979e+03
2.358517e+03,4.102371e+03
2.361409e+03,4.085500e+03
2.364302e+03,4.050894e+03
2.367195e+03,4.066864e+03
2.370087e+03,4.049129e+03
2.372980e+03,4.020692e+03
2.375873e+03,4.038845e+03
2.378766e+03,4.023140e+03
2.381658e+03,3.944262e+03
2.384551e+03,4.011941e+03
2.387444e+03,3.967021e+03
2.390336e+03,3.972028e+03
2.393229e+03,3.952571e+03
2.396122e+03,3.949357e+03
2.399014e+03,3.946746e+03
2.401907e+03,3.914598e+03
2.404800e+03,3.923233e+03
2.407693e+03,3.935890e+03
2.410585e+03,3.865114e+03
2.413478e+03,3.872378e+03
2.416371e+03,3.850017e+03
2.419263e+03,3.844075e+03
2.422156e+03,3.862802e+03
2.425049e+03,3.833430e+03
2.427941e+03,3.811031e+03
2.430834e+03,3.814560e+03
2.433727e+03,3.793263e+03
2.436620e+03,3.789784e+03
2.439512e+03,3.815161e+03
2.442405e+03,3.785114e+03
2.445298e+03,3.732485e+03
2.448190e+03,3.749188e+03
2.451083e+03,3.706773e+03
2.453976e+03,3.725380e+03
2.456868e+03,3.701946e+03
2.459761e+03,3.708492e+03
2.462654e+03,3.702334e+03
2.465547e+03,3.679284e+03
2.468439e+03,3.675528e+03
2.471332e+03,3.658090e+03
2.474225e+03,3.641477e+03
2.477117e+03,3.660527e+03
2.480010e+03,3.643562e+03
2.482903e+03,3.644147e+03
2.485795e+03,3.667384e+03
2.488688e+03,3.606026e+03
2.491581e+03,3.591810e+03
2.494474e+03,3.594850e+03
2.497366e+03,3.558347e+03
2.500259e+03,3.562104e+03
2.503152e+03,3.565184e+03
2.506044e+03,3.535604e+03
2.508937e+03,3.536415e+03
2.511830e+03,3.519253e+03
2.514722e+03,3.514792e+03
2.517615e+03,3.536463e+03
2.520508e+03,3.517286e+03
2.523401e+03,3.494915e+03
2.526293e+03,3.491034e+03
2.529186e+03,3.492259e+03
2.532079e+03,3.493480e+03
2.534971e+03,3.462987e+03
2.537864e+03,3.447249e+03
2.540757e+03,3.415184e+03
2.543649e+03,3.446030e+03
2.546542e+03,3.418210e+03
2.549435e+03,3.415729e+03
2.552328e+03,3.400659e+03
2.555220e+03,3.411806e+03
2.558113e+03,3.415546e+03
2.561006e+03,3.391658e+03
2.563898e+03,3.382402e+03
2.566791e+03,3.344071e+03
2.569684e+03,3.353694e+03
2.572576e+03,3.336172e+03
2.575469e+03,3.354321e+03
2.578362e+03,3.329738e+03
2.581255e+03,3.312036e+03
2.584147e+03,3.310667e+03
2.587040e+03,3.313439e+03
2.589933e+03,3.288698e+03
2.592825e+03,3.308601e+03
2.595718e+03,3.273362e+03
2.598611e+03,3.263504e+03
2.601503e+03,3.250352e+03
2.604396e+03,3.254286e+03
2.607289e+03,3.244987e+03
2.610182e+03,3.242262e+03
2.613074e+03,3.210935e+03
2.615967e+03,3.208954e+03
2.618860e+03,3.212279e+03
2.621752e+03,3.190957e+03
2.624645e+03,3.210933e+03
2.627538e+03,3.196955e+03
2.630430e+03,3.170405e+03
2.633323e+03,3.179676e+03
2.636216e+03,3.153782e+03
2.639109e+03,3.172124e+03
2.642001e+03,3.150297e+03
2.644894e+03,3.170487e+03
2.647787e+03,3.135555e+03
2.650679e+03,3.137406e+03
2.653572e+03,3.141404e+03
2.656465e+03,3.138428e+03
2.659357e+03,3.094997e+03
2.662250e+03,3.134008e+03
2.665143e+03,3.104612e+03
2.668036e+03,3.112083e+03
2.670928e+03,3.072751e+03
2.673821e+03,3.050774e+03
2.676714e+03,3.071620e+03
2.679606e+03,3.055315e+03
2.682499e+03,3.035236e+03
2.685392e+03,3.066923e+03
2.688284e+03,3.063629e+03
2.691177e+03,3.026400e+03
2.694070e+03,3.014968e+03
2.696963e+03,3.018419e+03
2.699855e+03,3.009105e+03
2.702748e+03,2.981833e+03
2.705641e+03,3.005743e+03
2.708533e+03,2.990748e+03
2.711426e+03,2.966282e+03
2.714319e+03,2.957503e+03
2.717211e+03,2.979286e+03
2.720104e+03,2.968804e+03
2.722997e+03,2.954141e+03
2.725890e+03,2.932962e+03
2.728782e+03,2.926910e+03
2.731675e+03,2.929474e+03
2.734568e+03,2.941813e+03
2.737460e+03,2.936441e+03
2.740353e+03,2.892036e+03
2.743246e+03,2.905864e+03
2.746138e+03,2.871588e+03
2.749031e+03,2.873109e+03
2.751924e+03,2.900649e+03
2.754817e+03,2.862553e+03
2.757709e+03,2.861754e+03
2.760602e+03,2.852327e+03
2.763495e+03,2.841187e+03
2.766387e+03,2.851246e+03
2.769280e+03,2.818916e+03
2.772173e+03,2.829307e+03
2.775065e+03,2.833991e+03
2.777958e+03,2.807598e+03
2.780851e+03,2.804946e+03
2.783744e+03,2.780751e+03
2.786636e+03,2.802084e+03
2.789529e+03,2.792556e+03
2.792422e+03,2.782379e+03
2.795314e+03,2.751977e+03
2.798207e+03,2.787020e+03
2.801100e+03,2.797469e+03
2.803992e+03,2.768791e+03
2.806885e+03,2.745983e+03
2.809778e+03,2.701846e+03
2.812671e+03,2.761588e+03
2.815563e+03,2.716576e+03
2.818456e+03,2.726788e+03
2.821349e+03,2.712484e+03
2.824241e+03,2.701253e+03
2.827134e+03,2.723538e+03
2.830027e+03,2.660902e+03
2.832919e+03,2.691377e+03
2.835812e+03,2.659271e+03
2.838705e+03,2.712359e+03
2.841598e+03,2.681659e+03
2.844490e+03,2.662097e+03
2.847383e+03,2.686451e+03
2.850276e+03,2.678488e+03
2.853168e+03,2.655362e+03
2.856061e+03,2.678522e+03
2.858954e+03,2.664555e+03
2.861846e+03,2.645601e+03
2.864739e+03,2.637540e+03
2.867632e+03,2.623352e+03
2.870525e+03,2.646027e+03
2.873417e+03,2.654828e+03
2.876310e+03,2.631167e+03
2.879203e+03,2.643297e+03
2.882095e+03,2.616456e+03
2.884988e+03,2.648103e+03
2.887881e+03,2.599612e+03
2.890773e+03,2.648890e+03
2.893666e+03,2.629509e+03
2.896559e+03,2.639800e+03
2.899452e+03,2.590464e+03
2.902344e+03,2.591172e+03
2.905237e+03,2.559344e+03
2.908130e+03,2.568517e+03
2.911022e+03,2.606204e+03
2.913915e+03,2.571042e+03
2.916808e+03,2.568496e+03
2.919700e+03,2.571401e+03
2.922593e+03,2.548149e+03
2.925486e+03,2.546320e+03
2.928379e+03,2.530363e+03
2.931271e+03,2.546358e+03
2.934164e+03,2.548762e+03
2.937057e+03,2.550411e+03
2.939949e+03,2.522396e+03
2.942842e+03,2.499275e+03
2.945735e+03,2.536774e+03
2.948627e+03,2.488097e+03
2.951520e+03,2.533894e+03
2.954413e+03,2.466195e+03
2.957306e+03,2.527626e+03
2.960198e+03,2.452393e+03
2.963091e+03,2.488097e+03
2.965984e+03,2.419854e+03
2.968876e+03,2.441302e+03
2.971769e+03,2.424132e+03
2.974662e+03,2.412463e+03
2.977554e+03,2.458766e+03
2.980447e+03,2.426531e+03
2.983340e+03,2.368566e+03
2.986233e+03,2.408289e+03
2.989125e+03,2.420238e+03
2.992018e+03,2.413935e+03
2.994911e+03,2.388921e+03
2.997803e+03,2.405543e+03
3.000696e+03,2.396986e+03
3.003589e+03,2.371026e+03
3.006481e+03,2.408757e+03
3.009374e+03,2.386644e+03
3.012267e+03,2.386330e+03
3.015160e+03,2.365870e+03
3.018052e+03,2.386189e+03
3.020945e+03,2.343372e+03
3.023838e+03,2.397611e+03
3.026730e+03,2.379773e+03
3.029623e+03,2.351963e+03
3.032516e+03,2.339453e+03
3.035408e+03,2.352025e+03
3.038301e+03,2.375359e+03
3.041194e+03,2.322109e+03
3.044087e+03,2.355337e+03
3.046979e+03,2.325394e+03
3.049872e+03,2.345349e+03
3.052765e+03,2.341158e+03
3.055657e+03,2.272557e+03
3.058550e+03,2.336105e+03
3.061443e+03,2.314962e+03
3.064335e+03,2.356809e+03
3.067228e+03,2.277699e+03
3.070121e+03,2.296539e+03
3.073014e+03,2.321224e+03
3.075906e+03,2.306420e+03
3.078799e+03,2.272878e+03
3.081692e+03,2.309786e+03
3.084584e+03,2.290582e+03
3.087477e+03,2.298270e+03
3.090370e+03,2.281157e+03
3.093262e+03,2.280606e+03
3.096155e+03,2.293714e+03
3.099048e+03,2.310312e+03
3.101941e+03,2.258772e+03
3.104833e+03,2.335019e+03
3.107726e+03,2.244300e+03
3.110619e+03,2.294162e+03
3.113511e+03,2.268411e+03
3.116404e+03,2.262135e+03
3.119297e+03,2.294200e+03
3.122189e+03,2.185048e+03
3.125082e+03,2.297285e+03
3.127975e+03,2.240291e+03
3.130868e+03,2.257267e+03
3.133760e+03,2.252157e+03
3.136653e+03,2.275687e+03
3.139546e+03,2.261013e+03
3.142438e+03,2.253317e+03
3.145331e+03,2.225282e+03
3.148224e+03,2.263955e+03
3.151116e+03,2.289236e+03
3.154009e+03,2.243041e+03
3.156902e+03,2.264100e+03
3.159795e+03,2.213715e+03
3.162687e+03,2.245248e+03
3.165580e+03,2.275552e+03
3.168473e+03,2.257849e+03
3.171365e+03,2.219802e+03
3.174258e+03,2.264922e+03
3.177151e+03,2.274917e+03
3.180043e+03,2.246670e+03
3.182936e+03,2.262464e+03
3.185829e+03,2.247276e+03
3.188722e+03,2.273121e+03
3.191614e+03,2.199995e+03
3.194507e+03,2.242608e+03
3.197400e+03,2.315372e+03
3.200292e+03,2.305145e+03
3.203185e+03,0.000000e+00
3.206078e+03,0.000000e+00
3.208970e+03,0.000000e+00
3.211863e+03,0.000000e+00
3.214756e+03,0.000000e+00
3.217649e+03,0.000000e+00
3.220541e+03,0.000000e+00
3.223434e+03,0.000000e+00
3.226327e+03,0.000000e+00
3.229219e+03,0.000000e+00
3.232112e+03,0.000000e+00
3.235005e+03,0.000000e+00
3.237897e+03,0.000000e+00
3.240790e+03,0.000000e+00
3.243683e+03,0.000000e+00
3.246576e+03,0.000000e+00
3.249468e+03,0.000000e+00
3.252361e+03,0.000000e+00
3.255254e+03,0.000000e+00
3.258146e+03,0.000000e+00
3.261039e+03,0.000000e+00
3.263932e+03,0.000000e+00
3.266824e+03,0.000000e+00
3.269717e+03,0.000000e+00
3.272610e+03,0.000000e+00
3.275503e+03,0.000000e+00
3.278395e+03,0.000000e+00
3.281288e+03,0.000000e+00
3.284181e+03,0.000000e+00
3.287073e+03,0.000000e+00
3.289966e+03,0.000000e+00
3.292859e+03,0.000000e+00
3.295751e+03,0.000000e+00
3.298644e+03,0.000000e+00
3.301537e+03,0.000000e+00
3.304430e+03,0.000000e+00
3.307322e+03,0.000000e+00
3.310215e+03,0.000000e+00
3.313108e+03,0.000000e+00
3.316000e+03,0.000000e+00
3.318893e+03,0.000000e+00
3.321786e+03,0.000000e+00
3.324678e+03,0.000000e+00
3.327571e+03,0.000000e+00
3.330464e+03,0.000000e+00
3.333357e+03,0.000000e+00
3.336249e+03,0.000000e+00
3.339142e+03,0.000000e+00
3.342035e+03,0.000000e+00
3.344927e+03,0.000000e+00
3.347820e+03,0.000000e+00
3.350713e+03,0.000000e+00
3.353605e+03,0.000000e+00
3.356498e+03,0.000000e+00
3.359391e+03,0.000000e+00
3.362284e+03,0.000000e+00
3.365176e+03,0.000000e+00
3.368069e+03,0.000000e+00
3.370962e+03,0.000000e+00
3.373854e+03,0.000000e+00
3.376747e+03,0.000000e+00
3.379640e+03,0.000000e+00
3.382532e+03,0.000000e+00
3.385425e+03,0.000000e+00
3.388318e+03,0.000000e+00
3.391211e+03,0.000000e+00
3.394103e+03,0.000000e+00
3.396996e+03,0.000000e+00
3.399889e+03,0.000000e+00
3.402781e+03,0.000000e+00
3.405674e+03,0.000000e+00
3.408567e+03,0.000000e+00
3.411459e+03,0.000000e+00
3.414352e+03,0.000000e+00
3.417245e+03,0.000000e+00
3.420138e+03,0.000000e+00
3.423030e+03,0.000000e+00
3.425923e+03,0.000000e+00
3.428816e+03,0.000000e+00
3.431708e+03,0.000000e+00
3.434601e+03,0.000000e+00
3.437494e+03,0.000000e+00
3.440386e+03,0.000000e+00
3.443279e+03,0.000000e+00
3.446172e+03,0.000000e+00
3.449065e+03,0.000000e+00
3.451957e+03,0.000000e+00
3.454850e+03,0.000000e+00
3.457743e+03,0.000000e+00
3.460635e+03,0.000000e+00
3.463528e+03,0.000000e+00
3.466421e+03,0.000000e+00
3.469313e+03,0.000000e+00
3.472206e+03,0.000000e+00
3.475099e+03,0.000000e+00
3.477992e+03,0.000000e+00
3.480884e+03,0.000000e+00
3.483777e+03,0.000000e+00
3.486670e+03,0.000000e+00
3.489563e+03,0.000000e+00
3.492455e+03,0.000000e+00
3.495348e+03,0.000000e+00
3.498240e+03,0.000000e+00
3.500169e+03,0.000000e+00