File: RAMAN_data/13112023_r1/black fibre1.CSV
9.931763e+01,0.000000e+00
1.022103e+02,0.000000e+00
1.051030e+02,0.000000e+00
1.079957e+02,0.000000e+00
1.108884e+02,0.000000e+00
1.137811e+02,0.000000e+00
1.166738e+02,0.000000e+00
1.195665e+02,0.000000e+00
1.224592e+02,0.000000e+00
1.253519e+02,0.000000e+00
1.282446e+02,0.000000e+00
1.311373e+02,0.000000e+00
1.340300e+02,0.000000e+00
1.369227e+02,0.000000e+00
1.398154e+02,0.000000e+00
1.427081e+02,0.000000e+00
1.456008e+02,0.000000e+00
1.484935e+02,0.000000e+00
1.513862e+02,0.000000e+00
1.542789e+02,0.000000e+00
1.571716e+02,0.000000e+00
1.600643e+02,0.000000e+00
1.629570e+02,0.000000e+00
1.658497e+02,0.000000e+00
1.687424e+02,0.000000e+00
1.716351e+02,0.000000e+00
1.745278e+02,0.000000e+00
1.774205e+02,0.000000e+00
1.803132e+02,0.000000e+00
1.832059e+02,0.000000e+00
1.860986e+02,0.000000e+00
1.889913e+02,0.000000e+00
1.918840e+02,0.000000e+00
1.947767e+02,0.000000e+00
1.976694e+02,0.000000e+00
2.005621e+02,6.898476e+03
2.034548e+02,6.901549e+03
2.063475e+02,6.908599e+03
2.092402e+02,6.893986e+03
2.121329e+02,6.861088e+03
2.150256e+02,6.868278e+03
2.179183e+02,6.871069e+03
2.208110e+02,6.849907e+03
2.237037e+02,6.853977e+03
2.265964e+02,6.829776e+03
2.294892e+02,6.805631e+03
2.323819e+02,6.803153e+03
2.352746e+02,6.796534e+03
2.381673e+02,6.784938e+03
2.410600e+02,6.758781e+03
2.439527e+02,6.730973e+03
2.468454e+02,6.755784e+03
2.497381e+02,6.735119e+03
2.526308e+02,6.737799e+03
2.555235e+02,6.765124e+03
2.584161e+02,6.717696e+03
2.613088e+02,6.710494e+03
2.642015e+02,6.738146e+03
2.670942e+02,6.741748e+03
2.699869e+02,6.715604e+03
2.728796e+02,6.707436e+03
2.757723e+02,6.691420e+03
2.786650e+02,6.716761e+03
2.815577e+02,6.710646e+03
2.844504e+02,6.700392e+03
2.873431e+02,6.654569e+03
2.902358e+02,6.647830e+03
2.931285e+02,6.659494e+03
2.960212e+02,6.670180e+03
2.989139e+02,6.654342e+03
3.018066e+02,6.631014e+03
3.046993e+02,6.595763e+03
3.075920e+02,6.607619e+03
3.104847e+02,6.621146e+03
3.133774e+02,6.606121e+03
3.162701e+02,6.603376e+03
3.191628e+02,6.579710e+03
3.220555e+02,6.569579e+03
3.249482e+02,6.542002e+03
3.278409e+02,6.536095e+03
3.307336e+02,6.530861e+03
3.336263e+02,6.521802e+03
3.365190e+02,6.497015e+03
3.394117e+02,6.452073e+03
3.423044e+02,6.489148e+03
3.451971e+02,6.459814e+03
3.480898e+02,6.442202e+03
3.509825e+02,6.416182e+03
3.538752e+02,6.406500e+03
3.567680e+02,6.380921e+03
3.596607e+02,6.380977e+03
3.625534e+02,6.389011e+03
3.654461e+02,6.361139e+03
3.683388e+02,6.317962e+03
3.712315e+02,6.338104e+03
3.741242e+02,6.335991e+03
3.770169e+02,6.329575e+03
3.799096e+02,6.312992e+03
3.828023e+02,6.269194e+03
3.856950e+02,6.248240e+03
3.885877e+02,6.233889e+03
3.914804e+02,6.217640e+03
3.943731e+02,6.182244e+03
3.972658e+02,6.152048e+03
4.001585e+02,6.157104e+03
4.030512e+02,6.160150e+03
4.059439e+02,6.132913e+03
4.088366e+02,6.121903e+03
4.117293e+02,6.115497e+03
4.146220e+02,6.101844e+03
4.175147e+02,6.084818e+03
4.204074e+02,6.066757e+03
4.233001e+02,6.051454e+03
4.261928e+02,6.023272e+03
4.290855e+02,5.989376e+03
4.319782e+02,5.957567e+03
4.348709e+02,5.956937e+03
4.377636e+02,5.928923e+03
4.406563e+02,5.922281e+03
4.435490e+02,5.910711e+03
4.464417e+02,5.874452e+03
4.493344e+02,5.865653e+03
4.522271e+02,5.867612e+03
4.551198e+02,5.827210e+03
4.580125e+02,5.801789e+03
4.609052e+02,5.792091e+03
4.637979e+02,5.777555e+03
4.666906e+02,5.746289e+03
4.695833e+02,5.739771e+03
4.724760e+02,5.737421e+03
4.753687e+02,5.730273e+03
4.782614e+02,5.709042e+03
4.811541e+02,5.704963e+03
4.840468e+02,5.682920e+03
4.869395e+02,5.639260e+03
4.898322e+02,5.642946e+03
4.927249e+02,5.622155e+03
4.956176e+02,5.632541e+03
4.985103e+02,5.610876e+03
5.014030e+02,5.589677e+03
5.042957e+02,5.578100e+03
5.071884e+02,5.556463e+03
5.100811e+02,5.549837e+03
5.129738e+02,5.540030e+03
5.158665e+02,5.517376e+03
5.187592e+02,5.495277e+03
5.216519e+02,5.495567e+03
5.245446e+02,5.435415e+03
5.274373e+02,5.435674e+03
5.303300e+02,5.428897e+03
5.332227e+02,5.414331e+03
5.361154e+02,5.401170e+03
5.390081e+02,5.360536e+03
5.419008e+02,5.377597e+03
5.447935e+02,5.346883e+03
5.476862e+02,5.328124e+03
5.505789e+02,5.316368e+03
5.534716e+02,5.277300e+03
5.563643e+02,5.279396e+03
5.592570e+02,5.246427e+03
5.621497e+02,5.256464e+03
5.650424e+02,5.228826e+03
5.679351e+02,5.201701e+03
5.708278e+02,5.185991e+03
5.737205e+02,5.172828e+03
5.766132e+02,5.155779e+03
5.795059e+02,5.122432e+03
5.823986e+02,5.150696e+03
5.852913e+02,5.106640e+03
5.881840e+02,5.103366e+03
5.910767e+02,5.106224e+03
5.939694e+02,5.090692e+03
5.968621e+02,5.068226e+03
5.997548e+02,5.025413e+03
6.026475e+02,5.036320e+03
6.055402e+02,5.027565e+03
6.084329e+02,5.009884e+03
6.113256e+02,4.973726e+03
6.142183e+02,4.952272e+03
6.171110e+02,4.950968e+03
6.200037e+02,4.935427e+03
6.228964e+02,4.930046e+03
6.257891e+02,4.921910e+03
6.286818e+02,4.902100e+03
6.315745e+02,4.878541e+03
6.344672e+02,4.867234e+03
6.373599e+02,4.845653e+03
6.402526e+02,4.839126e+03
6.431453e+02,4.817437e+03
6.460380e+02,4.805531e+03
6.489307e+02,4.804133e+03
6.518234e+02,4.779908e+03
6.547161e+02,4.774521e+03
6.576088e+02,4.759400e+03
6.605015e+02,4.732750e+03
6.633942e+02,4.727427e+03
6.662869e+02,4.743507e+03
6.691796e+02,4.739303e+03
6.720723e+02,4.710023e+03
6.749650e+02,4.697613e+03
6.778577e+02,4.651403e+03
6.807504e+02,4.636792e+03
6.836431e+02,4.641794e+03
6.865358e+02,4.619408e+03
6.894285e+02,4.613469e+03
6.923212e+02,4.617940e+03
6.952139e+02,4.594865e+03
6.981066e+02,4.652635e+03
7.009993e+02,4.591323e+03
7.038920e+02,4.541741e+03
7.067847e+02,4.544901e+03
7.096774e+02,4.515435e+03
7.125701e+02,4.524916e+03
7.154628e+02,4.497484e+03
7.183555e+02,4.536891e+03
7.212482e+02,4.499063e+03
7.241409e+02,4.462244e+03
7.270336e+02,4.474304e+03
7.299263e+02,4.485058e+03
7.328190e+02,4.440773e+03
7.357117e+02,4.431762e+03
7.386044e+02,4.424711e+03
7.414971e+02,4.426296e+03
7.443898e+02,4.411305e+03
7.472825e+02,4.401181e+03
7.501752e+02,4.371029e+03
7.530679e+02,4.358413e+03
7.559606e+02,4.330913e+03
7.588533e+02,4.317164e+03
7.617460e+02,4.328591e+03
7.646387e+02,4.306183e+03
7.675314e+02,4.283789e+03
7.704241e+02,4.275874e+03
7.733168e+02,4.251438e+03
7.762095e+02,4.249342e+03
7.791022e+02,4.238252e+03
7.819949e+02,4.227650e+03
7.848876e+02,4.233686e+03
7.877803e+02,4.217815e+03
7.906730e+02,4.204822e+03
7.935657e+02,4.203946e+03
7.964584e+02,4.193194e+03
7.993511e+02,4.156347e+03
8.022438e+02,4.167911e+03
8.051365e+02,4.165854e+03
8.080292e+02,4.161576e+03
8.109219e+02,4.139309e+03
8.138146e+02,4.116943e+03
8.167073e+02,4.129276e+03
8.196000e+02,4.113943e+03
8.224927e+02,4.113275e+03
8.253854e+02,4.106457e+03
8.282781e+02,4.082704e+03
8.311708e+02,4.091265e+03
8.340635e+02,4.100296e+03
8.369562e+02,4.089599e+03
8.398489e+02,4.078821e+03
8.427416e+02,4.075655e+03
8.456343e+02,4.074906e+03
8.485270e+02,4.066121e+03
8.514197e+02,4.052707e+03
8.543124e+02,4.053329e+03
8.572051e+02,4.049019e+03
8.600978e+02,4.028886e+03
8.629905e+02,4.013302e+03
8.658832e+02,3.988501e+03
8.687759e+02,3.989706e+03
8.716686e+02,4.000923e+03
8.745613e+02,3.970965e+03
8.774540e+02,3.973342e+03
8.803467e+02,3.966266e+03
8.832394e+02,3.960810e+03
8.861321e+02,3.967218e+03
8.890248e+02,3.954975e+03
8.919175e+02,3.932554e+03
8.948102e+02,3.916722e+03
8.977029e+02,3.925721e+03
9.005956e+02,3.902869e+03
9.034883e+02,3.871767e+03
9.063810e+02,3.897559e+03
9.092737e+02,3.867068e+03
9.121664e+02,3.862070e+03
9.150591e+02,3.868003e+03
9.179518e+02,3.883862e+03
9.208445e+02,3.851968e+03
9.237372e+02,3.835434e+03
9.266299e+02,3.843077e+03
9.295226e+02,3.850965e+03
9.324153e+02,3.848032e+03
9.353080e+02,3.826161e+03
9.382007e+02,3.815604e+03
9.410934e+02,3.804581e+03
9.439861e+02,3.798418e+03
9.468788e+02,3.792237e+03
9.497715e+02,3.811602e+03
9.526642e+02,3.793266e+03
9.555569e+02,3.777072e+03
9.584496e+02,3.781575e+03
9.613423e+02,3.784544e+03
9.642350e+02,3.768562e+03
9.671277e+02,3.763621e+03
9.700204e+02,3.771078e+03
9.729131e+02,3.769677e+03
9.758058e+02,3.763771e+03
9.786985e+02,3.763865e+03
9.815912e+02,3.754651e+03
9.844839e+02,3.738624e+03
9.873766e+02,3.736134e+03
9.902693e+02,3.733725e+03
9.931620e+02,3.734984e+03
9.960547e+02,3.743187e+03
9.989474e+02,3.729792e+03
1.001840e+03,3.731950e+03
1.004733e+03,3.721359e+03
1.007626e+03,3.730093e+03
1.010518e+03,3.716926e+03
1.013411e+03,3.723958e+03
1.016304e+03,3.697576e+03
1.019196e+03,3.695784e+03
1.022089e+03,3.702782e+03
1.024982e+03,3.692865e+03
1.027875e+03,3.690080e+03
1.030767e+03,3.686844e+03
1.033660e+03,3.697846e+03
1.036552e+03,3.703767e+03
1.039445e+03,3.706672e+03
1.042338e+03,3.683881e+03
1.045231e+03,3.685511e+03
1.048123e+03,3.669814e+03
1.051016e+03,3.673531e+03
1.053909e+03,3.695799e+03
1.056802e+03,3.687759e+03
1.059694e+03,3.680941e+03
1.062587e+03,3.681885e+03
1.065479e+03,3.689053e+03
1.068372e+03,3.711666e+03
1.071265e+03,3.725055e+03
1.074158e+03,3.720755e+03
1.077050e+03,3.697969e+03
1.079943e+03,3.690459e+03
1.082836e+03,3.706227e+03
1.085729e+03,3.679510e+03
1.088621e+03,3.682256e+03
1.091514e+03,3.719739e+03
1.094406e+03,3.695795e+03
1.097299e+03,3.680438e+03
1.100192e+03,3.674918e+03
1.103085e+03,3.665581e+03
1.105977e+03,3.653274e+03
1.108870e+03,3.672783e+03
1.111763e+03,3.660217e+03
1.114656e+03,3.689083e+03
1.117548e+03,3.687504e+03
1.120441e+03,3.688644e+03
1.123334e+03,3.693563e+03
1.126226e+03,3.657804e+03
1.129119e+03,3.658417e+03
1.132012e+03,3.673932e+03
1.134904e+03,3.680329e+03
1.137797e+03,3.657452e+03
1.140690e+03,3.692699e+03
1.143583e+03,3.687902e+03
1.146475e+03,3.707981e+03
1.149368e+03,3.716628e+03
1.152261e+03,3.726362e+03
1.155153e+03,3.725107e+03
1.158046e+03,3.738506e+03
1.160939e+03,3.746164e+03
1.163831e+03,3.764597e+03
1.166724e+03,3.772675e+03
1.169617e+03,3.771221e+03
1.172510e+03,3.760121e+03
1.175402e+03,3.737794e+03
1.178295e+03,3.710338e+03
1.181188e+03,3.696981e+03
1.184080e+03,3.669773e+03
1.186973e+03,3.635159e+03
1.189866e+03,3.650127e+03
1.192758e+03,3.658366e+03
1.195651e+03,3.656741e+03
1.198544e+03,3.665364e+03
1.201437e+03,3.656665e+03
1.204329e+03,3.632429e+03
1.207222e+03,3.651869e+03
1.210115e+03,3.642580e+03
1.213007e+03,3.654230e+03
1.215900e+03,3.625573e+03
1.218793e+03,3.629319e+03
1.221685e+03,3.637498e+03
1.224578e+03,3.630402e+03
1.227471e+03,3.603209e+03
1.230364e+03,3.605750e+03
1.233256e+03,3.590694e+03
1.236149e+03,3.593773e+03
1.239042e+03,3.608988e+03
1.241934e+03,3.611275e+03
1.244827e+03,3.594672e+03
1.247720e+03,3.601443e+03
1.250612e+03,3.604715e+03
1.253505e+03,3.602853e+03
1.256398e+03,3.574721e+03
1.259291e+03,3.612767e+03
1.262183e+03,3.579355e+03
1.265076e+03,3.589071e+03
1.267969e+03,3.599181e+03
1.270861e+03,3.600941e+03
1.273754e+03,3.619667e+03
1.276647e+03,3.607237e+03
1.279539e+03,3.617374e+03
1.282432e+03,3.611734e+03
1.285325e+03,3.618572e+03
1.288218e+03,3.628066e+03
1.291110e+03,3.605340e+03
1.294003e+03,3.621724e+03
1.296896e+03,3.600370e+03
1.299788e+03,3.598452e+03
1.302681e+03,3.620411e+03
1.305574e+03,3.621710e+03
1.308466e+03,3.631581e+03
1.311359e+03,3.641911e+03
1.314252e+03,3.661539e+03
1.317145e+03,3.672977e+03
1.320037e+03,3.699449e+03
1.322930e+03,3.705510e+03
1.325823e+03,3.714621e+03
1.328715e+03,3.685277e+03
1.331608e+03,3.693570e+03
1.334501e+03,3.688934e+03
1.337393e+03,3.669337e+03
1.340286e+03,3.661928e+03
1.343179e+03,3.636378e+03
1.346072e+03,3.623805e+03
1.348964e+03,3.602823e+03
1.351857e+03,3.599696e+03
1.354750e+03,3.610258e+03
1.357642e+03,3.601374e+03
1.360535e+03,3.571023e+03
1.363428e+03,3.603509e+03
1.366320e+03,3.592806e+03
1.369213e+03,3.586916e+03
1.372106e+03,3.564151e+03
1.374999e+03,3.572481e+03
1.377891e+03,3.590840e+03
1.380784e+03,3.582661e+03
1.383677e+03,3.561030e+03
1.386569e+03,3.559827e+03
1.389462e+03,3.561994e+03
1.392355e+03,3.527200e+03
1.395247e+03,3.521586e+03
1.398140e+03,3.529107e+03
1.401033e+03,3.494399e+03
1.403926e+03,3.522015e+03
1.406818e+03,3.498078e+03
1.409711e+03,3.513192e+03
1.412604e+03,3.510823e+03
1.415496e+03,3.516106e+03
1.418389e+03,3.473066e+03
1.421282e+03,3.497799e+03
1.424174e+03,3.479838e+03
1.427067e+03,3.502604e+03
1.429960e+03,3.486874e+03
1.432853e+03,3.479220e+03
1.435745e+03,3.464428e+03
1.438638e+03,3.483047e+03
1.441531e+03,3.479227e+03
1.444423e+03,3.470904e+03
1.447316e+03,3.470633e+03
1.450209e+03,3.446237e+03
1.453101e+03,3.446461e+03
1.455994e+03,3.449146e+03
1.458887e+03,3.449751e+03
1.461780e+03,3.437919e+03
1.464672e+03,3.435338e+03
1.467565e+03,3.430916e+03
1.470458e+03,3.414815e+03
1.473350e+03,3.403205e+03
1.476243e+03,3.439997e+03
1.479136e+03,3.410632e+03
1.482028e+03,3.393324e+03
1.484921e+03,3.397005e+03
1.487814e+03,3.392372e+03
1.490707e+03,3.382546e+03
1.493599e+03,3.370196e+03
1.496492e+03,3.371807e+03
1.499385e+03,3.371622e+03
1.502277e+03,3.347661e+03
1.505170e+03,3.369376e+03
1.508063e+03,3.365683e+03
1.510955e+03,3.341074e+03
1.513848e+03,3.339350e+03
1.516741e+03,3.350281e+03
1.519634e+03,3.334356e+03
1.522526e+03,3.334378e+03
1.525419e+03,3.331864e+03
1.528312e+03,3.310131e+03
1.531204e+03,3.302619e+03
1.534097e+03,3.302215e+03
1.536990e+03,3.286773e+03
1.539882e+03,3.306670e+03
1.542775e+03,3.291547e+03
1.545668e+03,3.267801e+03
1.548561e+03,3.269848e+03
1.551453e+03,3.269728e+03
1.554346e+03,3.263459e+03
1.557239e+03,3.289989e+03
1.560131e+03,3.274701e+03
1.563024e+03,3.272738e+03
1.565917e+03,3.251452e+03
1.568809e+03,3.246573e+03
1.571702e+03,3.260431e+03
1.574595e+03,3.232228e+03
1.577488e+03,3.228110e+03
1.580380e+03,3.252228e+03
1.583273e+03,3.235457e+03
1.586166e+03,3.204574e+03
1.589058e+03,3.178780e+03
1.591951e+03,3.158692e+03
1.594844e+03,3.180948e+03
1.597736e+03,3.169370e+03
1.600629e+03,3.175063e+03
1.603522e+03,3.170816e+03
1.606415e+03,3.168063e+03
1.609307e+03,3.194792e+03
1.612200e+03,3.197474e+03
1.615093e+03,3.181346e+03
1.617985e+03,3.152411e+03
1.620878e+03,3.116293e+03
1.623771e+03,3.080582e+03
1.626663e+03,3.083684e+03
1.629556e+03,3.065134e+03
1.632449e+03,3.061297e+03
1.635342e+03,3.034088e+03
1.638234e+03,3.029202e+03
1.641127e+03,3.021639e+03
1.644020e+03,3.022272e+03
1.646912e+03,3.008128e+03
1.649805e+03,2.997688e+03
1.652698e+03,2.987204e+03
1.655590e+03,2.998237e+03
1.658483e+03,2.975821e+03
1.661376e+03,2.973922e+03
1.664269e+03,2.951719e+03
1.667161e+03,2.970145e+03
1.670054e+03,2.950788e+03
1.672947e+03,2.930615e+03
1.675839e+03,2.940415e+03
1.678732e+03,2.926186e+03
1.681625e+03,2.909745e+03
1.684517e+03,2.901914e+03
1.687410e+03,2.881719e+03
1.690303e+03,2.881331e+03
1.693196e+03,2.869337e+03
1.696088e+03,2.860460e+03
1.698981e+03,2.866022e+03
1.701874e+03,2.846483e+03
1.704766e+03,2.849482e+03
1.707659e+03,2.834803e+03
1.710552e+03,2.843009e+03
1.713444e+03,2.828302e+03
1.716337e+03,2.812704e+03
1.719230e+03,2.821644e+03
1.722123e+03,2.809451e+03
1.725015e+03,2.815481e+03
1.727908e+03,2.774506e+03
1.730801e+03,2.787517e+03
1.733693e+03,2.777583e+03
1.736586e+03,2.736636e+03
1.739479e+03,2.745576e+03
1.742371e+03,2.735796e+03
1.745264e+03,2.701547e+03
1.748157e+03,2.696298e+03
1.751050e+03,2.691876e+03
1.753942e+03,2.700090e+03
1.756835e+03,2.679429e+03
1.759728e+03,2.661709e+03
1.762620e+03,2.662287e+03
1.765513e+03,2.653665e+03
1.768406e+03,2.656206e+03
1.771298e+03,2.633153e+03
1.774191e+03,2.620817e+03
1.777084e+03,2.624940e+03
1.779977e+03,2.600772e+03
1.782869e+03,2.574171e+03
1.785762e+03,2.593299e+03
1.788655e+03,2.577699e+03
1.791547e+03,2.544945e+03
1.794440e+03,2.549742e+03
1.797333e+03,2.556140e+03
1.800225e+03,2.549150e+03
1.803118e+03,2.555015e+03
1.806011e+03,2.541963e+03
1.808904e+03,2.515062e+03
1.811796e+03,2.522110e+03
1.814689e+03,2.499519e+03
1.817582e+03,2.492586e+03
1.820474e+03,2.472947e+03
1.823367e+03,2.472073e+03
1.826260e+03,2.474551e+03
1.829152e+03,2.459503e+03
1.832045e+03,2.456800e+03
1.834938e+03,2.432908e+03
1.837831e+03,2.424447e+03
1.840723e+03,2.426565e+03
1.843616e+03,2.427260e+03
1.846509e+03,2.428745e+03
1.849401e+03,2.409725e+03
1.852294e+03,2.399707e+03
1.855187e+03,2.394172e+03
1.858079e+03,2.393272e+03
1.860972e+03,2.388225e+03
1.863865e+03,2.365751e+03
1.866758e+03,2.366784e+03
1.869650e+03,2.326092e+03
1.872543e+03,2.340351e+03
1.875436e+03,2.330897e+03
1.878328e+03,2.327726e+03
1.881221e+03,2.304171e+03
1.884114e+03,2.297169e+03
1.887006e+03,2.286183e+03
1.889899e+03,2.276519e+03
1.892792e+03,2.250896e+03
1.895685e+03,2.231876e+03
1.898577e+03,2.254179e+03
1.901470e+03,2.242352e+03
1.904363e+03,2.227599e+03
1.907255e+03,2.224841e+03
1.910148e+03,2.211199e+03
1.913041e+03,2.207336e+03
1.915933e+03,2.195708e+03
1.918826e+03,2.165872e+03
1.921719e+03,2.162760e+03
1.924612e+03,2.188150e+03
1.927504e+03,2.157709e+03
1.930397e+03,2.151065e+03
1.933290e+03,2.129901e+03
1.936182e+03,2.145240e+03
1.939075e+03,2.121220e+03
1.941968e+03,2.125665e+03
1.944860e+03,2.084344e+03
1.947753e+03,2.110074e+03
1.950646e+03,2.102017e+03
1.953539e+03,2.088170e+03
1.956431e+03,2.077482e+03
1.959324e+03,2.071556e+03
1.962217e+03,2.050472e+03
1.965109e+03,2.060052e+03
1.968002e+03,2.060992e+03
1.970895e+03,2.019277e+03
1.973787e+03,2.038817e+03
1.976680e+03,2.035885e+03
1.979573e+03,2.013092e+03
1.982466e+03,2.031924e+03
1.985358e+03,1.994085e+03
1.988251e+03,1.992083e+03
1.991144e+03,1.968955e+03
1.994036e+03,1.991425e+03
1.996929e+03,1.967586e+03
1.999822e+03,1.970734e+03
2.002714e+03,1.974800e+03
2.005607e+03,1.944440e+03
2.008500e+03,1.931310e+03
2.011393e+03,1.918713e+03
2.014285e+03,1.915423e+03
2.017178e+03,1.909802e+03
2.020071e+03,1.901703e+03
2.022963e+03,1.894897e+03
2.025856e+03,1.882201e+03
2.028749e+03,1.876275e+03
2.031641e+03,1.873746e+03
2.034534e+03,1.879591e+03
2.037427e+03,1.842534e+03
2.040320e+03,1.841473e+03
2.043212e+03,1.832733e+03
2.046105e+03,1.826892e+03
2.048998e+03,1.831701e+03
2.051890e+03,1.810160e+03
2.054783e+03,1.802918e+03
2.057676e+03,1.806159e+03
2.060568e+03,1.798123e+03
2.063461e+03,1.788305e+03
2.066354e+03,1.761144e+03
2.069247e+03,1.765316e+03
2.072139e+03,1.752144e+03
2.075032e+03,1.755913e+03
2.077925e+03,1.743078e+03
2.080817e+03,1.753935e+03
2.083710e+03,1.743711e+03
2.086603e+03,1.699103e+03
2.089496e+03,1.716570e+03
2.092388e+03,1.726239e+03
2.095281e+03,1.722010e+03
2.098174e+03,1.701689e+03
2.101066e+03,1.703302e+03
2.103959e+03,1.667868e+03
2.106852e+03,1.684463e+03
2.109744e+03,1.686647e+03
2.112637e+03,1.673721e+03
2.115530e+03,1.662460e+03
2.118422e+03,1.645688e+03
2.121315e+03,1.655078e+03
2.124208e+03,1.636930e+03
2.127101e+03,1.621098e+03
2.129993e+03,1.628047e+03
2.132886e+03,1.617534e+03
2.135779e+03,1.624534e+03
2.138671e+03,1.608221e+03
2.141564e+03,1.596534e+03
2.144457e+03,1.604628e+03
2.147350e+03,1.577305e+03
2.150242e+03,1.594941e+03
2.153135e+03,1.572562e+03
2.156028e+03,1.576182e+03
2.158920e+03,1.582588e+03
2.161813e+03,1.569395e+03
2.164706e+03,1.559818e+03
2.167598e+03,1.551553e+03
2.170491e+03,1.537059e+03
2.173384e+03,1.568303e+03
2.176277e+03,1.525047e+03
2.179169e+03,1.518335e+03
2.182062e+03,1.527942e+03
2.184955e+03,1.525046e+03
2.187847e+03,1.507029e+03
2.190740e+03,1.518172e+03
2.193633e+03,1.504016e+03
2.196525e+03,1.502807e+03
2.199418e+03,1.480113e+03
2.202311e+03,1.478192e+03
2.205204e+03,1.460163e+03
2.208096e+03,1.482530e+03
2.210989e+03,1.483951e+03
2.213882e+03,1.468773e+03
2.216774e+03,1.472338e+03
2.219667e+03,1.462892e+03
2.222560e+03,1.454005e+03
2.225452e+03,1.451081e+03
2.228345e+03,1.418636e+03
2.231238e+03,1.436248e+03
2.234131e+03,1.423695e+03
2.237023e+03,1.425101e+03
2.239916e+03,1.422993e+03
2.242809e+03,1.412872e+03
2.245701e+03,1.404270e+03
2.248594e+03,1.414074e+03
2.251487e+03,1.410032e+03
2.254379e+03,1.393099e+03
2.257272e+03,1.382813e+03
2.260165e+03,1.368419e+03
2.263058e+03,1.374592e+03
2.265950e+03,1.370835e+03
2.268843e+03,1.361410e+03
2.271736e+03,1.357384e+03
2.274628e+03,1.345966e+03
2.277521e+03,1.352370e+03
2.280414e+03,1.354050e+03
2.283306e+03,1.348040e+03
2.286199e+03,1.331982e+03
2.289092e+03,1.342240e+03
2.291985e+03,1.334703e+03
2.294877e+03,1.328517e+03
2.297770e+03,1.315718e+03
2.300663e+03,1.330586e+03
2.303555e+03,1.315852e+03
2.306448e+03,1.311832e+03
2.309341e+03,1.309785e+03
2.312233e+03,1.290657e+03
2.315126e+03,1.312215e+03
2.318019e+03,1.279840e+03
2.320912e+03,1.301428e+03
2.323804e+03,1.285736e+03
2.326697e+03,1.291359e+03
2.329590e+03,1.295346e+03
2.332482e+03,1.264316e+03
2.335375e+03,1.284892e+03
2.338268e+03,1.259756e+03
2.341160e+03,1.254151e+03
2.344053e+03,1.279486e+03
2.346946e+03,1.257151e+03
2.349839e+03,1.251352e+03
2.352731e+03,1.235882e+03
2.355624e+03,1.248126e+03
2.358517e+03,1.264361e+03
2.361409e+03,1.246833e+03
2.364302e+03,1.224052e+03
2.367195e+03,1.236342e+03
2.370087e+03,1.218164e+03
2.372980e+03,1.217126e+03
2.375873e+03,1.224441e+03
2.378766e+03,1.210654e+03
2.381658e+03,1.197996e+03
2.384551e+03,1.202408e+03
2.387444e+03,1.197610e+03
2.390336e+03,1.193067e+03
2.393229e+03,1.210383e+03
2.396122e+03,1.200645e+03
2.399014e+03,1.186694e+03
2.401907e+03,1.188489e+03
2.404800e+03,1.195033e+03
2.407693e+03,1.178514e+03
2.410585e+03,1.166663e+03
2.413478e+03,1.173565e+03
2.416371e+03,1.181888e+03
2.419263e+03,1.163061e+03
2.422156e+03,1.165542e+03
2.425049e+03,1.164979e+03
2.427941e+03,1.162462e+03
2.430834e+03,1.164510e+03
2.433727e+03,1.145702e+03
2.436620e+03,1.174571e+03
2.439512e+03,1.145907e+03
2.442405e+03,1.135968e+03
2.445298e+03,1.141201e+03
2.448190e+03,1.138477e+03
2.451083e+03,1.125351e+03
2.453976e+03,1.131512e+03
2.456868e+03,1.110127e+03
2.459761e+03,1.122268e+03
2.462654e+03,1.118373e+03
2.465547e+03,1.118450e+03
2.468439e+03,1.116114e+03
2.471332e+03,1.115050e+03
2.474225e+03,1.113275e+03
2.477117e+03,1.112758e+03
2.480010e+03,1.101992e+03
2.482903e+03,1.110486e+03
2.485795e+03,1.103111e+03
2.488688e+03,1.085067e+03
2.491581e+03,1.085367e+03
2.494474e+03,1.105445e+03
2.497366e+03,1.111019e+03
2.500259e+03,1.090444e+03
2.503152e+03,1.081221e+03
2.506044e+03,1.075043e+03
2.508937e+03,1.083623e+03
2.511830e+03,1.077517e+03
2.514722e+03,1.076765e+03
2.517615e+03,1.070610e+03
2.520508e+03,1.064499e+03
2.523401e+03,1.065552e+03
2.526293e+03,1.066988e+03
2.529186e+03,1.063362e+03
2.532079e+03,1.071197e+03
2.534971e+03,1.054725e+03
2.537864e+03,1.063621e+03
2.540757e+03,1.063985e+03
2.543649e+03,1.059465e+03
2.546542e+03,1.047518e+03
2.549435e+03,1.050248e+03
2.552328e+03,1.049250e+03
2.555220e+03,1.070455e+03
2.558113e+03,1.063447e+03
2.561006e+03,1.051138e+03
2.563898e+03,1.037318e+03
2.566791e+03,1.058553e+03
2.569684e+03,1.035922e+03
2.572576e+03,1.044102e+03
2.575469e+03,1.031223e+03
2.578362e+03,1.024286e+03
2.581255e+03,1.028561e+03
2.584147e+03,1.027089e+03
2.587040e+03,1.019453e+03
2.589933e+03,1.023091e+03
2.592825e+03,1.033218e+03
2.595718e+03,1.024604e+03
2.598611e+03,1.013269e+03
2.601503e+03,1.006766e+03
2.604396e+03,1.013220e+03
2.607289e+03,9.999587e+02
2.610182e+03,1.000856e+03
2.613074e+03,1.007995e+03
2.615967e+03,9.999329e+02
2.618860e+03,9.929401e+02
2.621752e+03,1.010637e+03
2.624645e+03,1.025261e+03
2.627538e+03,9.943418e+02
2.630430e+03,1.000592e+03
2.633323e+03,9.969557e+02
2.636216e+03,9.998633e+02
2.639109e+03,1.006557e+03
2.642001e+03,9.796360e+02
2.644894e+03,1.010068e+03
2.647787e+03,9.932568e+02
2.650679e+03,9.721155e+02
2.653572e+03,9.877322e+02
2.656465e+03,1.001562e+03
2.659357e+03,9.660770e+02
2.662250e+03,9.614298e+02
2.665143e+03,9.951183e+02
2.668036e+03,9.859244e+02
2.670928e+03,9.883736e+02
2.673821e+03,9.670434e+02
2.676714e+03,9.643550e+02
2.679606e+03,9.640242e+02
2.682499e+03,9.669815e+02
2.685392e+03,9.593302e+02
2.688284e+03,9.686888e+02
2.691177e+03,9.659709e+02
2.694070e+03,9.597673e+02
2.696963e+03,9.499949e+02
2.699855e+03,9.472878e+02
2.702748e+03,9.694908e+02
2.705641e+03,9.295476e+02
2.708533e+03,9.600276e+02
2.711426e+03,9.451044e+02
2.714319e+03,9.381422e+02
2.717211e+03,9.437338e+02
2.720104e+03,9.450179e+02
2.722997e+03,9.343896e+02
2.725890e+03,9.353885e+02
2.728782e+03,9.318256e+02
2.731675e+03,9.243729e+02
2.734568e+03,9.382229e+02
2.737460e+03,9.415234e+02
2.740353e+03,9.258796e+02
2.743246e+03,9.130408e+02
2.746138e+03,9.339019e+02
2.749031e+03,9.261949e+02
2.751924e+03,9.234899e+02
2.754817e+03,9.178760e+02
2.757709e+03,9.173988e+02
2.760602e+03,9.202601e+02
2.763495e+03,9.001639e+02
2.766387e+03,8.998812e+02
2.769280e+03,9.118653e+02
2.772173e+03,9.054400e+02
2.775065e+03,9.215602e+02
2.777958e+03,9.004144e+02
2.780851e+03,9.012484e+02
2.783744e+03,8.906154e+02
2.786636e+03,8.910544e+02
2.789529e+03,8.998830e+02
2.792422e+03,8.965908e+02
2.795314e+03,8.848817e+02
2.798207e+03,9.099282e+02
2.801100e+03,8.999793e+02
2.803992e+03,8.831475e+02
2.806885e+03,8.973051e+02
2.809778e+03,8.729382e+02
2.812671e+03,8.632139e+02
2.815563e+03,8.900655e+02
2.818456e+03,9.031647e+02
2.821349e+03,8.789003e+02
2.824241e+03,8.639745e+02
2.827134e+03,8.787350e+02
2.830027e+03,8.798400e+02
2.832919e+03,8.822709e+02
2.835812e+03,8.967914e+02
2.838705e+03,8.712626e+02
2.841598e+03,8.665405e+02
2.844490e+03,8.771736e+02
2.847383e+03,8.438546e+02
2.850276e+03,8.869113e+02
2.853168e+03,8.813391e+02
2.856061e+03,8.765774e+02
2.858954e+03,8.762953e+02
2.861846e+03,8.708604e+02
2.864739e+03,8.823490e+02
2.867632e+03,8.708005e+02
2.870525e+03,8.877118e+02
2.873417e+03,8.780803e+02
2.876310e+03,8.622586e+02
2.879203e+03,8.814011e+02
2.882095e+03,9.020222e+02
2.884988e+03,8.995441e+02
2.887881e+03,8.767169e+02
2.890773e+03,8.751464e+02
2.893666e+03,9.043476e+02
2.896559e+03,8.682178e+02
2.899452e+03,8.606390e+02
2.902344e+03,8.745289e+02
2.905237e+03,8.687592e+02
2.908130e+03,8.621310e+02
2.911022e+03,8.663715e+02
2.913915e+03,8.485938e+02
2.916808e+03,8.662537e+02
2.919700e+03,8.648235e+02
2.922593e+03,8.539092e+02
2.925486e+03,8.359742e+02
2.928379e+03,8.394359e+02
2.931271e+03,8.598724e+02
2.934164e+03,8.420219e+02
2.937057e+03,8.556864e+02
2.939949e+03,8.331154e+02
2.942842e+03,8.341453e+02
2.945735e+03,8.463031e+02
2.948627e+03,8.262615e+02
2.951520e+03,8.602592e+02
2.954413e+03,8.495558e+02
2.957306e+03,8.701244e+02
2.960198e+03,8.476017e+02
2.963091e+03,8.209295e+02
2.965984e+03,8.267751e+02
2.968876e+03,8.276984e+02
2.971769e+03,8.170649e+02
2.974662e+03,8.030437e+02
2.977554e+03,8.154614e+02
2.980447e+03,8.020830e+02
2.983340e+03,7.997839e+02
2.986233e+03,7.935017e+02
2.989125e+03,7.960788e+02
2.992018e+03,7.855766e+02
2.994911e+03,7.930273e+02
2.997803e+03,8.113260e+02
3.000696e+03,7.912479e+02
3.003589e+03,7.870505e+02
3.006481e+03,7.890235e+02
3.009374e+03,8.084892e+02
3.012267e+03,7.787855e+02
3.015160e+03,7.741071e+02
3.018052e+03,7.972112e+02
3.020945e+03,7.704319e+02
3.023838e+03,7.605934e+02
3.026730e+03,7.649553e+02
3.029623e+03,7.707914e+02
3.032516e+03,7.464841e+02
3.035408e+03,7.787333e+02
3.038301e+03,7.988525e+02
3.041194e+03,7.765236e+02
3.044087e+03,7.878073e+02
3.046979e+03,7.857640e+02
3.049872e+03,7.624702e+02
3.052765e+03,7.471555e+02
3.055657e+03,7.660585e+02
3.058550e+03,7.422864e+02
3.061443e+03,7.478814e+02
3.064335e+03,7.873483e+02
3.067228e+03,7.640448e+02
3.070121e+03,7.476923e+02
3.073014e+03,7.852016e+02
3.075906e+03,7.714673e+02
3.078799e+03,7.605520e+02
3.081692e+03,7.416531e+02
3.084584e+03,7.235116e+02
3.087477e+03,7.544897e+02
3.090370e+03,7.890267e+02
3.093262e+03,7.560344e+02
3.096155e+03,7.545507e+02
3.099048e+03,7.918771e+02
3.101941e+03,7.476326e+02
3.104833e+03,7.724153e+02
3.107726e+03,7.389785e+02
3.110619e+03,7.336609e+02
3.113511e+03,7.462700e+02
3.116404e+03,7.583153e+02
3.119297e+03,7.558321e+02
3.122189e+03,7.588546e+02
3.125082e+03,7.682260e+02
3.127975e+03,7.343455e+02
3.130868e+03,7.537744e+02
3.133760e+03,7.563387e+02
3.136653e+03,7.540316e+02
3.139546e+03,7.960315e+02
3.142438e+03,7.394659e+02
3.145331e+03,7.554205e+02
3.148224e+03,7.797289e+02
3.151116e+03,7.503322e+02
3.154009e+03,7.188261e+02
3.156902e+03,7.559328e+02
3.159795e+03,7.691417e+02
3.162687e+03,7.643239e+02
3.165580e+03,7.537480e+02
3.168473e+03,7.759578e+02
3.171365e+03,7.390779e+02
3.174258e+03,7.560984e+02
3.177151e+03,7.414980e+02
3.180043e+03,7.196934e+02
3.182936e+03,7.365380e+02
3.185829e+03,7.642299e+02
3.188722e+03,7.720915e+02
3.191614e+03,7.725175e+02
3.194507e+03,7.405139e+02
3.197400e+03,7.724141e+02
3.200292e+03,7.788405e+02
3.203185e+03,0.000000e+00
3.206078e+03,0.000000e+00
3.208970e+03,0.000000e+00
3.211863e+03,0.000000e+00
3.214756e+03,0.000000e+00
3.217649e+03,0.000000e+00
3.220541e+03,0.000000e+00
3.223434e+03,0.000000e+00
3.226327e+03,0.000000e+00
3.229219e+03,0.000000e+00
3.232112e+03,0.000000e+00
3.235005e+03,0.000000e+00
3.237897e+03,0.000000e+00
3.240790e+03,0.000000e+00
3.243683e+03,0.000000e+00
3.246576e+03,0.000000e+00
3.249468e+03,0.000000e+00
3.252361e+03,0.000000e+00
3.255254e+03,0.000000e+00
3.258146e+03,0.000000e+00
3.261039e+03,0.000000e+00
3.263932e+03,0.000000e+00
3.266824e+03,0.000000e+00
3.269717e+03,0.000000e+00
3.272610e+03,0.000000e+00
3.275503e+03,0.000000e+00
3.278395e+03,0.000000e+00
3.281288e+03,0.000000e+00
3.284181e+03,0.000000e+00
3.287073e+03,0.000000e+00
3.289966e+03,0.000000e+00
3.292859e+03,0.000000e+00
3.295751e+03,0.000000e+00
3.298644e+03,0.000000e+00
3.301537e+03,0.000000e+00
3.304430e+03,0.000000e+00
3.307322e+03,0.000000e+00
3.310215e+03,0.000000e+00
3.313108e+03,0.000000e+00
3.316000e+03,0.000000e+00
3.318893e+03,0.000000e+00
3.321786e+03,0.000000e+00
3.324678e+03,0.000000e+00
3.327571e+03,0.000000e+00
3.330464e+03,0.000000e+00
3.333357e+03,0.000000e+00
3.336249e+03,0.000000e+00
3.339142e+03,0.000000e+00
3.342035e+03,0.000000e+00
3.344927e+03,0.000000e+00
3.347820e+03,0.000000e+00
3.350713e+03,0.000000e+00
3.353605e+03,0.000000e+00
3.356498e+03,0.000000e+00
3.359391e+03,0.000000e+00
3.362284e+03,0.000000e+00
3.365176e+03,0.000000e+00
3.368069e+03,0.000000e+00
3.370962e+03,0.000000e+00
3.373854e+03,0.000000e+00
3.376747e+03,0.000000e+00
3.379640e+03,0.000000e+00
3.382532e+03,0.000000e+00
3.385425e+03,0.000000e+00
3.388318e+03,0.000000e+00
3.391211e+03,0.000000e+00
3.394103e+03,0.000000e+00
3.396996e+03,0.000000e+00
3.399889e+03,0.000000e+00
3.402781e+03,0.000000e+00
3.405674e+03,0.000000e+00
3.408567e+03,0.000000e+00
3.411459e+03,0.000000e+00
3.414352e+03,0.000000e+00
3.417245e+03,0.000000e+00
3.420138e+03,0.000000e+00
3.423030e+03,0.000000e+00
3.425923e+03,0.000000e+00
3.428816e+03,0.000000e+00
3.431708e+03,0.000000e+00
3.434601e+03,0.000000e+00
3.437494e+03,0.000000e+00
3.440386e+03,0.000000e+00
3.443279e+03,0.000000e+00
3.446172e+03,0.000000e+00
3.449065e+03,0.000000e+00
3.451957e+03,0.000000e+00
3.454850e+03,0.000000e+00
3.457743e+03,0.000000e+00
3.460635e+03,0.000000e+00
3.463528e+03,0.000000e+00
3.466421e+03,0.000000e+00
3.469313e+03,0.000000e+00
3.472206e+03,0.000000e+00
3.475099e+03,0.000000e+00
3.477992e+03,0.000000e+00
3.480884e+03,0.000000e+00
3.483777e+03,0.000000e+00
3.486670e+03,0.000000e+00
3.489563e+03,0.000000e+00
3.492455e+03,0.000000e+00
3.495348e+03,0.000000e+00
3.498240e+03,0.000000e+00
3.500169e+03,0.000000e+00