File: RAMAN_data/13112023_r1/black fibre8.CSV
9.931763e+01,0.000000e+00
1.022103e+02,0.000000e+00
1.051030e+02,0.000000e+00
1.079957e+02,0.000000e+00
1.108884e+02,0.000000e+00
1.137811e+02,0.000000e+00
1.166738e+02,0.000000e+00
1.195665e+02,0.000000e+00
1.224592e+02,0.000000e+00
1.253519e+02,0.000000e+00
1.282446e+02,0.000000e+00
1.311373e+02,0.000000e+00
1.340300e+02,0.000000e+00
1.369227e+02,0.000000e+00
1.398154e+02,0.000000e+00
1.427081e+02,0.000000e+00
1.456008e+02,0.000000e+00
1.484935e+02,0.000000e+00
1.513862e+02,0.000000e+00
1.542789e+02,0.000000e+00
1.571716e+02,0.000000e+00
1.600643e+02,0.000000e+00
1.629570e+02,0.000000e+00
1.658497e+02,0.000000e+00
1.687424e+02,0.000000e+00
1.716351e+02,0.000000e+00
1.745278e+02,0.000000e+00
1.774205e+02,0.000000e+00
1.803132e+02,0.000000e+00
1.832059e+02,0.000000e+00
1.860986e+02,0.000000e+00
1.889913e+02,0.000000e+00
1.918840e+02,0.000000e+00
1.947767e+02,0.000000e+00
1.976694e+02,0.000000e+00
2.005621e+02,2.847753e+03
2.034548e+02,2.853036e+03
2.063475e+02,2.862564e+03
2.092402e+02,2.865228e+03
2.121329e+02,2.866568e+03
2.150256e+02,2.886462e+03
2.179183e+02,2.879710e+03
2.208110e+02,2.898067e+03
2.237037e+02,2.894847e+03
2.265964e+02,2.887419e+03
2.294892e+02,2.897437e+03
2.323819e+02,2.915210e+03
2.352746e+02,2.930061e+03
2.381673e+02,2.921591e+03
2.410600e+02,2.914142e+03
2.439527e+02,2.927814e+03
2.468454e+02,2.933306e+03
2.497381e+02,2.936414e+03
2.526308e+02,2.954496e+03
2.555235e+02,2.951539e+03
2.584161e+02,2.935931e+03
2.613088e+02,2.951771e+03
2.642015e+02,2.958282e+03
2.670942e+02,2.956935e+03
2.699869e+02,2.963532e+03
2.728796e+02,2.958624e+03
2.757723e+02,2.974433e+03
2.786650e+02,2.986030e+03
2.815577e+02,2.980911e+03
2.844504e+02,2.989645e+03
2.873431e+02,2.991465e+03
2.902358e+02,2.996134e+03
2.931285e+02,2.992914e+03
2.960212e+02,3.004511e+03
2.989139e+02,3.006307e+03
3.018066e+02,3.029784e+03
3.046993e+02,3.018492e+03
3.075920e+02,3.010875e+03
3.104847e+02,3.034126e+03
3.133774e+02,3.037835e+03
3.162701e+02,3.031597e+03
3.191628e+02,3.032171e+03
3.220555e+02,3.031241e+03
3.249482e+02,3.045419e+03
3.278409e+02,3.042843e+03
3.307336e+02,3.052552e+03
3.336263e+02,3.059739e+03
3.365190e+02,3.059656e+03
3.394117e+02,3.049045e+03
3.423044e+02,3.053171e+03
3.451971e+02,3.070226e+03
3.480898e+02,3.067172e+03
3.509825e+02,3.063101e+03
3.538752e+02,3.065616e+03
3.567680e+02,3.081847e+03
3.596607e+02,3.062772e+03
3.625534e+02,3.065330e+03
3.654461e+02,3.067032e+03
3.683388e+02,3.078537e+03
3.712315e+02,3.094419e+03
3.741242e+02,3.095574e+03
3.770169e+02,3.112222e+03
3.799096e+02,3.118524e+03
3.828023e+02,3.087931e+03
3.856950e+02,3.085877e+03
3.885877e+02,3.076947e+03
3.914804e+02,3.079733e+03
3.943731e+02,3.097187e+03
3.972658e+02,3.083702e+03
4.001585e+02,3.072219e+03
4.030512e+02,3.092407e+03
4.059439e+02,3.092519e+03
4.088366e+02,3.083635e+03
4.117293e+02,3.096145e+03
4.146220e+02,3.103836e+03
4.175147e+02,3.085154e+03
4.204074e+02,3.089217e+03
4.233001e+02,3.083694e+03
4.261928e+02,3.098726e+03
4.290855e+02,3.109337e+03
4.319782e+02,3.108944e+03
4.348709e+02,3.111263e+03
4.377636e+02,3.108286e+03
4.406563e+02,3.107616e+03
4.435490e+02,3.104397e+03
4.464417e+02,3.104032e+03
4.493344e+02,3.118052e+03
4.522271e+02,3.107557e+03
4.551198e+02,3.124069e+03
4.580125e+02,3.104612e+03
4.609052e+02,3.098875e+03
4.637979e+02,3.105977e+03
4.666906e+02,3.087754e+03
4.695833e+02,3.088250e+03
4.724760e+02,3.090076e+03
4.753687e+02,3.100953e+03
4.782614e+02,3.086753e+03
4.811541e+02,3.100656e+03
4.840468e+02,3.088051e+03
4.869395e+02,3.077694e+03
4.898322e+02,3.094331e+03
4.927249e+02,3.086447e+03
4.956176e+02,3.085139e+03
4.985103e+02,3.101218e+03
5.014030e+02,3.104308e+03
5.042957e+02,3.086261e+03
5.071884e+02,3.087845e+03
5.100811e+02,3.094262e+03
5.129738e+02,3.106474e+03
5.158665e+02,3.116123e+03
5.187592e+02,3.085120e+03
5.216519e+02,3.070437e+03
5.245446e+02,3.087516e+03
5.274373e+02,3.089313e+03
5.303300e+02,3.081616e+03
5.332227e+02,3.083675e+03
5.361154e+02,3.086441e+03
5.390081e+02,3.087831e+03
5.419008e+02,3.075572e+03
5.447935e+02,3.080435e+03
5.476862e+02,3.081795e+03
5.505789e+02,3.083442e+03
5.534716e+02,3.057394e+03
5.563643e+02,3.084304e+03
5.592570e+02,3.077513e+03
5.621497e+02,3.097157e+03
5.650424e+02,3.075090e+03
5.679351e+02,3.061136e+03
5.708278e+02,3.066835e+03
5.737205e+02,3.071115e+03
5.766132e+02,3.074794e+03
5.795059e+02,3.066365e+03
5.823986e+02,3.069774e+03
5.852913e+02,3.058268e+03
5.881840e+02,3.070798e+03
5.910767e+02,3.067671e+03
5.939694e+02,3.057352e+03
5.968621e+02,3.069777e+03
5.997548e+02,3.054438e+03
6.026475e+02,3.079096e+03
6.055402e+02,3.069317e+03
6.084329e+02,3.071531e+03
6.113256e+02,3.064671e+03
6.142183e+02,3.042138e+03
6.171110e+02,3.051942e+03
6.200037e+02,3.043090e+03
6.228964e+02,3.050390e+03
6.257891e+02,3.047290e+03
6.286818e+02,3.048931e+03
6.315745e+02,3.046402e+03
6.344672e+02,3.049082e+03
6.373599e+02,3.046445e+03
6.402526e+02,3.050613e+03
6.431453e+02,3.055687e+03
6.460380e+02,3.039336e+03
6.489307e+02,3.038727e+03
6.518234e+02,3.034578e+03
6.547161e+02,3.037445e+03
6.576088e+02,3.052368e+03
6.605015e+02,3.032193e+03
6.633942e+02,3.021497e+03
6.662869e+02,3.028989e+03
6.691796e+02,3.039563e+03
6.720723e+02,3.031044e+03
6.749650e+02,3.019280e+03
6.778577e+02,3.010974e+03
6.807504e+02,3.029310e+03
6.836431e+02,3.017325e+03
6.865358e+02,3.007979e+03
6.894285e+02,3.014716e+03
6.923212e+02,3.002195e+03
6.952139e+02,3.014715e+03
6.981066e+02,3.014220e+03
7.009993e+02,2.990913e+03
7.038920e+02,3.000957e+03
7.067847e+02,3.005589e+03
7.096774e+02,2.992878e+03
7.125701e+02,2.981231e+03
7.154628e+02,2.993771e+03
7.183555e+02,3.021043e+03
7.212482e+02,2.992112e+03
7.241409e+02,2.987419e+03
7.270336e+02,2.975773e+03
7.299263e+02,2.998100e+03
7.328190e+02,2.974798e+03
7.357117e+02,2.987487e+03
7.386044e+02,2.960029e+03
7.414971e+02,2.973272e+03
7.443898e+02,2.964685e+03
7.472825e+02,2.981724e+03
7.501752e+02,2.973426e+03
7.530679e+02,2.959325e+03
7.559606e+02,2.953336e+03
7.588533e+02,2.959789e+03
7.617460e+02,2.963058e+03
7.646387e+02,2.956469e+03
7.675314e+02,2.956543e+03
7.704241e+02,2.935444e+03
7.733168e+02,2.933597e+03
7.762095e+02,2.937513e+03
7.791022e+02,2.936409e+03
7.819949e+02,2.949728e+03
7.848876e+02,2.930878e+03
7.877803e+02,2.932550e+03
7.906730e+02,2.934509e+03
7.935657e+02,2.932864e+03
7.964584e+02,2.919712e+03
7.993511e+02,2.928397e+03
8.022438e+02,2.923090e+03
8.051365e+02,2.912788e+03
8.080292e+02,2.919960e+03
8.109219e+02,2.926282e+03
8.138146e+02,2.925640e+03
8.167073e+02,2.919058e+03
8.196000e+02,2.906032e+03
8.224927e+02,2.919259e+03
8.253854e+02,2.898193e+03
8.282781e+02,2.892629e+03
8.311708e+02,2.904592e+03
8.340635e+02,2.893783e+03
8.369562e+02,2.901345e+03
8.398489e+02,2.888258e+03
8.427416e+02,2.895863e+03
8.456343e+02,2.884118e+03
8.485270e+02,2.878749e+03
8.514197e+02,2.881835e+03
8.543124e+02,2.878238e+03
8.572051e+02,2.871660e+03
8.600978e+02,2.874619e+03
8.629905e+02,2.877905e+03
8.658832e+02,2.863295e+03
8.687759e+02,2.846345e+03
8.716686e+02,2.869043e+03
8.745613e+02,2.851431e+03
8.774540e+02,2.869569e+03
8.803467e+02,2.858706e+03
8.832394e+02,2.859403e+03
8.861321e+02,2.860029e+03
8.890248e+02,2.844686e+03
8.919175e+02,2.856377e+03
8.948102e+02,2.851379e+03
8.977029e+02,2.847110e+03
9.005956e+02,2.829151e+03
9.034883e+02,2.851677e+03
9.063810e+02,2.816723e+03
9.092737e+02,2.823018e+03
9.121664e+02,2.829464e+03
9.150591e+02,2.822133e+03
9.179518e+02,2.809455e+03
9.208445e+02,2.811559e+03
9.237372e+02,2.801828e+03
9.266299e+02,2.793992e+03
9.295226e+02,2.806659e+03
9.324153e+02,2.795731e+03
9.353080e+02,2.790698e+03
9.382007e+02,2.786451e+03
9.410934e+02,2.784957e+03
9.439861e+02,2.786331e+03
9.468788e+02,2.774832e+03
9.497715e+02,2.784974e+03
9.526642e+02,2.790259e+03
9.555569e+02,2.777949e+03
9.584496e+02,2.778638e+03
9.613423e+02,2.767701e+03
9.642350e+02,2.776183e+03
9.671277e+02,2.762214e+03
9.700204e+02,2.754810e+03
9.729131e+02,2.755468e+03
9.758058e+02,2.740680e+03
9.786985e+02,2.759011e+03
9.815912e+02,2.747138e+03
9.844839e+02,2.745614e+03
9.873766e+02,2.736863e+03
9.902693e+02,2.747588e+03
9.931620e+02,2.739827e+03
9.960547e+02,2.737344e+03
9.989474e+02,2.748905e+03
1.001840e+03,2.714551e+03
1.004733e+03,2.721484e+03
1.007626e+03,2.706154e+03
1.010518e+03,2.724965e+03
1.013411e+03,2.729091e+03
1.016304e+03,2.703615e+03
1.019196e+03,2.706201e+03
1.022089e+03,2.705976e+03
1.024982e+03,2.718518e+03
1.027875e+03,2.716552e+03
1.030767e+03,2.706957e+03
1.033660e+03,2.699251e+03
1.036552e+03,2.717121e+03
1.039445e+03,2.699173e+03
1.042338e+03,2.696753e+03
1.045231e+03,2.691533e+03
1.048123e+03,2.681889e+03
1.051016e+03,2.676033e+03
1.053909e+03,2.696938e+03
1.056802e+03,2.693642e+03
1.059694e+03,2.682774e+03
1.062587e+03,2.682073e+03
1.065479e+03,2.679985e+03
1.068372e+03,2.695436e+03
1.071265e+03,2.697200e+03
1.074158e+03,2.689129e+03
1.077050e+03,2.661152e+03
1.079943e+03,2.674937e+03
1.082836e+03,2.683112e+03
1.085729e+03,2.690366e+03
1.088621e+03,2.706297e+03
1.091514e+03,2.713183e+03
1.094406e+03,2.705535e+03
1.097299e+03,2.678493e+03
1.100192e+03,2.685418e+03
1.103085e+03,2.665626e+03
1.105977e+03,2.675295e+03
1.108870e+03,2.667030e+03
1.111763e+03,2.652961e+03
1.114656e+03,2.663841e+03
1.117548e+03,2.678850e+03
1.120441e+03,2.664445e+03
1.123334e+03,2.672106e+03
1.126226e+03,2.655904e+03
1.129119e+03,2.642051e+03
1.132012e+03,2.630767e+03
1.134904e+03,2.628551e+03
1.137797e+03,2.610984e+03
1.140690e+03,2.617536e+03
1.143583e+03,2.620269e+03
1.146475e+03,2.620265e+03
1.149368e+03,2.623508e+03
1.152261e+03,2.606400e+03
1.155153e+03,2.605208e+03
1.158046e+03,2.594983e+03
1.160939e+03,2.586466e+03
1.163831e+03,2.609878e+03
1.166724e+03,2.584487e+03
1.169617e+03,2.578247e+03
1.172510e+03,2.562366e+03
1.175402e+03,2.565546e+03
1.178295e+03,2.573316e+03
1.181188e+03,2.570336e+03
1.184080e+03,2.577853e+03
1.186973e+03,2.562871e+03
1.189866e+03,2.549103e+03
1.192758e+03,2.546212e+03
1.195651e+03,2.561343e+03
1.198544e+03,2.561613e+03
1.201437e+03,2.547783e+03
1.204329e+03,2.549529e+03
1.207222e+03,2.543062e+03
1.210115e+03,2.553038e+03
1.213007e+03,2.550538e+03
1.215900e+03,2.523972e+03
1.218793e+03,2.526228e+03
1.221685e+03,2.527839e+03
1.224578e+03,2.539703e+03
1.227471e+03,2.544833e+03
1.230364e+03,2.530215e+03
1.233256e+03,2.518722e+03
1.236149e+03,2.518405e+03
1.239042e+03,2.526266e+03
1.241934e+03,2.516915e+03
1.244827e+03,2.534078e+03
1.247720e+03,2.508246e+03
1.250612e+03,2.499017e+03
1.253505e+03,2.496819e+03
1.256398e+03,2.505750e+03
1.259291e+03,2.497750e+03
1.262183e+03,2.498973e+03
1.265076e+03,2.506329e+03
1.267969e+03,2.496634e+03
1.270861e+03,2.497058e+03
1.273754e+03,2.498677e+03
1.276647e+03,2.500023e+03
1.279539e+03,2.493110e+03
1.282432e+03,2.492108e+03
1.285325e+03,2.484542e+03
1.288218e+03,2.482767e+03
1.291110e+03,2.482500e+03
1.294003e+03,2.493398e+03
1.296896e+03,2.486996e+03
1.299788e+03,2.466734e+03
1.302681e+03,2.466111e+03
1.305574e+03,2.473685e+03
1.308466e+03,2.471793e+03
1.311359e+03,2.454827e+03
1.314252e+03,2.466615e+03
1.317145e+03,2.462235e+03
1.320037e+03,2.472642e+03
1.322930e+03,2.467759e+03
1.325823e+03,2.456637e+03
1.328715e+03,2.456909e+03
1.331608e+03,2.467882e+03
1.334501e+03,2.473598e+03
1.337393e+03,2.456265e+03
1.340286e+03,2.448477e+03
1.343179e+03,2.450683e+03
1.346072e+03,2.444862e+03
1.348964e+03,2.450777e+03
1.351857e+03,2.443080e+03
1.354750e+03,2.443505e+03
1.357642e+03,2.425368e+03
1.360535e+03,2.431974e+03
1.363428e+03,2.435753e+03
1.366320e+03,2.437251e+03
1.369213e+03,2.440185e+03
1.372106e+03,2.428897e+03
1.374999e+03,2.425195e+03
1.377891e+03,2.419147e+03
1.380784e+03,2.422030e+03
1.383677e+03,2.425966e+03
1.386569e+03,2.409786e+03
1.389462e+03,2.388230e+03
1.392355e+03,2.391698e+03
1.395247e+03,2.399643e+03
1.398140e+03,2.389405e+03
1.401033e+03,2.383696e+03
1.403926e+03,2.381465e+03
1.406818e+03,2.382859e+03
1.409711e+03,2.387201e+03
1.412604e+03,2.382969e+03
1.415496e+03,2.368064e+03
1.418389e+03,2.376591e+03
1.421282e+03,2.368006e+03
1.424174e+03,2.371621e+03
1.427067e+03,2.359069e+03
1.429960e+03,2.357584e+03
1.432853e+03,2.356743e+03
1.435745e+03,2.350272e+03
1.438638e+03,2.365516e+03
1.441531e+03,2.356066e+03
1.444423e+03,2.350790e+03
1.447316e+03,2.349480e+03
1.450209e+03,2.328741e+03
1.453101e+03,2.347384e+03
1.455994e+03,2.338614e+03
1.458887e+03,2.337924e+03
1.461780e+03,2.339772e+03
1.464672e+03,2.342323e+03
1.467565e+03,2.325900e+03
1.470458e+03,2.329819e+03
1.473350e+03,2.329184e+03
1.476243e+03,2.318439e+03
1.479136e+03,2.332843e+03
1.482028e+03,2.312042e+03
1.484921e+03,2.302153e+03
1.487814e+03,2.307900e+03
1.490707e+03,2.308709e+03
1.493599e+03,2.293933e+03
1.496492e+03,2.297528e+03
1.499385e+03,2.291676e+03
1.502277e+03,2.297952e+03
1.505170e+03,2.304604e+03
1.508063e+03,2.297816e+03
1.510955e+03,2.295419e+03
1.513848e+03,2.290686e+03
1.516741e+03,2.279566e+03
1.519634e+03,2.279662e+03
1.522526e+03,2.284113e+03
1.525419e+03,2.277658e+03
1.528312e+03,2.274819e+03
1.531204e+03,2.271939e+03
1.534097e+03,2.283658e+03
1.536990e+03,2.266529e+03
1.539882e+03,2.272576e+03
1.542775e+03,2.262975e+03
1.545668e+03,2.249825e+03
1.548561e+03,2.258517e+03
1.551453e+03,2.271175e+03
1.554346e+03,2.267865e+03
1.557239e+03,2.255364e+03
1.560131e+03,2.254761e+03
1.563024e+03,2.260964e+03
1.565917e+03,2.253408e+03
1.568809e+03,2.238534e+03
1.571702e+03,2.245048e+03
1.574595e+03,2.252189e+03
1.577488e+03,2.241267e+03
1.580380e+03,2.235855e+03
1.583273e+03,2.235381e+03
1.586166e+03,2.243148e+03
1.589058e+03,2.235503e+03
1.591951e+03,2.226415e+03
1.594844e+03,2.229871e+03
1.597736e+03,2.227644e+03
1.600629e+03,2.218940e+03
1.603522e+03,2.228034e+03
1.606415e+03,2.209358e+03
1.609307e+03,2.187988e+03
1.612200e+03,2.198742e+03
1.615093e+03,2.194100e+03
1.617985e+03,2.213427e+03
1.620878e+03,2.190412e+03
1.623771e+03,2.195021e+03
1.626663e+03,2.199134e+03
1.629556e+03,2.199299e+03
1.632449e+03,2.181966e+03
1.635342e+03,2.156990e+03
1.638234e+03,2.173824e+03
1.641127e+03,2.175167e+03
1.644020e+03,2.183314e+03
1.646912e+03,2.161196e+03
1.649805e+03,2.154431e+03
1.652698e+03,2.166045e+03
1.655590e+03,2.144920e+03
1.658483e+03,2.137360e+03
1.661376e+03,2.137843e+03
1.664269e+03,2.141837e+03
1.667161e+03,2.130685e+03
1.670054e+03,2.125809e+03
1.672947e+03,2.146290e+03
1.675839e+03,2.122146e+03
1.678732e+03,2.126796e+03
1.681625e+03,2.108042e+03
1.684517e+03,2.126465e+03
1.687410e+03,2.123278e+03
1.690303e+03,2.117321e+03
1.693196e+03,2.100598e+03
1.696088e+03,2.112545e+03
1.698981e+03,2.103555e+03
1.701874e+03,2.115334e+03
1.704766e+03,2.110300e+03
1.707659e+03,2.091927e+03
1.710552e+03,2.096160e+03
1.713444e+03,2.088193e+03
1.716337e+03,2.086618e+03
1.719230e+03,2.075137e+03
1.722123e+03,2.089428e+03
1.725015e+03,2.063616e+03
1.727908e+03,2.072420e+03
1.730801e+03,2.077135e+03
1.733693e+03,2.075305e+03
1.736586e+03,2.081421e+03
1.739479e+03,2.064464e+03
1.742371e+03,2.057822e+03
1.745264e+03,2.055674e+03
1.748157e+03,2.055972e+03
1.751050e+03,2.041667e+03
1.753942e+03,2.037508e+03
1.756835e+03,2.037658e+03
1.759728e+03,2.044982e+03
1.762620e+03,2.024843e+03
1.765513e+03,2.018156e+03
1.768406e+03,2.030419e+03
1.771298e+03,2.038636e+03
1.774191e+03,2.018717e+03
1.777084e+03,2.035736e+03
1.779977e+03,2.011209e+03
1.782869e+03,2.032572e+03
1.785762e+03,2.028230e+03
1.788655e+03,2.009323e+03
1.791547e+03,2.000661e+03
1.794440e+03,2.004827e+03
1.797333e+03,2.013529e+03
1.800225e+03,2.010280e+03
1.803118e+03,2.009800e+03
1.806011e+03,1.991674e+03
1.808904e+03,1.991913e+03
1.811796e+03,1.980764e+03
1.814689e+03,1.987426e+03
1.817582e+03,2.004771e+03
1.820474e+03,1.985419e+03
1.823367e+03,1.971435e+03
1.826260e+03,1.964648e+03
1.829152e+03,1.972914e+03
1.832045e+03,1.956768e+03
1.834938e+03,1.965114e+03
1.837831e+03,1.957555e+03
1.840723e+03,1.956506e+03
1.843616e+03,1.947378e+03
1.846509e+03,1.949500e+03
1.849401e+03,1.931841e+03
1.852294e+03,1.952778e+03
1.855187e+03,1.937988e+03
1.858079e+03,1.940313e+03
1.860972e+03,1.924056e+03
1.863865e+03,1.933661e+03
1.866758e+03,1.921765e+03
1.869650e+03,1.944164e+03
1.872543e+03,1.935417e+03
1.875436e+03,1.943093e+03
1.878328e+03,1.915093e+03
1.881221e+03,1.900702e+03
1.884114e+03,1.903403e+03
1.887006e+03,1.917578e+03
1.889899e+03,1.906357e+03
1.892792e+03,1.883229e+03
1.895685e+03,1.914663e+03
1.898577e+03,1.914380e+03
1.901470e+03,1.891863e+03
1.904363e+03,1.886846e+03
1.907255e+03,1.887110e+03
1.910148e+03,1.872813e+03
1.913041e+03,1.870098e+03
1.915933e+03,1.868031e+03
1.918826e+03,1.862035e+03
1.921719e+03,1.864798e+03
1.924612e+03,1.859452e+03
1.927504e+03,1.858175e+03
1.930397e+03,1.858570e+03
1.933290e+03,1.849066e+03
1.936182e+03,1.853478e+03
1.939075e+03,1.841532e+03
1.941968e+03,1.845396e+03
1.944860e+03,1.849883e+03
1.947753e+03,1.832820e+03
1.950646e+03,1.823509e+03
1.953539e+03,1.837069e+03
1.956431e+03,1.814219e+03
1.959324e+03,1.835209e+03
1.962217e+03,1.825672e+03
1.965109e+03,1.832525e+03
1.968002e+03,1.822712e+03
1.970895e+03,1.813367e+03
1.973787e+03,1.802417e+03
1.976680e+03,1.797885e+03
1.979573e+03,1.788615e+03
1.982466e+03,1.803433e+03
1.985358e+03,1.803624e+03
1.988251e+03,1.791823e+03
1.991144e+03,1.779800e+03
1.994036e+03,1.785142e+03
1.996929e+03,1.774154e+03
1.999822e+03,1.770913e+03
2.002714e+03,1.762767e+03
2.005607e+03,1.773343e+03
2.008500e+03,1.763725e+03
2.011393e+03,1.766457e+03
2.014285e+03,1.755744e+03
2.017178e+03,1.752369e+03
2.020071e+03,1.745935e+03
2.022963e+03,1.729309e+03
2.025856e+03,1.740845e+03
2.028749e+03,1.743600e+03
2.031641e+03,1.725701e+03
2.034534e+03,1.717004e+03
2.037427e+03,1.736155e+03
2.040320e+03,1.721162e+03
2.043212e+03,1.707588e+03
2.046105e+03,1.721937e+03
2.048998e+03,1.703049e+03
2.051890e+03,1.715832e+03
2.054783e+03,1.698469e+03
2.057676e+03,1.703817e+03
2.060568e+03,1.700979e+03
2.063461e+03,1.676576e+03
2.066354e+03,1.699711e+03
2.069247e+03,1.683167e+03
2.072139e+03,1.673762e+03
2.075032e+03,1.680422e+03
2.077925e+03,1.672430e+03
2.080817e+03,1.687117e+03
2.083710e+03,1.663495e+03
2.086603e+03,1.662227e+03
2.089496e+03,1.661158e+03
2.092388e+03,1.642710e+03
2.095281e+03,1.668686e+03
2.098174e+03,1.644485e+03
2.101066e+03,1.652037e+03
2.103959e+03,1.627289e+03
2.106852e+03,1.649174e+03
2.109744e+03,1.645567e+03
2.112637e+03,1.636072e+03
2.115530e+03,1.632214e+03
2.118422e+03,1.628618e+03
2.121315e+03,1.622942e+03
2.124208e+03,1.620442e+03
2.127101e+03,1.610742e+03
2.129993e+03,1.621805e+03
2.132886e+03,1.598018e+03
2.135779e+03,1.604007e+03
2.138671e+03,1.597133e+03
2.141564e+03,1.597859e+03
2.144457e+03,1.582794e+03
2.147350e+03,1.579536e+03
2.150242e+03,1.588999e+03
2.153135e+03,1.575022e+03
2.156028e+03,1.561585e+03
2.158920e+03,1.585811e+03
2.161813e+03,1.581287e+03
2.164706e+03,1.556744e+03
2.167598e+03,1.566924e+03
2.170491e+03,1.547409e+03
2.173384e+03,1.557837e+03
2.176277e+03,1.565197e+03
2.179169e+03,1.532598e+03
2.182062e+03,1.551941e+03
2.184955e+03,1.542853e+03
2.187847e+03,1.547097e+03
2.190740e+03,1.532233e+03
2.193633e+03,1.524080e+03
2.196525e+03,1.519508e+03
2.199418e+03,1.522125e+03
2.202311e+03,1.512125e+03
2.205204e+03,1.516403e+03
2.208096e+03,1.527001e+03
2.210989e+03,1.488008e+03
2.213882e+03,1.514222e+03
2.216774e+03,1.488048e+03
2.219667e+03,1.501525e+03
2.222560e+03,1.501617e+03
2.225452e+03,1.494079e+03
2.228345e+03,1.483799e+03
2.231238e+03,1.488219e+03
2.234131e+03,1.486391e+03
2.237023e+03,1.470283e+03
2.239916e+03,1.467807e+03
2.242809e+03,1.454782e+03
2.245701e+03,1.466385e+03
2.248594e+03,1.465660e+03
2.251487e+03,1.468228e+03
2.254379e+03,1.457221e+03
2.257272e+03,1.454004e+03
2.260165e+03,1.446632e+03
2.263058e+03,1.433297e+03
2.265950e+03,1.444206e+03
2.268843e+03,1.448685e+03
2.271736e+03,1.429823e+03
2.274628e+03,1.425128e+03
2.277521e+03,1.410118e+03
2.280414e+03,1.437975e+03
2.283306e+03,1.428220e+03
2.286199e+03,1.410919e+03
2.289092e+03,1.413740e+03
2.291985e+03,1.402900e+03
2.294877e+03,1.420982e+03
2.297770e+03,1.404749e+03
2.300663e+03,1.411740e+03
2.303555e+03,1.392633e+03
2.306448e+03,1.369869e+03
2.309341e+03,1.392550e+03
2.312233e+03,1.374774e+03
2.315126e+03,1.377107e+03
2.318019e+03,1.356325e+03
2.320912e+03,1.358662e+03
2.323804e+03,1.367192e+03
2.326697e+03,1.370617e+03
2.329590e+03,1.373799e+03
2.332482e+03,1.362976e+03
2.335375e+03,1.359646e+03
2.338268e+03,1.345416e+03
2.341160e+03,1.355926e+03
2.344053e+03,1.342150e+03
2.346946e+03,1.353124e+03
2.349839e+03,1.348059e+03
2.352731e+03,1.325618e+03
2.355624e+03,1.335438e+03
2.358517e+03,1.334292e+03
2.361409e+03,1.343819e+03
2.364302e+03,1.314577e+03
2.367195e+03,1.312289e+03
2.370087e+03,1.320033e+03
2.372980e+03,1.300729e+03
2.375873e+03,1.310419e+03
2.378766e+03,1.315079e+03
2.381658e+03,1.299776e+03
2.384551e+03,1.298844e+03
2.387444e+03,1.280654e+03
2.390336e+03,1.293629e+03
2.393229e+03,1.291627e+03
2.396122e+03,1.289688e+03
2.399014e+03,1.290803e+03
2.401907e+03,1.275672e+03
2.404800e+03,1.270917e+03
2.407693e+03,1.292050e+03
2.410585e+03,1.268923e+03
2.413478e+03,1.270335e+03
2.416371e+03,1.262341e+03
2.419263e+03,1.251827e+03
2.422156e+03,1.255076e+03
2.425049e+03,1.262746e+03
2.427941e+03,1.243610e+03
2.430834e+03,1.252680e+03
2.433727e+03,1.250182e+03
2.436620e+03,1.240488e+03
2.439512e+03,1.247115e+03
2.442405e+03,1.233360e+03
2.445298e+03,1.225262e+03
2.448190e+03,1.224376e+03
2.451083e+03,1.218194e+03
2.453976e+03,1.230968e+03
2.456868e+03,1.226642e+03
2.459761e+03,1.204566e+03
2.462654e+03,1.219276e+03
2.465547e+03,1.224835e+03
2.468439e+03,1.197787e+03
2.471332e+03,1.221765e+03
2.474225e+03,1.209589e+03
2.477117e+03,1.188712e+03
2.480010e+03,1.214852e+03
2.482903e+03,1.201638e+03
2.485795e+03,1.191145e+03
2.488688e+03,1.190803e+03
2.491581e+03,1.181944e+03
2.494474e+03,1.195920e+03
2.497366e+03,1.184265e+03
2.500259e+03,1.186643e+03
2.503152e+03,1.172832e+03
2.506044e+03,1.188523e+03
2.508937e+03,1.163449e+03
2.511830e+03,1.178272e+03
2.514722e+03,1.167001e+03
2.517615e+03,1.164481e+03
2.520508e+03,1.153178e+03
2.523401e+03,1.138786e+03
2.526293e+03,1.170175e+03
2.529186e+03,1.157756e+03
2.532079e+03,1.152175e+03
2.534971e+03,1.161888e+03
2.537864e+03,1.141676e+03
2.540757e+03,1.157323e+03
2.543649e+03,1.162402e+03
2.546542e+03,1.144885e+03
2.549435e+03,1.131767e+03
2.552328e+03,1.131584e+03
2.555220e+03,1.121211e+03
2.558113e+03,1.119319e+03
2.561006e+03,1.131722e+03
2.563898e+03,1.142419e+03
2.566791e+03,1.125406e+03
2.569684e+03,1.117577e+03
2.572576e+03,1.116703e+03
2.575469e+03,1.128552e+03
2.578362e+03,1.111448e+03
2.581255e+03,1.104905e+03
2.584147e+03,1.121492e+03
2.587040e+03,1.100304e+03
2.589933e+03,1.111689e+03
2.592825e+03,1.117243e+03
2.595718e+03,1.096314e+03
2.598611e+03,1.094075e+03
2.601503e+03,1.094980e+03
2.604396e+03,1.089723e+03
2.607289e+03,1.089308e+03
2.610182e+03,1.092042e+03
2.613074e+03,1.063328e+03
2.615967e+03,1.086852e+03
2.618860e+03,1.085613e+03
2.621752e+03,1.084884e+03
2.624645e+03,1.084109e+03
2.627538e+03,1.083304e+03
2.630430e+03,1.065650e+03
2.633323e+03,1.067517e+03
2.636216e+03,1.071722e+03
2.639109e+03,1.066526e+03
2.642001e+03,1.064262e+03
2.644894e+03,1.062194e+03
2.647787e+03,1.069798e+03
2.650679e+03,1.050816e+03
2.653572e+03,1.058715e+03
2.656465e+03,1.048527e+03
2.659357e+03,1.032659e+03
2.662250e+03,1.044974e+03
2.665143e+03,1.046783e+03
2.668036e+03,1.039736e+03
2.670928e+03,1.048192e+03
2.673821e+03,1.035856e+03
2.676714e+03,1.040174e+03
2.679606e+03,1.027059e+03
2.682499e+03,1.037316e+03
2.685392e+03,1.045168e+03
2.688284e+03,1.032275e+03
2.691177e+03,1.013059e+03
2.694070e+03,1.027128e+03
2.696963e+03,1.026254e+03
2.699855e+03,1.029417e+03
2.702748e+03,1.029716e+03
2.705641e+03,1.028867e+03
2.708533e+03,1.038874e+03
2.711426e+03,1.012145e+03
2.714319e+03,1.006406e+03
2.717211e+03,1.020677e+03
2.720104e+03,1.003853e+03
2.722997e+03,1.020278e+03
2.725890e+03,1.019170e+03
2.728782e+03,1.008913e+03
2.731675e+03,1.007214e+03
2.734568e+03,1.008718e+03
2.737460e+03,9.872874e+02
2.740353e+03,9.920244e+02
2.743246e+03,9.851232e+02
2.746138e+03,1.000773e+03
2.749031e+03,1.002054e+03
2.751924e+03,9.822976e+02
2.754817e+03,9.930234e+02
2.757709e+03,1.005079e+03
2.760602e+03,9.988570e+02
2.763495e+03,9.868881e+02
2.766387e+03,9.710974e+02
2.769280e+03,9.826611e+02
2.772173e+03,9.685755e+02
2.775065e+03,9.939266e+02
2.777958e+03,9.672645e+02
2.780851e+03,9.760297e+02
2.783744e+03,9.581299e+02
2.786636e+03,9.653726e+02
2.789529e+03,9.792577e+02
2.792422e+03,9.601661e+02
2.795314e+03,9.387003e+02
2.798207e+03,9.609073e+02
2.801100e+03,9.653923e+02
2.803992e+03,9.678334e+02
2.806885e+03,9.751114e+02
2.809778e+03,9.679270e+02
2.812671e+03,9.656893e+02
2.815563e+03,9.474650e+02
2.818456e+03,9.591473e+02
2.821349e+03,9.615986e+02
2.824241e+03,9.396907e+02
2.827134e+03,9.708611e+02
2.830027e+03,9.518099e+02
2.832919e+03,9.502869e+02
2.835812e+03,9.359387e+02
2.838705e+03,9.514949e+02
2.841598e+03,9.528420e+02
2.844490e+03,9.510686e+02
2.847383e+03,9.345245e+02
2.850276e+03,9.510279e+02
2.853168e+03,9.353744e+02
2.856061e+03,9.536744e+02
2.858954e+03,9.625214e+02
2.861846e+03,9.352857e+02
2.864739e+03,9.557074e+02
2.867632e+03,9.783700e+02
2.870525e+03,9.504174e+02
2.873417e+03,9.559565e+02
2.876310e+03,9.556638e+02
2.879203e+03,9.527626e+02
2.882095e+03,9.543675e+02
2.884988e+03,9.792689e+02
2.887881e+03,9.756129e+02
2.890773e+03,9.648549e+02
2.893666e+03,9.711031e+02
2.896559e+03,9.680263e+02
2.899452e+03,9.587440e+02
2.902344e+03,9.533705e+02
2.905237e+03,9.682797e+02
2.908130e+03,9.346888e+02
2.911022e+03,9.463410e+02
2.913915e+03,9.166747e+02
2.916808e+03,9.362331e+02
2.919700e+03,9.103397e+02
2.922593e+03,9.214344e+02
2.925486e+03,9.160466e+02
2.928379e+03,9.393968e+02
2.931271e+03,9.271188e+02
2.934164e+03,8.971357e+02
2.937057e+03,9.069464e+02
2.939949e+03,9.163926e+02
2.942842e+03,9.033138e+02
2.945735e+03,9.117528e+02
2.948627e+03,9.179813e+02
2.951520e+03,9.079421e+02
2.954413e+03,9.069767e+02
2.957306e+03,9.172689e+02
2.960198e+03,8.978422e+02
2.963091e+03,8.874019e+02
2.965984e+03,9.087167e+02
2.968876e+03,8.924095e+02
2.971769e+03,8.838428e+02
2.974662e+03,8.394591e+02
2.977554e+03,8.708033e+02
2.980447e+03,8.413443e+02
2.983340e+03,8.717478e+02
2.986233e+03,8.316340e+02
2.989125e+03,8.420002e+02
2.992018e+03,8.536942e+02
2.994911e+03,8.311653e+02
2.997803e+03,8.561368e+02
3.000696e+03,8.478964e+02
3.003589e+03,8.749489e+02
3.006481e+03,8.248274e+02
3.009374e+03,8.423018e+02
3.012267e+03,8.533603e+02
3.015160e+03,8.377910e+02
3.018052e+03,8.645148e+02
3.020945e+03,8.320311e+02
3.023838e+03,8.426047e+02
3.026730e+03,8.251003e+02
3.029623e+03,8.231254e+02
3.032516e+03,8.319890e+02
3.035408e+03,8.481467e+02
3.038301e+03,8.469216e+02
3.041194e+03,8.252928e+02
3.044087e+03,8.350317e+02
3.046979e+03,8.251599e+02
3.049872e+03,8.355075e+02
3.052765e+03,8.186338e+02
3.055657e+03,8.222936e+02
3.058550e+03,8.478477e+02
3.061443e+03,8.291631e+02
3.064335e+03,8.017884e+02
3.067228e+03,8.197000e+02
3.070121e+03,8.462697e+02
3.073014e+03,8.217034e+02
3.075906e+03,8.180712e+02
3.078799e+03,8.156432e+02
3.081692e+03,8.509539e+02
3.084584e+03,8.308610e+02
3.087477e+03,8.101932e+02
3.090370e+03,8.421752e+02
3.093262e+03,8.083679e+02
3.096155e+03,8.150255e+02
3.099048e+03,8.424239e+02
3.101941e+03,8.515993e+02
3.104833e+03,8.307106e+02
3.107726e+03,7.917152e+02
3.110619e+03,8.169345e+02
3.113511e+03,8.258304e+02
3.116404e+03,8.323220e+02
3.119297e+03,8.095854e+02
3.122189e+03,8.091376e+02
3.125082e+03,8.230960e+02
3.127975e+03,8.137129e+02
3.130868e+03,8.426810e+02
3.133760e+03,8.357948e+02
3.136653e+03,8.376493e+02
3.139546e+03,8.261486e+02
3.142438e+03,8.173441e+02
3.145331e+03,8.402935e+02
3.148224e+03,7.846366e+02
3.151116e+03,7.865093e+02
3.154009e+03,7.793359e+02
3.156902e+03,8.329443e+02
3.159795e+03,8.335923e+02
3.162687e+03,8.107842e+02
3.165580e+03,7.937130e+02
3.168473e+03,7.787003e+02
3.171365e+03,7.981670e+02
3.174258e+03,8.177172e+02
3.177151e+03,8.275159e+02
3.180043e+03,7.854313e+02
3.182936e+03,8.378609e+02
3.185829e+03,7.971701e+02
3.188722e+03,8.198865e+02
3.191614e+03,7.972693e+02
3.194507e+03,7.931975e+02
3.197400e+03,8.489524e+02
3.200292e+03,8.374305e+02
3.203185e+03,0.000000e+00
3.206078e+03,0.000000e+00
3.208970e+03,0.000000e+00
3.211863e+03,0.000000e+00
3.214756e+03,0.000000e+00
3.217649e+03,0.000000e+00
3.220541e+03,0.000000e+00
3.223434e+03,0.000000e+00
3.226327e+03,0.000000e+00
3.229219e+03,0.000000e+00
3.232112e+03,0.000000e+00
3.235005e+03,0.000000e+00
3.237897e+03,0.000000e+00
3.240790e+03,0.000000e+00
3.243683e+03,0.000000e+00
3.246576e+03,0.000000e+00
3.249468e+03,0.000000e+00
3.252361e+03,0.000000e+00
3.255254e+03,0.000000e+00
3.258146e+03,0.000000e+00
3.261039e+03,0.000000e+00
3.263932e+03,0.000000e+00
3.266824e+03,0.000000e+00
3.269717e+03,0.000000e+00
3.272610e+03,0.000000e+00
3.275503e+03,0.000000e+00
3.278395e+03,0.000000e+00
3.281288e+03,0.000000e+00
3.284181e+03,0.000000e+00
3.287073e+03,0.000000e+00
3.289966e+03,0.000000e+00
3.292859e+03,0.000000e+00
3.295751e+03,0.000000e+00
3.298644e+03,0.000000e+00
3.301537e+03,0.000000e+00
3.304430e+03,0.000000e+00
3.307322e+03,0.000000e+00
3.310215e+03,0.000000e+00
3.313108e+03,0.000000e+00
3.316000e+03,0.000000e+00
3.318893e+03,0.000000e+00
3.321786e+03,0.000000e+00
3.324678e+03,0.000000e+00
3.327571e+03,0.000000e+00
3.330464e+03,0.000000e+00
3.333357e+03,0.000000e+00
3.336249e+03,0.000000e+00
3.339142e+03,0.000000e+00
3.342035e+03,0.000000e+00
3.344927e+03,0.000000e+00
3.347820e+03,0.000000e+00
3.350713e+03,0.000000e+00
3.353605e+03,0.000000e+00
3.356498e+03,0.000000e+00
3.359391e+03,0.000000e+00
3.362284e+03,0.000000e+00
3.365176e+03,0.000000e+00
3.368069e+03,0.000000e+00
3.370962e+03,0.000000e+00
3.373854e+03,0.000000e+00
3.376747e+03,0.000000e+00
3.379640e+03,0.000000e+00
3.382532e+03,0.000000e+00
3.385425e+03,0.000000e+00
3.388318e+03,0.000000e+00
3.391211e+03,0.000000e+00
3.394103e+03,0.000000e+00
3.396996e+03,0.000000e+00
3.399889e+03,0.000000e+00
3.402781e+03,0.000000e+00
3.405674e+03,0.000000e+00
3.408567e+03,0.000000e+00
3.411459e+03,0.000000e+00
3.414352e+03,0.000000e+00
3.417245e+03,0.000000e+00
3.420138e+03,0.000000e+00
3.423030e+03,0.000000e+00
3.425923e+03,0.000000e+00
3.428816e+03,0.000000e+00
3.431708e+03,0.000000e+00
3.434601e+03,0.000000e+00
3.437494e+03,0.000000e+00
3.440386e+03,0.000000e+00
3.443279e+03,0.000000e+00
3.446172e+03,0.000000e+00
3.449065e+03,0.000000e+00
3.451957e+03,0.000000e+00
3.454850e+03,0.000000e+00
3.457743e+03,0.000000e+00
3.460635e+03,0.000000e+00
3.463528e+03,0.000000e+00
3.466421e+03,0.000000e+00
3.469313e+03,0.000000e+00
3.472206e+03,0.000000e+00
3.475099e+03,0.000000e+00
3.477992e+03,0.000000e+00
3.480884e+03,0.000000e+00
3.483777e+03,0.000000e+00
3.486670e+03,0.000000e+00
3.489563e+03,0.000000e+00
3.492455e+03,0.000000e+00
3.495348e+03,0.000000e+00
3.498240e+03,0.000000e+00
3.500169e+03,0.000000e+00