File: RAMAN_data/13112023_r1/black fibre3.CSV
9.931763e+01,0.000000e+00
1.022103e+02,0.000000e+00
1.051030e+02,0.000000e+00
1.079957e+02,0.000000e+00
1.108884e+02,0.000000e+00
1.137811e+02,0.000000e+00
1.166738e+02,0.000000e+00
1.195665e+02,0.000000e+00
1.224592e+02,0.000000e+00
1.253519e+02,0.000000e+00
1.282446e+02,0.000000e+00
1.311373e+02,0.000000e+00
1.340300e+02,0.000000e+00
1.369227e+02,0.000000e+00
1.398154e+02,0.000000e+00
1.427081e+02,0.000000e+00
1.456008e+02,0.000000e+00
1.484935e+02,0.000000e+00
1.513862e+02,0.000000e+00
1.542789e+02,0.000000e+00
1.571716e+02,0.000000e+00
1.600643e+02,0.000000e+00
1.629570e+02,0.000000e+00
1.658497e+02,0.000000e+00
1.687424e+02,0.000000e+00
1.716351e+02,0.000000e+00
1.745278e+02,0.000000e+00
1.774205e+02,0.000000e+00
1.803132e+02,0.000000e+00
1.832059e+02,0.000000e+00
1.860986e+02,0.000000e+00
1.889913e+02,0.000000e+00
1.918840e+02,0.000000e+00
1.947767e+02,0.000000e+00
1.976694e+02,0.000000e+00
2.005621e+02,3.637277e+03
2.034548e+02,3.652093e+03
2.063475e+02,3.640287e+03
2.092402e+02,3.654486e+03
2.121329e+02,3.644798e+03
2.150256e+02,3.647241e+03
2.179183e+02,3.639254e+03
2.208110e+02,3.650616e+03
2.237037e+02,3.648856e+03
2.265964e+02,3.657905e+03
2.294892e+02,3.662312e+03
2.323819e+02,3.653680e+03
2.352746e+02,3.645223e+03
2.381673e+02,3.662996e+03
2.410600e+02,3.635370e+03
2.439527e+02,3.645927e+03
2.468454e+02,3.655861e+03
2.497381e+02,3.668173e+03
2.526308e+02,3.665589e+03
2.555235e+02,3.655228e+03
2.584161e+02,3.648524e+03
2.613088e+02,3.648095e+03
2.642015e+02,3.648506e+03
2.670942e+02,3.646683e+03
2.699869e+02,3.649103e+03
2.728796e+02,3.645760e+03
2.757723e+02,3.650054e+03
2.786650e+02,3.648314e+03
2.815577e+02,3.661701e+03
2.844504e+02,3.663947e+03
2.873431e+02,3.661348e+03
2.902358e+02,3.658835e+03
2.931285e+02,3.645379e+03
2.960212e+02,3.656658e+03
2.989139e+02,3.658844e+03
3.018066e+02,3.647130e+03
3.046993e+02,3.634584e+03
3.075920e+02,3.642488e+03
3.104847e+02,3.646792e+03
3.133774e+02,3.654673e+03
3.162701e+02,3.645278e+03
3.191628e+02,3.657814e+03
3.220555e+02,3.651436e+03
3.249482e+02,3.653320e+03
3.278409e+02,3.658738e+03
3.307336e+02,3.636224e+03
3.336263e+02,3.642917e+03
3.365190e+02,3.632392e+03
3.394117e+02,3.635677e+03
3.423044e+02,3.642554e+03
3.451971e+02,3.628212e+03
3.480898e+02,3.628906e+03
3.509825e+02,3.628998e+03
3.538752e+02,3.623820e+03
3.567680e+02,3.636706e+03
3.596607e+02,3.635102e+03
3.625534e+02,3.626486e+03
3.654461e+02,3.635083e+03
3.683388e+02,3.619532e+03
3.712315e+02,3.633320e+03
3.741242e+02,3.642926e+03
3.770169e+02,3.644735e+03
3.799096e+02,3.632608e+03
3.828023e+02,3.622513e+03
3.856950e+02,3.609040e+03
3.885877e+02,3.609336e+03
3.914804e+02,3.607919e+03
3.943731e+02,3.604049e+03
3.972658e+02,3.593927e+03
4.001585e+02,3.606310e+03
4.030512e+02,3.614743e+03
4.059439e+02,3.590685e+03
4.088366e+02,3.589927e+03
4.117293e+02,3.572518e+03
4.146220e+02,3.572094e+03
4.175147e+02,3.597066e+03
4.204074e+02,3.581614e+03
4.233001e+02,3.563564e+03
4.261928e+02,3.572384e+03
4.290855e+02,3.581195e+03
4.319782e+02,3.584149e+03
4.348709e+02,3.575460e+03
4.377636e+02,3.574438e+03
4.406563e+02,3.564052e+03
4.435490e+02,3.557371e+03
4.464417e+02,3.549335e+03
4.493344e+02,3.534938e+03
4.522271e+02,3.558437e+03
4.551198e+02,3.550838e+03
4.580125e+02,3.540505e+03
4.609052e+02,3.529100e+03
4.637979e+02,3.533468e+03
4.666906e+02,3.527154e+03
4.695833e+02,3.526231e+03
4.724760e+02,3.521064e+03
4.753687e+02,3.531859e+03
4.782614e+02,3.517754e+03
4.811541e+02,3.515526e+03
4.840468e+02,3.501741e+03
4.869395e+02,3.493009e+03
4.898322e+02,3.491969e+03
4.927249e+02,3.499095e+03
4.956176e+02,3.494895e+03
4.985103e+02,3.494555e+03
5.014030e+02,3.497800e+03
5.042957e+02,3.488832e+03
5.071884e+02,3.487197e+03
5.100811e+02,3.483665e+03
5.129738e+02,3.487394e+03
5.158665e+02,3.482289e+03
5.187592e+02,3.467449e+03
5.216519e+02,3.479593e+03
5.245446e+02,3.453004e+03
5.274373e+02,3.449872e+03
5.303300e+02,3.449646e+03
5.332227e+02,3.449770e+03
5.361154e+02,3.431586e+03
5.390081e+02,3.446421e+03
5.419008e+02,3.416715e+03
5.447935e+02,3.425561e+03
5.476862e+02,3.421833e+03
5.505789e+02,3.414379e+03
5.534716e+02,3.408322e+03
5.563643e+02,3.409581e+03
5.592570e+02,3.416343e+03
5.621497e+02,3.424875e+03
5.650424e+02,3.409898e+03
5.679351e+02,3.386670e+03
5.708278e+02,3.379490e+03
5.737205e+02,3.388681e+03
5.766132e+02,3.389378e+03
5.795059e+02,3.385454e+03
5.823986e+02,3.380281e+03
5.852913e+02,3.376708e+03
5.881840e+02,3.370823e+03
5.910767e+02,3.372887e+03
5.939694e+02,3.363461e+03
5.968621e+02,3.351743e+03
5.997548e+02,3.342272e+03
6.026475e+02,3.343385e+03
6.055402e+02,3.345737e+03
6.084329e+02,3.340665e+03
6.113256e+02,3.337238e+03
6.142183e+02,3.313109e+03
6.171110e+02,3.307909e+03
6.200037e+02,3.322919e+03
6.228964e+02,3.327870e+03
6.257891e+02,3.321820e+03
6.286818e+02,3.306483e+03
6.315745e+02,3.309944e+03
6.344672e+02,3.314148e+03
6.373599e+02,3.284323e+03
6.402526e+02,3.308475e+03
6.431453e+02,3.291544e+03
6.460380e+02,3.261462e+03
6.489307e+02,3.278398e+03
6.518234e+02,3.275743e+03
6.547161e+02,3.276250e+03
6.576088e+02,3.270217e+03
6.605015e+02,3.261753e+03
6.633942e+02,3.253043e+03
6.662869e+02,3.250262e+03
6.691796e+02,3.249831e+03
6.720723e+02,3.258530e+03
6.749650e+02,3.241737e+03
6.778577e+02,3.232325e+03
6.807504e+02,3.243028e+03
6.836431e+02,3.246325e+03
6.865358e+02,3.229179e+03
6.894285e+02,3.238187e+03
6.923212e+02,3.218502e+03
6.952139e+02,3.220251e+03
6.981066e+02,3.216951e+03
7.009993e+02,3.209978e+03
7.038920e+02,3.212082e+03
7.067847e+02,3.187338e+03
7.096774e+02,3.183215e+03
7.125701e+02,3.186894e+03
7.154628e+02,3.196044e+03
7.183555e+02,3.181364e+03
7.212482e+02,3.173710e+03
7.241409e+02,3.176668e+03
7.270336e+02,3.170016e+03
7.299263e+02,3.170386e+03
7.328190e+02,3.145569e+03
7.357117e+02,3.143489e+03
7.386044e+02,3.145613e+03
7.414971e+02,3.140509e+03
7.443898e+02,3.132240e+03
7.472825e+02,3.135419e+03
7.501752e+02,3.124226e+03
7.530679e+02,3.118008e+03
7.559606e+02,3.126626e+03
7.588533e+02,3.115259e+03
7.617460e+02,3.109150e+03
7.646387e+02,3.087507e+03
7.675314e+02,3.101614e+03
7.704241e+02,3.084405e+03
7.733168e+02,3.093953e+03
7.762095e+02,3.088500e+03
7.791022e+02,3.087245e+03
7.819949e+02,3.076875e+03
7.848876e+02,3.068216e+03
7.877803e+02,3.072357e+03
7.906730e+02,3.067647e+03
7.935657e+02,3.071954e+03
7.964584e+02,3.056625e+03
7.993511e+02,3.045374e+03
8.022438e+02,3.040264e+03
8.051365e+02,3.051219e+03
8.080292e+02,3.051477e+03
8.109219e+02,3.044914e+03
8.138146e+02,3.043046e+03
8.167073e+02,3.013300e+03
8.196000e+02,3.026372e+03
8.224927e+02,3.025175e+03
8.253854e+02,3.016923e+03
8.282781e+02,3.010977e+03
8.311708e+02,3.000660e+03
8.340635e+02,3.012304e+03
8.369562e+02,2.995155e+03
8.398489e+02,3.006922e+03
8.427416e+02,2.991177e+03
8.456343e+02,2.971961e+03
8.485270e+02,2.977510e+03
8.514197e+02,2.963693e+03
8.543124e+02,2.965687e+03
8.572051e+02,2.962373e+03
8.600978e+02,2.972907e+03
8.629905e+02,2.962083e+03
8.658832e+02,2.948637e+03
8.687759e+02,2.945123e+03
8.716686e+02,2.936356e+03
8.745613e+02,2.920817e+03
8.774540e+02,2.923185e+03
8.803467e+02,2.924618e+03
8.832394e+02,2.932215e+03
8.861321e+02,2.934923e+03
8.890248e+02,2.937540e+03
8.919175e+02,2.916419e+03
8.948102e+02,2.912686e+03
8.977029e+02,2.910216e+03
9.005956e+02,2.903059e+03
9.034883e+02,2.890718e+03
9.063810e+02,2.876652e+03
9.092737e+02,2.876330e+03
9.121664e+02,2.875777e+03
9.150591e+02,2.873572e+03
9.179518e+02,2.880362e+03
9.208445e+02,2.860888e+03
9.237372e+02,2.849011e+03
9.266299e+02,2.839141e+03
9.295226e+02,2.862230e+03
9.324153e+02,2.855583e+03
9.353080e+02,2.839043e+03
9.382007e+02,2.831724e+03
9.410934e+02,2.829421e+03
9.439861e+02,2.815940e+03
9.468788e+02,2.832514e+03
9.497715e+02,2.821820e+03
9.526642e+02,2.817424e+03
9.555569e+02,2.791960e+03
9.584496e+02,2.804472e+03
9.613423e+02,2.809144e+03
9.642350e+02,2.800821e+03
9.671277e+02,2.797555e+03
9.700204e+02,2.776594e+03
9.729131e+02,2.778853e+03
9.758058e+02,2.785984e+03
9.786985e+02,2.775425e+03
9.815912e+02,2.788480e+03
9.844839e+02,2.769781e+03
9.873766e+02,2.770732e+03
9.902693e+02,2.766995e+03
9.931620e+02,2.777892e+03
9.960547e+02,2.782577e+03
9.989474e+02,2.762840e+03
1.001840e+03,2.740386e+03
1.004733e+03,2.742769e+03
1.007626e+03,2.733933e+03
1.010518e+03,2.736122e+03
1.013411e+03,2.729383e+03
1.016304e+03,2.717018e+03
1.019196e+03,2.718649e+03
1.022089e+03,2.714646e+03
1.024982e+03,2.724084e+03
1.027875e+03,2.730621e+03
1.030767e+03,2.707298e+03
1.033660e+03,2.717745e+03
1.036552e+03,2.716917e+03
1.039445e+03,2.707060e+03
1.042338e+03,2.707954e+03
1.045231e+03,2.716947e+03
1.048123e+03,2.709509e+03
1.051016e+03,2.698692e+03
1.053909e+03,2.697974e+03
1.056802e+03,2.699378e+03
1.059694e+03,2.684196e+03
1.062587e+03,2.676961e+03
1.065479e+03,2.667793e+03
1.068372e+03,2.670664e+03
1.071265e+03,2.656016e+03
1.074158e+03,2.655451e+03
1.077050e+03,2.661486e+03
1.079943e+03,2.648936e+03
1.082836e+03,2.668163e+03
1.085729e+03,2.662309e+03
1.088621e+03,2.672522e+03
1.091514e+03,2.676452e+03
1.094406e+03,2.680052e+03
1.097299e+03,2.673730e+03
1.100192e+03,2.639520e+03
1.103085e+03,2.638976e+03
1.105977e+03,2.627833e+03
1.108870e+03,2.641398e+03
1.111763e+03,2.642374e+03
1.114656e+03,2.632599e+03
1.117548e+03,2.640712e+03
1.120441e+03,2.630380e+03
1.123334e+03,2.626694e+03
1.126226e+03,2.626455e+03
1.129119e+03,2.605768e+03
1.132012e+03,2.615500e+03
1.134904e+03,2.595899e+03
1.137797e+03,2.576848e+03
1.140690e+03,2.569415e+03
1.143583e+03,2.573390e+03
1.146475e+03,2.592124e+03
1.149368e+03,2.565655e+03
1.152261e+03,2.577885e+03
1.155153e+03,2.580972e+03
1.158046e+03,2.555651e+03
1.160939e+03,2.560411e+03
1.163831e+03,2.558317e+03
1.166724e+03,2.565410e+03
1.169617e+03,2.539758e+03
1.172510e+03,2.534870e+03
1.175402e+03,2.544327e+03
1.178295e+03,2.525714e+03
1.181188e+03,2.543404e+03
1.184080e+03,2.526525e+03
1.186973e+03,2.514457e+03
1.189866e+03,2.518421e+03
1.192758e+03,2.516110e+03
1.195651e+03,2.511597e+03
1.198544e+03,2.516132e+03
1.201437e+03,2.516394e+03
1.204329e+03,2.512360e+03
1.207222e+03,2.514863e+03
1.210115e+03,2.508920e+03
1.213007e+03,2.505170e+03
1.215900e+03,2.489314e+03
1.218793e+03,2.501701e+03
1.221685e+03,2.502676e+03
1.224578e+03,2.495732e+03
1.227471e+03,2.507286e+03
1.230364e+03,2.516931e+03
1.233256e+03,2.491173e+03
1.236149e+03,2.486712e+03
1.239042e+03,2.488903e+03
1.241934e+03,2.490980e+03
1.244827e+03,2.497242e+03
1.247720e+03,2.477630e+03
1.250612e+03,2.485929e+03
1.253505e+03,2.477081e+03
1.256398e+03,2.493976e+03
1.259291e+03,2.487171e+03
1.262183e+03,2.468309e+03
1.265076e+03,2.479099e+03
1.267969e+03,2.474431e+03
1.270861e+03,2.472246e+03
1.273754e+03,2.468004e+03
1.276647e+03,2.457105e+03
1.279539e+03,2.450310e+03
1.282432e+03,2.446708e+03
1.285325e+03,2.444238e+03
1.288218e+03,2.448081e+03
1.291110e+03,2.457048e+03
1.294003e+03,2.457063e+03
1.296896e+03,2.436136e+03
1.299788e+03,2.451957e+03
1.302681e+03,2.418917e+03
1.305574e+03,2.428854e+03
1.308466e+03,2.445502e+03
1.311359e+03,2.428986e+03
1.314252e+03,2.418924e+03
1.317145e+03,2.415856e+03
1.320037e+03,2.416601e+03
1.322930e+03,2.407347e+03
1.325823e+03,2.410531e+03
1.328715e+03,2.403333e+03
1.331608e+03,2.413796e+03
1.334501e+03,2.409235e+03
1.337393e+03,2.405161e+03
1.340286e+03,2.403792e+03
1.343179e+03,2.377285e+03
1.346072e+03,2.383782e+03
1.348964e+03,2.367852e+03
1.351857e+03,2.384672e+03
1.354750e+03,2.377835e+03
1.357642e+03,2.366504e+03
1.360535e+03,2.373290e+03
1.363428e+03,2.372278e+03
1.366320e+03,2.352984e+03
1.369213e+03,2.368569e+03
1.372106e+03,2.364354e+03
1.374999e+03,2.352765e+03
1.377891e+03,2.357585e+03
1.380784e+03,2.353976e+03
1.383677e+03,2.352958e+03
1.386569e+03,2.341398e+03
1.389462e+03,2.331434e+03
1.392355e+03,2.335477e+03
1.395247e+03,2.307235e+03
1.398140e+03,2.314195e+03
1.401033e+03,2.330150e+03
1.403926e+03,2.330110e+03
1.406818e+03,2.312838e+03
1.409711e+03,2.315827e+03
1.412604e+03,2.319315e+03
1.415496e+03,2.313502e+03
1.418389e+03,2.303046e+03
1.421282e+03,2.297920e+03
1.424174e+03,2.291545e+03
1.427067e+03,2.303169e+03
1.429960e+03,2.289889e+03
1.432853e+03,2.278319e+03
1.435745e+03,2.279494e+03
1.438638e+03,2.280336e+03
1.441531e+03,2.276237e+03
1.444423e+03,2.272533e+03
1.447316e+03,2.261635e+03
1.450209e+03,2.251055e+03
1.453101e+03,2.251820e+03
1.455994e+03,2.257913e+03
1.458887e+03,2.264234e+03
1.461780e+03,2.253908e+03
1.464672e+03,2.249307e+03
1.467565e+03,2.245653e+03
1.470458e+03,2.244908e+03
1.473350e+03,2.227035e+03
1.476243e+03,2.233265e+03
1.479136e+03,2.226266e+03
1.482028e+03,2.221439e+03
1.484921e+03,2.218179e+03
1.487814e+03,2.220735e+03
1.490707e+03,2.214251e+03
1.493599e+03,2.220695e+03
1.496492e+03,2.212835e+03
1.499385e+03,2.199790e+03
1.502277e+03,2.194499e+03
1.505170e+03,2.195172e+03
1.508063e+03,2.227306e+03
1.510955e+03,2.199203e+03
1.513848e+03,2.194136e+03
1.516741e+03,2.216180e+03
1.519634e+03,2.194607e+03
1.522526e+03,2.199932e+03
1.525419e+03,2.185436e+03
1.528312e+03,2.192318e+03
1.531204e+03,2.182634e+03
1.534097e+03,2.187736e+03
1.536990e+03,2.184406e+03
1.539882e+03,2.183200e+03
1.542775e+03,2.183742e+03
1.545668e+03,2.159487e+03
1.548561e+03,2.163825e+03
1.551453e+03,2.177538e+03
1.554346e+03,2.160539e+03
1.557239e+03,2.154359e+03
1.560131e+03,2.182583e+03
1.563024e+03,2.171479e+03
1.565917e+03,2.159797e+03
1.568809e+03,2.147157e+03
1.571702e+03,2.151667e+03
1.574595e+03,2.160563e+03
1.577488e+03,2.141455e+03
1.580380e+03,2.137885e+03
1.583273e+03,2.126215e+03
1.586166e+03,2.131462e+03
1.589058e+03,2.116356e+03
1.591951e+03,2.115849e+03
1.594844e+03,2.111683e+03
1.597736e+03,2.130955e+03
1.600629e+03,2.128177e+03
1.603522e+03,2.122504e+03
1.606415e+03,2.115344e+03
1.609307e+03,2.106483e+03
1.612200e+03,2.110772e+03
1.615093e+03,2.084668e+03
1.617985e+03,2.095257e+03
1.620878e+03,2.081001e+03
1.623771e+03,2.074157e+03
1.626663e+03,2.063080e+03
1.629556e+03,2.052518e+03
1.632449e+03,2.055865e+03
1.635342e+03,2.038458e+03
1.638234e+03,2.047649e+03
1.641127e+03,2.041418e+03
1.644020e+03,2.059226e+03
1.646912e+03,2.034420e+03
1.649805e+03,2.026309e+03
1.652698e+03,2.029117e+03
1.655590e+03,2.023188e+03
1.658483e+03,2.023124e+03
1.661376e+03,2.010401e+03
1.664269e+03,2.022733e+03
1.667161e+03,2.010139e+03
1.670054e+03,2.018159e+03
1.672947e+03,2.019842e+03
1.675839e+03,2.004220e+03
1.678732e+03,1.985427e+03
1.681625e+03,1.996825e+03
1.684517e+03,1.995601e+03
1.687410e+03,1.996792e+03
1.690303e+03,1.973406e+03
1.693196e+03,1.987294e+03
1.696088e+03,1.965929e+03
1.698981e+03,1.974374e+03
1.701874e+03,1.961868e+03
1.704766e+03,1.974710e+03
1.707659e+03,1.944910e+03
1.710552e+03,1.955346e+03
1.713444e+03,1.955661e+03
1.716337e+03,1.950574e+03
1.719230e+03,1.942989e+03
1.722123e+03,1.942016e+03
1.725015e+03,1.935333e+03
1.727908e+03,1.922549e+03
1.730801e+03,1.921860e+03
1.733693e+03,1.925830e+03
1.736586e+03,1.924216e+03
1.739479e+03,1.928928e+03
1.742371e+03,1.933792e+03
1.745264e+03,1.963731e+03
1.748157e+03,1.914398e+03
1.751050e+03,1.916650e+03
1.753942e+03,1.906107e+03
1.756835e+03,1.900870e+03
1.759728e+03,1.889818e+03
1.762620e+03,1.890132e+03
1.765513e+03,1.872802e+03
1.768406e+03,1.887914e+03
1.771298e+03,1.890531e+03
1.774191e+03,1.878667e+03
1.777084e+03,1.883162e+03
1.779977e+03,1.874350e+03
1.782869e+03,1.891113e+03
1.785762e+03,1.867460e+03
1.788655e+03,1.867837e+03
1.791547e+03,1.851246e+03
1.794440e+03,1.845439e+03
1.797333e+03,1.835450e+03
1.800225e+03,1.835397e+03
1.803118e+03,1.836712e+03
1.806011e+03,1.832166e+03
1.808904e+03,1.830619e+03
1.811796e+03,1.819406e+03
1.814689e+03,1.824822e+03
1.817582e+03,1.829067e+03
1.820474e+03,1.803207e+03
1.823367e+03,1.807897e+03
1.826260e+03,1.815199e+03
1.829152e+03,1.801422e+03
1.832045e+03,1.788636e+03
1.834938e+03,1.797628e+03
1.837831e+03,1.789786e+03
1.840723e+03,1.812866e+03
1.843616e+03,1.781071e+03
1.846509e+03,1.775072e+03
1.849401e+03,1.772699e+03
1.852294e+03,1.772543e+03
1.855187e+03,1.757962e+03
1.858079e+03,1.773054e+03
1.860972e+03,1.752289e+03
1.863865e+03,1.736674e+03
1.866758e+03,1.752981e+03
1.869650e+03,1.729868e+03
1.872543e+03,1.740171e+03
1.875436e+03,1.747014e+03
1.878328e+03,1.735315e+03
1.881221e+03,1.723937e+03
1.884114e+03,1.716014e+03
1.887006e+03,1.723512e+03
1.889899e+03,1.721652e+03
1.892792e+03,1.728161e+03
1.895685e+03,1.715152e+03
1.898577e+03,1.706311e+03
1.901470e+03,1.686717e+03
1.904363e+03,1.722761e+03
1.907255e+03,1.704433e+03
1.910148e+03,1.699663e+03
1.913041e+03,1.715185e+03
1.915933e+03,1.674739e+03
1.918826e+03,1.691437e+03
1.921719e+03,1.672726e+03
1.924612e+03,1.698836e+03
1.927504e+03,1.680316e+03
1.930397e+03,1.657150e+03
1.933290e+03,1.650926e+03
1.936182e+03,1.666810e+03
1.939075e+03,1.658822e+03
1.941968e+03,1.648955e+03
1.944860e+03,1.649196e+03
1.947753e+03,1.635234e+03
1.950646e+03,1.629829e+03
1.953539e+03,1.638345e+03
1.956431e+03,1.634531e+03
1.959324e+03,1.616343e+03
1.962217e+03,1.635913e+03
1.965109e+03,1.620592e+03
1.968002e+03,1.618124e+03
1.970895e+03,1.598364e+03
1.973787e+03,1.605752e+03
1.976680e+03,1.598408e+03
1.979573e+03,1.601573e+03
1.982466e+03,1.612573e+03
1.985358e+03,1.605459e+03
1.988251e+03,1.593382e+03
1.991144e+03,1.574203e+03
1.994036e+03,1.581921e+03
1.996929e+03,1.583679e+03
1.999822e+03,1.573299e+03
2.002714e+03,1.577154e+03
2.005607e+03,1.565221e+03
2.008500e+03,1.562160e+03
2.011393e+03,1.541760e+03
2.014285e+03,1.557573e+03
2.017178e+03,1.570049e+03
2.020071e+03,1.550435e+03
2.022963e+03,1.547829e+03
2.025856e+03,1.544052e+03
2.028749e+03,1.542745e+03
2.031641e+03,1.530314e+03
2.034534e+03,1.528055e+03
2.037427e+03,1.513227e+03
2.040320e+03,1.511740e+03
2.043212e+03,1.516337e+03
2.046105e+03,1.505707e+03
2.048998e+03,1.503420e+03
2.051890e+03,1.503859e+03
2.054783e+03,1.491965e+03
2.057676e+03,1.487708e+03
2.060568e+03,1.506732e+03
2.063461e+03,1.493554e+03
2.066354e+03,1.472596e+03
2.069247e+03,1.477122e+03
2.072139e+03,1.467031e+03
2.075032e+03,1.465885e+03
2.077925e+03,1.468442e+03
2.080817e+03,1.469103e+03
2.083710e+03,1.444355e+03
2.086603e+03,1.451928e+03
2.089496e+03,1.440750e+03
2.092388e+03,1.435427e+03
2.095281e+03,1.442331e+03
2.098174e+03,1.426354e+03
2.101066e+03,1.424612e+03
2.103959e+03,1.410512e+03
2.106852e+03,1.416814e+03
2.109744e+03,1.422687e+03
2.112637e+03,1.416443e+03
2.115530e+03,1.398292e+03
2.118422e+03,1.409373e+03
2.121315e+03,1.414681e+03
2.124208e+03,1.411313e+03
2.127101e+03,1.404165e+03
2.129993e+03,1.401650e+03
2.132886e+03,1.398116e+03
2.135779e+03,1.407829e+03
2.138671e+03,1.391389e+03
2.141564e+03,1.379382e+03
2.144457e+03,1.378639e+03
2.147350e+03,1.361710e+03
2.150242e+03,1.372527e+03
2.153135e+03,1.371833e+03
2.156028e+03,1.374730e+03
2.158920e+03,1.348664e+03
2.161813e+03,1.375958e+03
2.164706e+03,1.368147e+03
2.167598e+03,1.346391e+03
2.170491e+03,1.332620e+03
2.173384e+03,1.341160e+03
2.176277e+03,1.353219e+03
2.179169e+03,1.327516e+03
2.182062e+03,1.325705e+03
2.184955e+03,1.326915e+03
2.187847e+03,1.319736e+03
2.190740e+03,1.319161e+03
2.193633e+03,1.303744e+03
2.196525e+03,1.299039e+03
2.199418e+03,1.304790e+03
2.202311e+03,1.308796e+03
2.205204e+03,1.309158e+03
2.208096e+03,1.306349e+03
2.210989e+03,1.297677e+03
2.213882e+03,1.282373e+03
2.216774e+03,1.294405e+03
2.219667e+03,1.276609e+03
2.222560e+03,1.265577e+03
2.225452e+03,1.257809e+03
2.228345e+03,1.273713e+03
2.231238e+03,1.265841e+03
2.234131e+03,1.260277e+03
2.237023e+03,1.267596e+03
2.239916e+03,1.256706e+03
2.242809e+03,1.259765e+03
2.245701e+03,1.252599e+03
2.248594e+03,1.245929e+03
2.251487e+03,1.244767e+03
2.254379e+03,1.231045e+03
2.257272e+03,1.237613e+03
2.260165e+03,1.218521e+03
2.263058e+03,1.228119e+03
2.265950e+03,1.224933e+03
2.268843e+03,1.211592e+03
2.271736e+03,1.211245e+03
2.274628e+03,1.209189e+03
2.277521e+03,1.200971e+03
2.280414e+03,1.197712e+03
2.283306e+03,1.197554e+03
2.286199e+03,1.190215e+03
2.289092e+03,1.188729e+03
2.291985e+03,1.173432e+03
2.294877e+03,1.172511e+03
2.297770e+03,1.189871e+03
2.300663e+03,1.193653e+03
2.303555e+03,1.166748e+03
2.306448e+03,1.170306e+03
2.309341e+03,1.175188e+03
2.312233e+03,1.149102e+03
2.315126e+03,1.178807e+03
2.318019e+03,1.163947e+03
2.320912e+03,1.155602e+03
2.323804e+03,1.152237e+03
2.326697e+03,1.145553e+03
2.329590e+03,1.149948e+03
2.332482e+03,1.151964e+03
2.335375e+03,1.122735e+03
2.338268e+03,1.131045e+03
2.341160e+03,1.118475e+03
2.344053e+03,1.128586e+03
2.346946e+03,1.124712e+03
2.349839e+03,1.127186e+03
2.352731e+03,1.120386e+03
2.355624e+03,1.109716e+03
2.358517e+03,1.120439e+03
2.361409e+03,1.109751e+03
2.364302e+03,1.117421e+03
2.367195e+03,1.108401e+03
2.370087e+03,1.109844e+03
2.372980e+03,1.115790e+03
2.375873e+03,1.106418e+03
2.378766e+03,1.095541e+03
2.381658e+03,1.091044e+03
2.384551e+03,1.083530e+03
2.387444e+03,1.073833e+03
2.390336e+03,1.091794e+03
2.393229e+03,1.064718e+03
2.396122e+03,1.086285e+03
2.399014e+03,1.086769e+03
2.401907e+03,1.077081e+03
2.404800e+03,1.083737e+03
2.407693e+03,1.093539e+03
2.410585e+03,1.063199e+03
2.413478e+03,1.049967e+03
2.416371e+03,1.068877e+03
2.419263e+03,1.035761e+03
2.422156e+03,1.050343e+03
2.425049e+03,1.048442e+03
2.427941e+03,1.048864e+03
2.430834e+03,1.050780e+03
2.433727e+03,1.035443e+03
2.436620e+03,1.037795e+03
2.439512e+03,1.028193e+03
2.442405e+03,1.022745e+03
2.445298e+03,1.029197e+03
2.448190e+03,1.019363e+03
2.451083e+03,1.025039e+03
2.453976e+03,1.021876e+03
2.456868e+03,1.027190e+03
2.459761e+03,9.977408e+02
2.462654e+03,1.007003e+03
2.465547e+03,1.008508e+03
2.468439e+03,1.009771e+03
2.471332e+03,1.002613e+03
2.474225e+03,9.888393e+02
2.477117e+03,1.016724e+03
2.480010e+03,1.015961e+03
2.482903e+03,9.967175e+02
2.485795e+03,1.005806e+03
2.488688e+03,9.959344e+02
2.491581e+03,9.824783e+02
2.494474e+03,9.833865e+02
2.497366e+03,9.849282e+02
2.500259e+03,9.961742e+02
2.503152e+03,9.885018e+02
2.506044e+03,9.770561e+02
2.508937e+03,9.809416e+02
2.511830e+03,9.806237e+02
2.514722e+03,9.699453e+02
2.517615e+03,9.601280e+02
2.520508e+03,9.508636e+02
2.523401e+03,9.661404e+02
2.526293e+03,9.623977e+02
2.529186e+03,9.666057e+02
2.532079e+03,9.469317e+02
2.534971e+03,9.599583e+02
2.537864e+03,9.427307e+02
2.540757e+03,9.412144e+02
2.543649e+03,9.469987e+02
2.546542e+03,9.500316e+02
2.549435e+03,9.346251e+02
2.552328e+03,9.431039e+02
2.555220e+03,9.510500e+02
2.558113e+03,9.306432e+02
2.561006e+03,9.384109e+02
2.563898e+03,9.430546e+02
2.566791e+03,9.358209e+02
2.569684e+03,9.344611e+02
2.572576e+03,9.334491e+02
2.575469e+03,9.264471e+02
2.578362e+03,9.209083e+02
2.581255e+03,9.258259e+02
2.584147e+03,9.062079e+02
2.587040e+03,9.123444e+02
2.589933e+03,9.208760e+02
2.592825e+03,9.218954e+02
2.595718e+03,9.003234e+02
2.598611e+03,9.096852e+02
2.601503e+03,9.018889e+02
2.604396e+03,8.975624e+02
2.607289e+03,8.992853e+02
2.610182e+03,8.943646e+02
2.613074e+03,8.907643e+02
2.615967e+03,9.001207e+02
2.618860e+03,9.020922e+02
2.621752e+03,8.751825e+02
2.624645e+03,8.950217e+02
2.627538e+03,8.954230e+02
2.630430e+03,8.898268e+02
2.633323e+03,8.714432e+02
2.636216e+03,8.887052e+02
2.639109e+03,8.878165e+02
2.642001e+03,8.899941e+02
2.644894e+03,8.669987e+02
2.647787e+03,8.970134e+02
2.650679e+03,8.747394e+02
2.653572e+03,8.573408e+02
2.656465e+03,8.775951e+02
2.659357e+03,8.709694e+02
2.662250e+03,8.652576e+02
2.665143e+03,8.479623e+02
2.668036e+03,8.568292e+02
2.670928e+03,8.615881e+02
2.673821e+03,8.626912e+02
2.676714e+03,8.421575e+02
2.679606e+03,8.501011e+02
2.682499e+03,8.427346e+02
2.685392e+03,8.539485e+02
2.688284e+03,8.364619e+02
2.691177e+03,8.397234e+02
2.694070e+03,8.597580e+02
2.696963e+03,8.359061e+02
2.699855e+03,8.577619e+02
2.702748e+03,8.380016e+02
2.705641e+03,8.414586e+02
2.708533e+03,8.309249e+02
2.711426e+03,8.369138e+02
2.714319e+03,8.310618e+02
2.717211e+03,8.379875e+02
2.720104e+03,8.308733e+02
2.722997e+03,8.131230e+02
2.725890e+03,8.314259e+02
2.728782e+03,8.073915e+02
2.731675e+03,8.225313e+02
2.734568e+03,8.121614e+02
2.737460e+03,8.172226e+02
2.740353e+03,8.127231e+02
2.743246e+03,8.066512e+02
2.746138e+03,8.284545e+02
2.749031e+03,8.027750e+02
2.751924e+03,8.228958e+02
2.754817e+03,8.171131e+02
2.757709e+03,8.084053e+02
2.760602e+03,7.923338e+02
2.763495e+03,8.112305e+02
2.766387e+03,7.933796e+02
2.769280e+03,8.008233e+02
2.772173e+03,7.944554e+02
2.775065e+03,7.829148e+02
2.777958e+03,7.829262e+02
2.780851e+03,8.140936e+02
2.783744e+03,7.795514e+02
2.786636e+03,7.822429e+02
2.789529e+03,7.873292e+02
2.792422e+03,7.966246e+02
2.795314e+03,8.000803e+02
2.798207e+03,7.925328e+02
2.801100e+03,7.828991e+02
2.803992e+03,7.571860e+02
2.806885e+03,7.856779e+02
2.809778e+03,7.876389e+02
2.812671e+03,7.689182e+02
2.815563e+03,7.667458e+02
2.818456e+03,7.661863e+02
2.821349e+03,7.931062e+02
2.824241e+03,7.791811e+02
2.827134e+03,7.736188e+02
2.830027e+03,7.626005e+02
2.832919e+03,7.665859e+02
2.835812e+03,7.933685e+02
2.838705e+03,7.670754e+02
2.841598e+03,7.694461e+02
2.844490e+03,7.734424e+02
2.847383e+03,7.735800e+02
2.850276e+03,7.786426e+02
2.853168e+03,7.799088e+02
2.856061e+03,7.689536e+02
2.858954e+03,7.698802e+02
2.861846e+03,7.776005e+02
2.864739e+03,7.794138e+02
2.867632e+03,7.902765e+02
2.870525e+03,7.700783e+02
2.873417e+03,7.814151e+02
2.876310e+03,7.900280e+02
2.879203e+03,7.764443e+02
2.882095e+03,7.726529e+02
2.884988e+03,7.857120e+02
2.887881e+03,7.961051e+02
2.890773e+03,7.918271e+02
2.893666e+03,8.032679e+02
2.896559e+03,8.047592e+02
2.899452e+03,7.865258e+02
2.902344e+03,7.834228e+02
2.905237e+03,7.813810e+02
2.908130e+03,7.776155e+02
2.911022e+03,7.892719e+02
2.913915e+03,7.552231e+02
2.916808e+03,7.511798e+02
2.919700e+03,7.652139e+02
2.922593e+03,7.442712e+02
2.925486e+03,7.531649e+02
2.928379e+03,7.419713e+02
2.931271e+03,7.611241e+02
2.934164e+03,7.325495e+02
2.937057e+03,7.318089e+02
2.939949e+03,7.546863e+02
2.942842e+03,7.325209e+02
2.945735e+03,7.457703e+02
2.948627e+03,7.417482e+02
2.951520e+03,7.393763e+02
2.954413e+03,7.393422e+02
2.957306e+03,7.888912e+02
2.960198e+03,7.305667e+02
2.963091e+03,7.537721e+02
2.965984e+03,7.324309e+02
2.968876e+03,7.359968e+02
2.971769e+03,6.940494e+02
2.974662e+03,6.998476e+02
2.977554e+03,7.458708e+02
2.980447e+03,6.879847e+02
2.983340e+03,6.997119e+02
2.986233e+03,7.021357e+02
2.989125e+03,7.499646e+02
2.992018e+03,6.960399e+02
2.994911e+03,7.032651e+02
2.997803e+03,7.007789e+02
3.000696e+03,6.909955e+02
3.003589e+03,6.653441e+02
3.006481e+03,6.989190e+02
3.009374e+03,6.760236e+02
3.012267e+03,6.795969e+02
3.015160e+03,6.683964e+02
3.018052e+03,6.935721e+02
3.020945e+03,6.604671e+02
3.023838e+03,6.961739e+02
3.026730e+03,6.740790e+02
3.029623e+03,6.905070e+02
3.032516e+03,6.926677e+02
3.035408e+03,6.855178e+02
3.038301e+03,7.003694e+02
3.041194e+03,6.585357e+02
3.044087e+03,6.745244e+02
3.046979e+03,6.728059e+02
3.049872e+03,6.719353e+02
3.052765e+03,6.865524e+02
3.055657e+03,6.795865e+02
3.058550e+03,6.559310e+02
3.061443e+03,6.704736e+02
3.064335e+03,6.500990e+02
3.067228e+03,6.926888e+02
3.070121e+03,6.810686e+02
3.073014e+03,6.843668e+02
3.075906e+03,6.842473e+02
3.078799e+03,6.482880e+02
3.081692e+03,6.586008e+02
3.084584e+03,6.646885e+02
3.087477e+03,6.648292e+02
3.090370e+03,6.608787e+02
3.093262e+03,6.546625e+02
3.096155e+03,6.653332e+02
3.099048e+03,6.670336e+02
3.101941e+03,6.874489e+02
3.104833e+03,6.406143e+02
3.107726e+03,6.567665e+02
3.110619e+03,6.541473e+02
3.113511e+03,6.684705e+02
3.116404e+03,6.868468e+02
3.119297e+03,6.507900e+02
3.122189e+03,6.781141e+02
3.125082e+03,6.759714e+02
3.127975e+03,6.619860e+02
3.130868e+03,6.562133e+02
3.133760e+03,7.234647e+02
3.136653e+03,6.646832e+02
3.139546e+03,6.808044e+02
3.142438e+03,6.589293e+02
3.145331e+03,6.513651e+02
3.148224e+03,6.693651e+02
3.151116e+03,6.451031e+02
3.154009e+03,6.542161e+02
3.156902e+03,6.593972e+02
3.159795e+03,6.806203e+02
3.162687e+03,6.572117e+02
3.165580e+03,6.682653e+02
3.168473e+03,6.618135e+02
3.171365e+03,6.468654e+02
3.174258e+03,6.899039e+02
3.177151e+03,6.720082e+02
3.180043e+03,6.741253e+02
3.182936e+03,6.618109e+02
3.185829e+03,6.740914e+02
3.188722e+03,6.585251e+02
3.191614e+03,6.989856e+02
3.194507e+03,6.397627e+02
3.197400e+03,6.727176e+02
3.200292e+03,6.911820e+02
3.203185e+03,0.000000e+00
3.206078e+03,0.000000e+00
3.208970e+03,0.000000e+00
3.211863e+03,0.000000e+00
3.214756e+03,0.000000e+00
3.217649e+03,0.000000e+00
3.220541e+03,0.000000e+00
3.223434e+03,0.000000e+00
3.226327e+03,0.000000e+00
3.229219e+03,0.000000e+00
3.232112e+03,0.000000e+00
3.235005e+03,0.000000e+00
3.237897e+03,0.000000e+00
3.240790e+03,0.000000e+00
3.243683e+03,0.000000e+00
3.246576e+03,0.000000e+00
3.249468e+03,0.000000e+00
3.252361e+03,0.000000e+00
3.255254e+03,0.000000e+00
3.258146e+03,0.000000e+00
3.261039e+03,0.000000e+00
3.263932e+03,0.000000e+00
3.266824e+03,0.000000e+00
3.269717e+03,0.000000e+00
3.272610e+03,0.000000e+00
3.275503e+03,0.000000e+00
3.278395e+03,0.000000e+00
3.281288e+03,0.000000e+00
3.284181e+03,0.000000e+00
3.287073e+03,0.000000e+00
3.289966e+03,0.000000e+00
3.292859e+03,0.000000e+00
3.295751e+03,0.000000e+00
3.298644e+03,0.000000e+00
3.301537e+03,0.000000e+00
3.304430e+03,0.000000e+00
3.307322e+03,0.000000e+00
3.310215e+03,0.000000e+00
3.313108e+03,0.000000e+00
3.316000e+03,0.000000e+00
3.318893e+03,0.000000e+00
3.321786e+03,0.000000e+00
3.324678e+03,0.000000e+00
3.327571e+03,0.000000e+00
3.330464e+03,0.000000e+00
3.333357e+03,0.000000e+00
3.336249e+03,0.000000e+00
3.339142e+03,0.000000e+00
3.342035e+03,0.000000e+00
3.344927e+03,0.000000e+00
3.347820e+03,0.000000e+00
3.350713e+03,0.000000e+00
3.353605e+03,0.000000e+00
3.356498e+03,0.000000e+00
3.359391e+03,0.000000e+00
3.362284e+03,0.000000e+00
3.365176e+03,0.000000e+00
3.368069e+03,0.000000e+00
3.370962e+03,0.000000e+00
3.373854e+03,0.000000e+00
3.376747e+03,0.000000e+00
3.379640e+03,0.000000e+00
3.382532e+03,0.000000e+00
3.385425e+03,0.000000e+00
3.388318e+03,0.000000e+00
3.391211e+03,0.000000e+00
3.394103e+03,0.000000e+00
3.396996e+03,0.000000e+00
3.399889e+03,0.000000e+00
3.402781e+03,0.000000e+00
3.405674e+03,0.000000e+00
3.408567e+03,0.000000e+00
3.411459e+03,0.000000e+00
3.414352e+03,0.000000e+00
3.417245e+03,0.000000e+00
3.420138e+03,0.000000e+00
3.423030e+03,0.000000e+00
3.425923e+03,0.000000e+00
3.428816e+03,0.000000e+00
3.431708e+03,0.000000e+00
3.434601e+03,0.000000e+00
3.437494e+03,0.000000e+00
3.440386e+03,0.000000e+00
3.443279e+03,0.000000e+00
3.446172e+03,0.000000e+00
3.449065e+03,0.000000e+00
3.451957e+03,0.000000e+00
3.454850e+03,0.000000e+00
3.457743e+03,0.000000e+00
3.460635e+03,0.000000e+00
3.463528e+03,0.000000e+00
3.466421e+03,0.000000e+00
3.469313e+03,0.000000e+00
3.472206e+03,0.000000e+00
3.475099e+03,0.000000e+00
3.477992e+03,0.000000e+00
3.480884e+03,0.000000e+00
3.483777e+03,0.000000e+00
3.486670e+03,0.000000e+00
3.489563e+03,0.000000e+00
3.492455e+03,0.000000e+00
3.495348e+03,0.000000e+00
3.498240e+03,0.000000e+00
3.500169e+03,0.000000e+00