File: RAMAN_data/13112023_r1/black fibre5.CSV
9.931763e+01,0.000000e+00
1.022103e+02,0.000000e+00
1.051030e+02,0.000000e+00
1.079957e+02,0.000000e+00
1.108884e+02,0.000000e+00
1.137811e+02,0.000000e+00
1.166738e+02,0.000000e+00
1.195665e+02,0.000000e+00
1.224592e+02,0.000000e+00
1.253519e+02,0.000000e+00
1.282446e+02,0.000000e+00
1.311373e+02,0.000000e+00
1.340300e+02,0.000000e+00
1.369227e+02,0.000000e+00
1.398154e+02,0.000000e+00
1.427081e+02,0.000000e+00
1.456008e+02,0.000000e+00
1.484935e+02,0.000000e+00
1.513862e+02,0.000000e+00
1.542789e+02,0.000000e+00
1.571716e+02,0.000000e+00
1.600643e+02,0.000000e+00
1.629570e+02,0.000000e+00
1.658497e+02,0.000000e+00
1.687424e+02,0.000000e+00
1.716351e+02,0.000000e+00
1.745278e+02,0.000000e+00
1.774205e+02,0.000000e+00
1.803132e+02,0.000000e+00
1.832059e+02,0.000000e+00
1.860986e+02,0.000000e+00
1.889913e+02,0.000000e+00
1.918840e+02,0.000000e+00
1.947767e+02,0.000000e+00
1.976694e+02,0.000000e+00
2.005621e+02,7.295442e+03
2.034548e+02,7.314627e+03
2.063475e+02,7.340948e+03
2.092402e+02,7.302340e+03
2.121329e+02,7.310428e+03
2.150256e+02,7.331599e+03
2.179183e+02,7.362189e+03
2.208110e+02,7.369417e+03
2.237037e+02,7.376050e+03
2.265964e+02,7.346752e+03
2.294892e+02,7.361356e+03
2.323819e+02,7.386311e+03
2.352746e+02,7.409656e+03
2.381673e+02,7.423706e+03
2.410600e+02,7.414006e+03
2.439527e+02,7.402922e+03
2.468454e+02,7.437085e+03
2.497381e+02,7.420735e+03
2.526308e+02,7.472582e+03
2.555235e+02,7.466261e+03
2.584161e+02,7.479155e+03
2.613088e+02,7.477739e+03
2.642015e+02,7.486411e+03
2.670942e+02,7.512419e+03
2.699869e+02,7.510884e+03
2.728796e+02,7.497128e+03
2.757723e+02,7.502626e+03
2.786650e+02,7.516958e+03
2.815577e+02,7.532350e+03
2.844504e+02,7.546025e+03
2.873431e+02,7.540475e+03
2.902358e+02,7.521732e+03
2.931285e+02,7.541105e+03
2.960212e+02,7.543753e+03
2.989139e+02,7.559234e+03
3.018066e+02,7.564052e+03
3.046993e+02,7.587952e+03
3.075920e+02,7.566343e+03
3.104847e+02,7.594783e+03
3.133774e+02,7.603265e+03
3.162701e+02,7.583767e+03
3.191628e+02,7.593470e+03
3.220555e+02,7.609771e+03
3.249482e+02,7.632639e+03
3.278409e+02,7.649592e+03
3.307336e+02,7.627294e+03
3.336263e+02,7.629237e+03
3.365190e+02,7.598870e+03
3.394117e+02,7.594023e+03
3.423044e+02,7.646513e+03
3.451971e+02,7.629345e+03
3.480898e+02,7.632185e+03
3.509825e+02,7.620932e+03
3.538752e+02,7.634396e+03
3.567680e+02,7.637254e+03
3.596607e+02,7.663581e+03
3.625534e+02,7.662864e+03
3.654461e+02,7.609859e+03
3.683388e+02,7.666514e+03
3.712315e+02,7.662464e+03
3.741242e+02,7.688216e+03
3.770169e+02,7.693859e+03
3.799096e+02,7.693429e+03
3.828023e+02,7.655779e+03
3.856950e+02,7.656095e+03
3.885877e+02,7.672780e+03
3.914804e+02,7.691814e+03
3.943731e+02,7.694881e+03
3.972658e+02,7.686803e+03
4.001585e+02,7.653475e+03
4.030512e+02,7.675603e+03
4.059439e+02,7.653903e+03
4.088366e+02,7.662552e+03
4.117293e+02,7.679894e+03
4.146220e+02,7.696928e+03
4.175147e+02,7.680052e+03
4.204074e+02,7.665451e+03
4.233001e+02,7.662611e+03
4.261928e+02,7.674914e+03
4.290855e+02,7.685528e+03
4.319782e+02,7.662890e+03
4.348709e+02,7.687834e+03
4.377636e+02,7.674149e+03
4.406563e+02,7.682255e+03
4.435490e+02,7.673046e+03
4.464417e+02,7.647935e+03
4.493344e+02,7.685715e+03
4.522271e+02,7.681168e+03
4.551198e+02,7.676134e+03
4.580125e+02,7.671046e+03
4.609052e+02,7.671858e+03
4.637979e+02,7.669330e+03
4.666906e+02,7.660906e+03
4.695833e+02,7.648246e+03
4.724760e+02,7.645729e+03
4.753687e+02,7.659128e+03
4.782614e+02,7.659890e+03
4.811541e+02,7.664494e+03
4.840468e+02,7.696661e+03
4.869395e+02,7.717169e+03
4.898322e+02,7.695650e+03
4.927249e+02,7.666675e+03
4.956176e+02,7.674274e+03
4.985103e+02,7.670180e+03
5.014030e+02,7.651952e+03
5.042957e+02,7.619671e+03
5.071884e+02,7.613950e+03
5.100811e+02,7.620289e+03
5.129738e+02,7.626807e+03
5.158665e+02,7.642767e+03
5.187592e+02,7.630471e+03
5.216519e+02,7.628073e+03
5.245446e+02,7.576519e+03
5.274373e+02,7.599372e+03
5.303300e+02,7.581397e+03
5.332227e+02,7.587786e+03
5.361154e+02,7.589912e+03
5.390081e+02,7.584876e+03
5.419008e+02,7.600038e+03
5.447935e+02,7.575738e+03
5.476862e+02,7.580610e+03
5.505789e+02,7.576694e+03
5.534716e+02,7.525694e+03
5.563643e+02,7.533764e+03
5.592570e+02,7.582626e+03
5.621497e+02,7.575899e+03
5.650424e+02,7.579933e+03
5.679351e+02,7.531456e+03
5.708278e+02,7.515054e+03
5.737205e+02,7.517225e+03
5.766132e+02,7.536709e+03
5.795059e+02,7.524094e+03
5.823986e+02,7.523540e+03
5.852913e+02,7.487550e+03
5.881840e+02,7.513774e+03
5.910767e+02,7.525304e+03
5.939694e+02,7.522845e+03
5.968621e+02,7.507794e+03
5.997548e+02,7.519286e+03
6.026475e+02,7.491750e+03
6.055402e+02,7.507087e+03
6.084329e+02,7.517540e+03
6.113256e+02,7.511078e+03
6.142183e+02,7.490032e+03
6.171110e+02,7.477273e+03
6.200037e+02,7.477234e+03
6.228964e+02,7.471474e+03
6.257891e+02,7.478563e+03
6.286818e+02,7.478849e+03
6.315745e+02,7.466641e+03
6.344672e+02,7.465016e+03
6.373599e+02,7.441220e+03
6.402526e+02,7.457802e+03
6.431453e+02,7.429557e+03
6.460380e+02,7.446151e+03
6.489307e+02,7.449607e+03
6.518234e+02,7.424628e+03
6.547161e+02,7.408774e+03
6.576088e+02,7.400037e+03
6.605015e+02,7.416888e+03
6.633942e+02,7.381382e+03
6.662869e+02,7.374071e+03
6.691796e+02,7.384638e+03
6.720723e+02,7.380614e+03
6.749650e+02,7.398575e+03
6.778577e+02,7.378289e+03
6.807504e+02,7.352297e+03
6.836431e+02,7.371965e+03
6.865358e+02,7.340786e+03
6.894285e+02,7.334550e+03
6.923212e+02,7.321703e+03
6.952139e+02,7.350147e+03
6.981066e+02,7.349997e+03
7.009993e+02,7.330561e+03
7.038920e+02,7.300217e+03
7.067847e+02,7.284693e+03
7.096774e+02,7.319347e+03
7.125701e+02,7.291692e+03
7.154628e+02,7.298903e+03
7.183555e+02,7.295476e+03
7.212482e+02,7.267930e+03
7.241409e+02,7.268259e+03
7.270336e+02,7.255802e+03
7.299263e+02,7.269471e+03
7.328190e+02,7.221369e+03
7.357117e+02,7.214169e+03
7.386044e+02,7.230807e+03
7.414971e+02,7.228367e+03
7.443898e+02,7.195986e+03
7.472825e+02,7.219595e+03
7.501752e+02,7.188569e+03
7.530679e+02,7.190911e+03
7.559606e+02,7.194275e+03
7.588533e+02,7.186708e+03
7.617460e+02,7.214014e+03
7.646387e+02,7.145765e+03
7.675314e+02,7.162596e+03
7.704241e+02,7.145569e+03
7.733168e+02,7.118003e+03
7.762095e+02,7.157310e+03
7.791022e+02,7.154830e+03
7.819949e+02,7.154507e+03
7.848876e+02,7.108601e+03
7.877803e+02,7.083351e+03
7.906730e+02,7.084042e+03
7.935657e+02,7.111622e+03
7.964584e+02,7.069322e+03
7.993511e+02,7.081680e+03
8.022438e+02,7.069661e+03
8.051365e+02,7.087572e+03
8.080292e+02,7.072079e+03
8.109219e+02,7.031086e+03
8.138146e+02,7.030352e+03
8.167073e+02,7.003808e+03
8.196000e+02,7.028844e+03
8.224927e+02,7.035011e+03
8.253854e+02,7.055765e+03
8.282781e+02,7.017428e+03
8.311708e+02,6.965986e+03
8.340635e+02,6.983984e+03
8.369562e+02,6.987327e+03
8.398489e+02,6.981703e+03
8.427416e+02,6.970247e+03
8.456343e+02,6.980712e+03
8.485270e+02,6.968853e+03
8.514197e+02,6.942383e+03
8.543124e+02,6.940300e+03
8.572051e+02,6.920553e+03
8.600978e+02,6.941626e+03
8.629905e+02,6.922182e+03
8.658832e+02,6.910547e+03
8.687759e+02,6.880941e+03
8.716686e+02,6.904110e+03
8.745613e+02,6.905354e+03
8.774540e+02,6.879924e+03
8.803467e+02,6.894609e+03
8.832394e+02,6.891157e+03
8.861321e+02,6.857896e+03
8.890248e+02,6.851479e+03
8.919175e+02,6.881876e+03
8.948102e+02,6.826869e+03
8.977029e+02,6.847590e+03
9.005956e+02,6.841130e+03
9.034883e+02,6.802563e+03
9.063810e+02,6.818415e+03
9.092737e+02,6.793577e+03
9.121664e+02,6.784483e+03
9.150591e+02,6.765935e+03
9.179518e+02,6.754638e+03
9.208445e+02,6.735900e+03
9.237372e+02,6.752429e+03
9.266299e+02,6.731854e+03
9.295226e+02,6.747260e+03
9.324153e+02,6.736257e+03
9.353080e+02,6.728354e+03
9.382007e+02,6.708160e+03
9.410934e+02,6.693284e+03
9.439861e+02,6.684101e+03
9.468788e+02,6.699781e+03
9.497715e+02,6.650354e+03
9.526642e+02,6.651958e+03
9.555569e+02,6.642427e+03
9.584496e+02,6.617081e+03
9.613423e+02,6.665054e+03
9.642350e+02,6.625313e+03
9.671277e+02,6.624458e+03
9.700204e+02,6.612115e+03
9.729131e+02,6.586671e+03
9.758058e+02,6.592860e+03
9.786985e+02,6.585615e+03
9.815912e+02,6.579104e+03
9.844839e+02,6.575603e+03
9.873766e+02,6.549485e+03
9.902693e+02,6.566971e+03
9.931620e+02,6.565803e+03
9.960547e+02,6.566101e+03
9.989474e+02,6.573346e+03
1.001840e+03,6.525245e+03
1.004733e+03,6.534092e+03
1.007626e+03,6.567337e+03
1.010518e+03,6.529055e+03
1.013411e+03,6.493759e+03
1.016304e+03,6.458081e+03
1.019196e+03,6.453271e+03
1.022089e+03,6.470265e+03
1.024982e+03,6.455791e+03
1.027875e+03,6.441868e+03
1.030767e+03,6.442921e+03
1.033660e+03,6.441019e+03
1.036552e+03,6.426544e+03
1.039445e+03,6.426263e+03
1.042338e+03,6.432018e+03
1.045231e+03,6.415275e+03
1.048123e+03,6.393635e+03
1.051016e+03,6.403352e+03
1.053909e+03,6.395407e+03
1.056802e+03,6.385870e+03
1.059694e+03,6.381709e+03
1.062587e+03,6.351687e+03
1.065479e+03,6.350514e+03
1.068372e+03,6.362860e+03
1.071265e+03,6.350946e+03
1.074158e+03,6.338104e+03
1.077050e+03,6.295686e+03
1.079943e+03,6.303392e+03
1.082836e+03,6.335412e+03
1.085729e+03,6.329660e+03
1.088621e+03,6.346261e+03
1.091514e+03,6.342762e+03
1.094406e+03,6.305289e+03
1.097299e+03,6.313989e+03
1.100192e+03,6.289214e+03
1.103085e+03,6.290797e+03
1.105977e+03,6.276149e+03
1.108870e+03,6.258502e+03
1.111763e+03,6.285508e+03
1.114656e+03,6.269669e+03
1.117548e+03,6.270527e+03
1.120441e+03,6.290104e+03
1.123334e+03,6.274610e+03
1.126226e+03,6.245004e+03
1.129119e+03,6.230945e+03
1.132012e+03,6.248371e+03
1.134904e+03,6.241150e+03
1.137797e+03,6.210412e+03
1.140690e+03,6.203451e+03
1.143583e+03,6.184984e+03
1.146475e+03,6.209302e+03
1.149368e+03,6.197786e+03
1.152261e+03,6.216135e+03
1.155153e+03,6.180804e+03
1.158046e+03,6.147461e+03
1.160939e+03,6.135384e+03
1.163831e+03,6.156477e+03
1.166724e+03,6.139161e+03
1.169617e+03,6.111576e+03
1.172510e+03,6.106841e+03
1.175402e+03,6.115799e+03
1.178295e+03,6.114401e+03
1.181188e+03,6.092252e+03
1.184080e+03,6.079644e+03
1.186973e+03,6.066475e+03
1.189866e+03,6.046620e+03
1.192758e+03,6.062655e+03
1.195651e+03,6.065134e+03
1.198544e+03,6.052193e+03
1.201437e+03,6.039167e+03
1.204329e+03,5.989123e+03
1.207222e+03,6.001700e+03
1.210115e+03,6.033964e+03
1.213007e+03,6.009233e+03
1.215900e+03,6.005589e+03
1.218793e+03,6.004843e+03
1.221685e+03,6.003983e+03
1.224578e+03,6.003939e+03
1.227471e+03,5.996907e+03
1.230364e+03,5.970598e+03
1.233256e+03,5.967086e+03
1.236149e+03,5.949222e+03
1.239042e+03,5.950793e+03
1.241934e+03,5.964705e+03
1.244827e+03,5.929743e+03
1.247720e+03,5.934412e+03
1.250612e+03,5.897462e+03
1.253505e+03,5.902483e+03
1.256398e+03,5.906235e+03
1.259291e+03,5.884790e+03
1.262183e+03,5.902885e+03
1.265076e+03,5.864600e+03
1.267969e+03,5.892650e+03
1.270861e+03,5.908219e+03
1.273754e+03,5.912386e+03
1.276647e+03,5.934166e+03
1.279539e+03,5.876099e+03
1.282432e+03,5.864156e+03
1.285325e+03,5.852938e+03
1.288218e+03,5.841766e+03
1.291110e+03,5.825366e+03
1.294003e+03,5.808290e+03
1.296896e+03,5.772306e+03
1.299788e+03,5.801716e+03
1.302681e+03,5.770090e+03
1.305574e+03,5.759732e+03
1.308466e+03,5.767447e+03
1.311359e+03,5.744114e+03
1.314252e+03,5.719270e+03
1.317145e+03,5.720708e+03
1.320037e+03,5.742688e+03
1.322930e+03,5.744678e+03
1.325823e+03,5.718398e+03
1.328715e+03,5.708814e+03
1.331608e+03,5.709568e+03
1.334501e+03,5.713603e+03
1.337393e+03,5.714655e+03
1.340286e+03,5.708847e+03
1.343179e+03,5.681540e+03
1.346072e+03,5.684736e+03
1.348964e+03,5.681396e+03
1.351857e+03,5.662873e+03
1.354750e+03,5.659654e+03
1.357642e+03,5.641214e+03
1.360535e+03,5.628606e+03
1.363428e+03,5.622667e+03
1.366320e+03,5.628375e+03
1.369213e+03,5.633342e+03
1.372106e+03,5.606257e+03
1.374999e+03,5.589345e+03
1.377891e+03,5.593171e+03
1.380784e+03,5.609229e+03
1.383677e+03,5.588264e+03
1.386569e+03,5.550788e+03
1.389462e+03,5.523073e+03
1.392355e+03,5.521740e+03
1.395247e+03,5.523461e+03
1.398140e+03,5.529005e+03
1.401033e+03,5.525287e+03
1.403926e+03,5.502317e+03
1.406818e+03,5.493850e+03
1.409711e+03,5.488146e+03
1.412604e+03,5.492280e+03
1.415496e+03,5.472210e+03
1.418389e+03,5.480075e+03
1.421282e+03,5.432945e+03
1.424174e+03,5.416000e+03
1.427067e+03,5.398998e+03
1.429960e+03,5.420146e+03
1.432853e+03,5.398195e+03
1.435745e+03,5.407208e+03
1.438638e+03,5.372621e+03
1.441531e+03,5.364511e+03
1.444423e+03,5.372639e+03
1.447316e+03,5.353456e+03
1.450209e+03,5.332503e+03
1.453101e+03,5.319567e+03
1.455994e+03,5.337174e+03
1.458887e+03,5.313643e+03
1.461780e+03,5.346066e+03
1.464672e+03,5.310653e+03
1.467565e+03,5.314809e+03
1.470458e+03,5.313935e+03
1.473350e+03,5.304034e+03
1.476243e+03,5.291078e+03
1.479136e+03,5.292703e+03
1.482028e+03,5.288638e+03
1.484921e+03,5.276522e+03
1.487814e+03,5.286506e+03
1.490707e+03,5.263153e+03
1.493599e+03,5.273697e+03
1.496492e+03,5.249549e+03
1.499385e+03,5.228337e+03
1.502277e+03,5.216340e+03
1.505170e+03,5.211638e+03
1.508063e+03,5.209901e+03
1.510955e+03,5.172042e+03
1.513848e+03,5.157068e+03
1.516741e+03,5.172369e+03
1.519634e+03,5.154012e+03
1.522526e+03,5.151583e+03
1.525419e+03,5.138866e+03
1.528312e+03,5.115520e+03
1.531204e+03,5.123154e+03
1.534097e+03,5.123212e+03
1.536990e+03,5.100220e+03
1.539882e+03,5.111598e+03
1.542775e+03,5.080335e+03
1.545668e+03,5.091572e+03
1.548561e+03,5.083391e+03
1.551453e+03,5.105942e+03
1.554346e+03,5.086466e+03
1.557239e+03,5.073043e+03
1.560131e+03,5.062756e+03
1.563024e+03,5.049295e+03
1.565917e+03,5.066533e+03
1.568809e+03,5.085235e+03
1.571702e+03,5.084857e+03
1.574595e+03,5.061204e+03
1.577488e+03,5.049623e+03
1.580380e+03,5.049067e+03
1.583273e+03,5.042991e+03
1.586166e+03,5.059655e+03
1.589058e+03,5.049519e+03
1.591951e+03,5.042427e+03
1.594844e+03,5.009000e+03
1.597736e+03,5.013513e+03
1.600629e+03,4.991927e+03
1.603522e+03,4.969122e+03
1.606415e+03,4.930824e+03
1.609307e+03,4.915568e+03
1.612200e+03,4.946398e+03
1.615093e+03,4.911144e+03
1.617985e+03,4.931894e+03
1.620878e+03,4.891109e+03
1.623771e+03,4.856330e+03
1.626663e+03,4.870680e+03
1.629556e+03,4.865097e+03
1.632449e+03,4.846931e+03
1.635342e+03,4.824125e+03
1.638234e+03,4.817819e+03
1.641127e+03,4.815000e+03
1.644020e+03,4.820846e+03
1.646912e+03,4.777415e+03
1.649805e+03,4.783220e+03
1.652698e+03,4.742604e+03
1.655590e+03,4.770218e+03
1.658483e+03,4.749271e+03
1.661376e+03,4.758869e+03
1.664269e+03,4.720782e+03
1.667161e+03,4.721542e+03
1.670054e+03,4.713394e+03
1.672947e+03,4.696604e+03
1.675839e+03,4.716811e+03
1.678732e+03,4.698972e+03
1.681625e+03,4.675860e+03
1.684517e+03,4.692749e+03
1.687410e+03,4.681078e+03
1.690303e+03,4.672902e+03
1.693196e+03,4.653604e+03
1.696088e+03,4.661395e+03
1.698981e+03,4.652179e+03
1.701874e+03,4.636140e+03
1.704766e+03,4.631260e+03
1.707659e+03,4.641944e+03
1.710552e+03,4.613837e+03
1.713444e+03,4.573153e+03
1.716337e+03,4.574247e+03
1.719230e+03,4.588328e+03
1.722123e+03,4.571921e+03
1.725015e+03,4.566775e+03
1.727908e+03,4.560423e+03
1.730801e+03,4.567363e+03
1.733693e+03,4.560790e+03
1.736586e+03,4.514914e+03
1.739479e+03,4.534096e+03
1.742371e+03,4.501085e+03
1.745264e+03,4.503685e+03
1.748157e+03,4.518378e+03
1.751050e+03,4.491679e+03
1.753942e+03,4.498966e+03
1.756835e+03,4.465019e+03
1.759728e+03,4.456177e+03
1.762620e+03,4.483229e+03
1.765513e+03,4.485122e+03
1.768406e+03,4.421814e+03
1.771298e+03,4.430376e+03
1.774191e+03,4.450328e+03
1.777084e+03,4.411525e+03
1.779977e+03,4.416604e+03
1.782869e+03,4.426262e+03
1.785762e+03,4.409655e+03
1.788655e+03,4.406250e+03
1.791547e+03,4.384507e+03
1.794440e+03,4.369172e+03
1.797333e+03,4.363975e+03
1.800225e+03,4.364181e+03
1.803118e+03,4.369574e+03
1.806011e+03,4.329365e+03
1.808904e+03,4.333534e+03
1.811796e+03,4.319320e+03
1.814689e+03,4.343179e+03
1.817582e+03,4.316528e+03
1.820474e+03,4.328451e+03
1.823367e+03,4.272802e+03
1.826260e+03,4.292908e+03
1.829152e+03,4.283939e+03
1.832045e+03,4.274510e+03
1.834938e+03,4.244361e+03
1.837831e+03,4.235997e+03
1.840723e+03,4.244351e+03
1.843616e+03,4.241047e+03
1.846509e+03,4.233028e+03
1.849401e+03,4.228604e+03
1.852294e+03,4.192212e+03
1.855187e+03,4.193742e+03
1.858079e+03,4.214420e+03
1.860972e+03,4.165381e+03
1.863865e+03,4.199036e+03
1.866758e+03,4.151995e+03
1.869650e+03,4.165286e+03
1.872543e+03,4.138244e+03
1.875436e+03,4.160058e+03
1.878328e+03,4.146289e+03
1.881221e+03,4.138068e+03
1.884114e+03,4.107860e+03
1.887006e+03,4.099641e+03
1.889899e+03,4.117283e+03
1.892792e+03,4.104299e+03
1.895685e+03,4.086407e+03
1.898577e+03,4.066808e+03
1.901470e+03,4.062843e+03
1.904363e+03,4.051388e+03
1.907255e+03,4.034345e+03
1.910148e+03,4.036848e+03
1.913041e+03,4.021843e+03
1.915933e+03,4.034819e+03
1.918826e+03,4.011476e+03
1.921719e+03,4.014521e+03
1.924612e+03,3.978199e+03
1.927504e+03,3.979969e+03
1.930397e+03,3.943947e+03
1.933290e+03,3.955758e+03
1.936182e+03,3.958476e+03
1.939075e+03,3.943164e+03
1.941968e+03,3.926507e+03
1.944860e+03,3.935764e+03
1.947753e+03,3.931002e+03
1.950646e+03,3.906586e+03
1.953539e+03,3.905373e+03
1.956431e+03,3.904798e+03
1.959324e+03,3.923015e+03
1.962217e+03,3.868860e+03
1.965109e+03,3.864660e+03
1.968002e+03,3.861089e+03
1.970895e+03,3.887135e+03
1.973787e+03,3.861316e+03
1.976680e+03,3.828616e+03
1.979573e+03,3.854330e+03
1.982466e+03,3.837953e+03
1.985358e+03,3.816500e+03
1.988251e+03,3.814952e+03
1.991144e+03,3.793028e+03
1.994036e+03,3.780130e+03
1.996929e+03,3.773457e+03
1.999822e+03,3.772835e+03
2.002714e+03,3.749840e+03
2.005607e+03,3.769362e+03
2.008500e+03,3.743382e+03
2.011393e+03,3.717849e+03
2.014285e+03,3.740844e+03
2.017178e+03,3.722090e+03
2.020071e+03,3.709422e+03
2.022963e+03,3.681657e+03
2.025856e+03,3.662234e+03
2.028749e+03,3.668726e+03
2.031641e+03,3.666683e+03
2.034534e+03,3.694455e+03
2.037427e+03,3.678036e+03
2.040320e+03,3.629563e+03
2.043212e+03,3.647941e+03
2.046105e+03,3.650335e+03
2.048998e+03,3.621952e+03
2.051890e+03,3.622194e+03
2.054783e+03,3.585040e+03
2.057676e+03,3.585836e+03
2.060568e+03,3.599925e+03
2.063461e+03,3.570946e+03
2.066354e+03,3.559261e+03
2.069247e+03,3.541827e+03
2.072139e+03,3.538536e+03
2.075032e+03,3.545978e+03
2.077925e+03,3.538426e+03
2.080817e+03,3.535948e+03
2.083710e+03,3.519364e+03
2.086603e+03,3.511422e+03
2.089496e+03,3.505392e+03
2.092388e+03,3.515890e+03
2.095281e+03,3.501084e+03
2.098174e+03,3.469391e+03
2.101066e+03,3.477958e+03
2.103959e+03,3.455132e+03
2.106852e+03,3.434691e+03
2.109744e+03,3.455032e+03
2.112637e+03,3.431324e+03
2.115530e+03,3.398170e+03
2.118422e+03,3.395077e+03
2.121315e+03,3.434485e+03
2.124208e+03,3.419104e+03
2.127101e+03,3.390071e+03
2.129993e+03,3.375838e+03
2.132886e+03,3.380786e+03
2.135779e+03,3.376596e+03
2.138671e+03,3.361621e+03
2.141564e+03,3.346389e+03
2.144457e+03,3.319146e+03
2.147350e+03,3.305184e+03
2.150242e+03,3.320734e+03
2.153135e+03,3.322568e+03
2.156028e+03,3.296280e+03
2.158920e+03,3.282379e+03
2.161813e+03,3.277642e+03
2.164706e+03,3.288805e+03
2.167598e+03,3.246066e+03
2.170491e+03,3.252054e+03
2.173384e+03,3.252335e+03
2.176277e+03,3.217397e+03
2.179169e+03,3.233840e+03
2.182062e+03,3.214183e+03
2.184955e+03,3.222933e+03
2.187847e+03,3.203226e+03
2.190740e+03,3.203967e+03
2.193633e+03,3.187007e+03
2.196525e+03,3.173606e+03
2.199418e+03,3.176739e+03
2.202311e+03,3.163795e+03
2.205204e+03,3.173743e+03
2.208096e+03,3.176553e+03
2.210989e+03,3.104078e+03
2.213882e+03,3.127363e+03
2.216774e+03,3.130315e+03
2.219667e+03,3.127652e+03
2.222560e+03,3.091970e+03
2.225452e+03,3.088862e+03
2.228345e+03,3.094478e+03
2.231238e+03,3.086323e+03
2.234131e+03,3.100312e+03
2.237023e+03,3.053614e+03
2.239916e+03,3.035867e+03
2.242809e+03,3.039445e+03
2.245701e+03,3.026270e+03
2.248594e+03,3.054047e+03
2.251487e+03,3.007379e+03
2.254379e+03,3.014011e+03
2.257272e+03,2.962081e+03
2.260165e+03,2.985469e+03
2.263058e+03,3.010584e+03
2.265950e+03,2.970200e+03
2.268843e+03,2.968476e+03
2.271736e+03,2.927291e+03
2.274628e+03,2.952598e+03
2.277521e+03,2.928556e+03
2.280414e+03,2.941739e+03
2.283306e+03,2.914003e+03
2.286199e+03,2.914379e+03
2.289092e+03,2.903920e+03
2.291985e+03,2.884084e+03
2.294877e+03,2.908332e+03
2.297770e+03,2.916586e+03
2.300663e+03,2.856458e+03
2.303555e+03,2.850447e+03
2.306448e+03,2.854632e+03
2.309341e+03,2.837741e+03
2.312233e+03,2.821517e+03
2.315126e+03,2.856133e+03
2.318019e+03,2.832778e+03
2.320912e+03,2.824813e+03
2.323804e+03,2.831089e+03
2.326697e+03,2.817694e+03
2.329590e+03,2.812603e+03
2.332482e+03,2.803777e+03
2.335375e+03,2.780029e+03
2.338268e+03,2.750375e+03
2.341160e+03,2.758826e+03
2.344053e+03,2.784316e+03
2.346946e+03,2.733015e+03
2.349839e+03,2.730392e+03
2.352731e+03,2.733688e+03
2.355624e+03,2.745626e+03
2.358517e+03,2.720615e+03
2.361409e+03,2.714728e+03
2.364302e+03,2.680667e+03
2.367195e+03,2.718493e+03
2.370087e+03,2.698204e+03
2.372980e+03,2.669791e+03
2.375873e+03,2.681471e+03
2.378766e+03,2.682531e+03
2.381658e+03,2.635229e+03
2.384551e+03,2.656537e+03
2.387444e+03,2.650615e+03
2.390336e+03,2.650223e+03
2.393229e+03,2.646061e+03
2.396122e+03,2.616312e+03
2.399014e+03,2.598860e+03
2.401907e+03,2.603662e+03
2.404800e+03,2.614931e+03
2.407693e+03,2.599554e+03
2.410585e+03,2.583863e+03
2.413478e+03,2.608012e+03
2.416371e+03,2.549007e+03
2.419263e+03,2.572517e+03
2.422156e+03,2.550147e+03
2.425049e+03,2.554516e+03
2.427941e+03,2.530938e+03
2.430834e+03,2.551217e+03
2.433727e+03,2.543069e+03
2.436620e+03,2.542335e+03
2.439512e+03,2.522141e+03
2.442405e+03,2.496042e+03
2.445298e+03,2.510395e+03
2.448190e+03,2.530108e+03
2.451083e+03,2.507769e+03
2.453976e+03,2.508896e+03
2.456868e+03,2.490423e+03
2.459761e+03,2.474415e+03
2.462654e+03,2.443616e+03
2.465547e+03,2.469251e+03
2.468439e+03,2.461664e+03
2.471332e+03,2.435057e+03
2.474225e+03,2.432463e+03
2.477117e+03,2.433164e+03
2.480010e+03,2.435316e+03
2.482903e+03,2.418410e+03
2.485795e+03,2.442198e+03
2.488688e+03,2.411676e+03
2.491581e+03,2.396390e+03
2.494474e+03,2.399634e+03
2.497366e+03,2.380168e+03
2.500259e+03,2.390516e+03
2.503152e+03,2.362114e+03
2.506044e+03,2.372472e+03
2.508937e+03,2.358665e+03
2.511830e+03,2.363856e+03
2.514722e+03,2.348422e+03
2.517615e+03,2.353230e+03
2.520508e+03,2.342854e+03
2.523401e+03,2.345731e+03
2.526293e+03,2.347737e+03
2.529186e+03,2.344433e+03
2.532079e+03,2.315273e+03
2.534971e+03,2.335834e+03
2.537864e+03,2.305785e+03
2.540757e+03,2.298768e+03
2.543649e+03,2.275452e+03
2.546542e+03,2.314894e+03
2.549435e+03,2.273387e+03
2.552328e+03,2.279191e+03
2.555220e+03,2.273478e+03
2.558113e+03,2.273070e+03
2.561006e+03,2.274390e+03
2.563898e+03,2.252469e+03
2.566791e+03,2.252295e+03
2.569684e+03,2.271293e+03
2.572576e+03,2.229027e+03
2.575469e+03,2.257203e+03
2.578362e+03,2.235603e+03
2.581255e+03,2.245211e+03
2.584147e+03,2.237346e+03
2.587040e+03,2.214395e+03
2.589933e+03,2.223202e+03
2.592825e+03,2.231063e+03
2.595718e+03,2.202780e+03
2.598611e+03,2.208890e+03
2.601503e+03,2.171008e+03
2.604396e+03,2.186559e+03
2.607289e+03,2.146764e+03
2.610182e+03,2.167828e+03
2.613074e+03,2.145386e+03
2.615967e+03,2.157741e+03
2.618860e+03,2.178347e+03
2.621752e+03,2.135444e+03
2.624645e+03,2.167508e+03
2.627538e+03,2.153702e+03
2.630430e+03,2.160036e+03
2.633323e+03,2.112064e+03
2.636216e+03,2.136966e+03
2.639109e+03,2.122504e+03
2.642001e+03,2.126077e+03
2.644894e+03,2.119701e+03
2.647787e+03,2.113410e+03
2.650679e+03,2.108578e+03
2.653572e+03,2.069882e+03
2.656465e+03,2.086431e+03
2.659357e+03,2.073626e+03
2.662250e+03,2.079385e+03
2.665143e+03,2.095819e+03
2.668036e+03,2.040952e+03
2.670928e+03,2.064095e+03
2.673821e+03,2.074481e+03
2.676714e+03,2.053904e+03
2.679606e+03,2.071875e+03
2.682499e+03,2.043564e+03
2.685392e+03,2.047956e+03
2.688284e+03,2.038636e+03
2.691177e+03,2.041188e+03
2.694070e+03,2.012901e+03
2.696963e+03,2.020361e+03
2.699855e+03,2.019289e+03
2.702748e+03,2.054600e+03
2.705641e+03,1.998685e+03
2.708533e+03,2.001798e+03
2.711426e+03,2.010006e+03
2.714319e+03,1.996998e+03
2.717211e+03,1.992026e+03
2.720104e+03,1.991381e+03
2.722997e+03,1.999052e+03
2.725890e+03,1.961090e+03
2.728782e+03,1.983333e+03
2.731675e+03,1.977268e+03
2.734568e+03,1.979902e+03
2.737460e+03,1.963680e+03
2.740353e+03,1.964245e+03
2.743246e+03,1.977219e+03
2.746138e+03,1.953237e+03
2.749031e+03,1.928242e+03
2.751924e+03,1.962276e+03
2.754817e+03,1.941417e+03
2.757709e+03,1.936938e+03
2.760602e+03,1.896707e+03
2.763495e+03,1.922851e+03
2.766387e+03,1.904347e+03
2.769280e+03,1.952420e+03
2.772173e+03,1.911422e+03
2.775065e+03,1.923502e+03
2.777958e+03,1.917586e+03
2.780851e+03,1.895692e+03
2.783744e+03,1.935872e+03
2.786636e+03,1.892813e+03
2.789529e+03,1.895023e+03
2.792422e+03,1.899786e+03
2.795314e+03,1.875753e+03
2.798207e+03,1.889356e+03
2.801100e+03,1.887975e+03
2.803992e+03,1.874846e+03
2.806885e+03,1.871464e+03
2.809778e+03,1.841645e+03
2.812671e+03,1.835615e+03
2.815563e+03,1.841455e+03
2.818456e+03,1.872214e+03
2.821349e+03,1.831203e+03
2.824241e+03,1.851096e+03
2.827134e+03,1.855472e+03
2.830027e+03,1.825862e+03
2.832919e+03,1.837836e+03
2.835812e+03,1.846078e+03
2.838705e+03,1.832551e+03
2.841598e+03,1.874715e+03
2.844490e+03,1.820552e+03
2.847383e+03,1.817306e+03
2.850276e+03,1.839916e+03
2.853168e+03,1.822895e+03
2.856061e+03,1.817467e+03
2.858954e+03,1.821404e+03
2.861846e+03,1.820629e+03
2.864739e+03,1.817240e+03
2.867632e+03,1.844194e+03
2.870525e+03,1.793257e+03
2.873417e+03,1.834137e+03
2.876310e+03,1.804291e+03
2.879203e+03,1.802965e+03
2.882095e+03,1.804162e+03
2.884988e+03,1.822179e+03
2.887881e+03,1.824800e+03
2.890773e+03,1.787782e+03
2.893666e+03,1.807705e+03
2.896559e+03,1.780894e+03
2.899452e+03,1.796096e+03
2.902344e+03,1.765643e+03
2.905237e+03,1.781058e+03
2.908130e+03,1.774995e+03
2.911022e+03,1.767845e+03
2.913915e+03,1.753119e+03
2.916808e+03,1.738957e+03
2.919700e+03,1.770635e+03
2.922593e+03,1.743677e+03
2.925486e+03,1.760290e+03
2.928379e+03,1.740602e+03
2.931271e+03,1.706113e+03
2.934164e+03,1.718858e+03
2.937057e+03,1.726860e+03
2.939949e+03,1.750895e+03
2.942842e+03,1.728617e+03
2.945735e+03,1.693563e+03
2.948627e+03,1.707739e+03
2.951520e+03,1.731418e+03
2.954413e+03,1.694597e+03
2.957306e+03,1.739677e+03
2.960198e+03,1.693654e+03
2.963091e+03,1.699131e+03
2.965984e+03,1.671562e+03
2.968876e+03,1.682573e+03
2.971769e+03,1.693210e+03
2.974662e+03,1.654570e+03
2.977554e+03,1.693557e+03
2.980447e+03,1.674572e+03
2.983340e+03,1.684414e+03
2.986233e+03,1.636492e+03
2.989125e+03,1.648028e+03
2.992018e+03,1.618098e+03
2.994911e+03,1.626397e+03
2.997803e+03,1.644083e+03
3.000696e+03,1.630646e+03
3.003589e+03,1.627302e+03
3.006481e+03,1.628042e+03
3.009374e+03,1.633624e+03
3.012267e+03,1.621576e+03
3.015160e+03,1.645222e+03
3.018052e+03,1.603583e+03
3.020945e+03,1.626717e+03
3.023838e+03,1.602185e+03
3.026730e+03,1.598385e+03
3.029623e+03,1.603230e+03
3.032516e+03,1.636809e+03
3.035408e+03,1.606258e+03
3.038301e+03,1.585994e+03
3.041194e+03,1.603019e+03
3.044087e+03,1.616019e+03
3.046979e+03,1.604184e+03
3.049872e+03,1.580086e+03
3.052765e+03,1.598755e+03
3.055657e+03,1.608285e+03
3.058550e+03,1.580297e+03
3.061443e+03,1.620320e+03
3.064335e+03,1.541524e+03
3.067228e+03,1.599406e+03
3.070121e+03,1.566595e+03
3.073014e+03,1.564214e+03
3.075906e+03,1.598630e+03
3.078799e+03,1.556670e+03
3.081692e+03,1.586294e+03
3.084584e+03,1.556182e+03
3.087477e+03,1.579160e+03
3.090370e+03,1.561706e+03
3.093262e+03,1.566531e+03
3.096155e+03,1.573765e+03
3.099048e+03,1.560761e+03
3.101941e+03,1.588813e+03
3.104833e+03,1.527254e+03
3.107726e+03,1.516397e+03
3.110619e+03,1.579211e+03
3.113511e+03,1.533130e+03
3.116404e+03,1.609193e+03
3.119297e+03,1.542363e+03
3.122189e+03,1.546887e+03
3.125082e+03,1.518674e+03
3.127975e+03,1.505432e+03
3.130868e+03,1.541172e+03
3.133760e+03,1.584287e+03
3.136653e+03,1.551457e+03
3.139546e+03,1.547318e+03
3.142438e+03,1.526508e+03
3.145331e+03,1.494116e+03
3.148224e+03,1.540146e+03
3.151116e+03,1.567293e+03
3.154009e+03,1.536314e+03
3.156902e+03,1.508465e+03
3.159795e+03,1.542510e+03
3.162687e+03,1.529711e+03
3.165580e+03,1.541045e+03
3.168473e+03,1.554974e+03
3.171365e+03,1.507098e+03
3.174258e+03,1.576109e+03
3.177151e+03,1.571684e+03
3.180043e+03,1.521128e+03
3.182936e+03,1.547012e+03
3.185829e+03,1.546703e+03
3.188722e+03,1.486448e+03
3.191614e+03,1.521036e+03
3.194507e+03,1.539129e+03
3.197400e+03,1.538865e+03
3.200292e+03,1.563070e+03
3.203185e+03,0.000000e+00
3.206078e+03,0.000000e+00
3.208970e+03,0.000000e+00
3.211863e+03,0.000000e+00
3.214756e+03,0.000000e+00
3.217649e+03,0.000000e+00
3.220541e+03,0.000000e+00
3.223434e+03,0.000000e+00
3.226327e+03,0.000000e+00
3.229219e+03,0.000000e+00
3.232112e+03,0.000000e+00
3.235005e+03,0.000000e+00
3.237897e+03,0.000000e+00
3.240790e+03,0.000000e+00
3.243683e+03,0.000000e+00
3.246576e+03,0.000000e+00
3.249468e+03,0.000000e+00
3.252361e+03,0.000000e+00
3.255254e+03,0.000000e+00
3.258146e+03,0.000000e+00
3.261039e+03,0.000000e+00
3.263932e+03,0.000000e+00
3.266824e+03,0.000000e+00
3.269717e+03,0.000000e+00
3.272610e+03,0.000000e+00
3.275503e+03,0.000000e+00
3.278395e+03,0.000000e+00
3.281288e+03,0.000000e+00
3.284181e+03,0.000000e+00
3.287073e+03,0.000000e+00
3.289966e+03,0.000000e+00
3.292859e+03,0.000000e+00
3.295751e+03,0.000000e+00
3.298644e+03,0.000000e+00
3.301537e+03,0.000000e+00
3.304430e+03,0.000000e+00
3.307322e+03,0.000000e+00
3.310215e+03,0.000000e+00
3.313108e+03,0.000000e+00
3.316000e+03,0.000000e+00
3.318893e+03,0.000000e+00
3.321786e+03,0.000000e+00
3.324678e+03,0.000000e+00
3.327571e+03,0.000000e+00
3.330464e+03,0.000000e+00
3.333357e+03,0.000000e+00
3.336249e+03,0.000000e+00
3.339142e+03,0.000000e+00
3.342035e+03,0.000000e+00
3.344927e+03,0.000000e+00
3.347820e+03,0.000000e+00
3.350713e+03,0.000000e+00
3.353605e+03,0.000000e+00
3.356498e+03,0.000000e+00
3.359391e+03,0.000000e+00
3.362284e+03,0.000000e+00
3.365176e+03,0.000000e+00
3.368069e+03,0.000000e+00
3.370962e+03,0.000000e+00
3.373854e+03,0.000000e+00
3.376747e+03,0.000000e+00
3.379640e+03,0.000000e+00
3.382532e+03,0.000000e+00
3.385425e+03,0.000000e+00
3.388318e+03,0.000000e+00
3.391211e+03,0.000000e+00
3.394103e+03,0.000000e+00
3.396996e+03,0.000000e+00
3.399889e+03,0.000000e+00
3.402781e+03,0.000000e+00
3.405674e+03,0.000000e+00
3.408567e+03,0.000000e+00
3.411459e+03,0.000000e+00
3.414352e+03,0.000000e+00
3.417245e+03,0.000000e+00
3.420138e+03,0.000000e+00
3.423030e+03,0.000000e+00
3.425923e+03,0.000000e+00
3.428816e+03,0.000000e+00
3.431708e+03,0.000000e+00
3.434601e+03,0.000000e+00
3.437494e+03,0.000000e+00
3.440386e+03,0.000000e+00
3.443279e+03,0.000000e+00
3.446172e+03,0.000000e+00
3.449065e+03,0.000000e+00
3.451957e+03,0.000000e+00
3.454850e+03,0.000000e+00
3.457743e+03,0.000000e+00
3.460635e+03,0.000000e+00
3.463528e+03,0.000000e+00
3.466421e+03,0.000000e+00
3.469313e+03,0.000000e+00
3.472206e+03,0.000000e+00
3.475099e+03,0.000000e+00
3.477992e+03,0.000000e+00
3.480884e+03,0.000000e+00
3.483777e+03,0.000000e+00
3.486670e+03,0.000000e+00
3.489563e+03,0.000000e+00
3.492455e+03,0.000000e+00
3.495348e+03,0.000000e+00
3.498240e+03,0.000000e+00
3.500169e+03,0.000000e+00