File: RAMAN_data/13112023_r1/blue fibre3.CSV
9.931763e+01,0.000000e+00
1.022103e+02,0.000000e+00
1.051030e+02,0.000000e+00
1.079957e+02,0.000000e+00
1.108884e+02,0.000000e+00
1.137811e+02,0.000000e+00
1.166738e+02,0.000000e+00
1.195665e+02,0.000000e+00
1.224592e+02,0.000000e+00
1.253519e+02,0.000000e+00
1.282446e+02,0.000000e+00
1.311373e+02,0.000000e+00
1.340300e+02,0.000000e+00
1.369227e+02,0.000000e+00
1.398154e+02,0.000000e+00
1.427081e+02,0.000000e+00
1.456008e+02,0.000000e+00
1.484935e+02,0.000000e+00
1.513862e+02,0.000000e+00
1.542789e+02,0.000000e+00
1.571716e+02,0.000000e+00
1.600643e+02,0.000000e+00
1.629570e+02,0.000000e+00
1.658497e+02,0.000000e+00
1.687424e+02,0.000000e+00
1.716351e+02,0.000000e+00
1.745278e+02,0.000000e+00
1.774205e+02,0.000000e+00
1.803132e+02,0.000000e+00
1.832059e+02,0.000000e+00
1.860986e+02,0.000000e+00
1.889913e+02,0.000000e+00
1.918840e+02,0.000000e+00
1.947767e+02,0.000000e+00
1.976694e+02,0.000000e+00
2.005621e+02,1.273545e+03
2.034548e+02,1.282428e+03
2.063475e+02,1.286118e+03
2.092402e+02,1.280924e+03
2.121329e+02,1.281579e+03
2.150256e+02,1.280211e+03
2.179183e+02,1.278723e+03
2.208110e+02,1.275724e+03
2.237037e+02,1.281929e+03
2.265964e+02,1.272519e+03
2.294892e+02,1.278551e+03
2.323819e+02,1.284844e+03
2.352746e+02,1.283962e+03
2.381673e+02,1.278008e+03
2.410600e+02,1.264881e+03
2.439527e+02,1.280059e+03
2.468454e+02,1.276385e+03
2.497381e+02,1.280867e+03
2.526308e+02,1.291001e+03
2.555235e+02,1.275844e+03
2.584161e+02,1.272919e+03
2.613088e+02,1.281855e+03
2.642015e+02,1.285217e+03
2.670942e+02,1.286666e+03
2.699869e+02,1.285469e+03
2.728796e+02,1.284451e+03
2.757723e+02,1.287202e+03
2.786650e+02,1.290152e+03
2.815577e+02,1.281474e+03
2.844504e+02,1.282964e+03
2.873431e+02,1.283884e+03
2.902358e+02,1.277867e+03
2.931285e+02,1.282170e+03
2.960212e+02,1.280473e+03
2.989139e+02,1.287085e+03
3.018066e+02,1.276715e+03
3.046993e+02,1.284397e+03
3.075920e+02,1.286778e+03
3.104847e+02,1.283306e+03
3.133774e+02,1.281633e+03
3.162701e+02,1.282037e+03
3.191628e+02,1.275515e+03
3.220555e+02,1.283351e+03
3.249482e+02,1.273035e+03
3.278409e+02,1.281644e+03
3.307336e+02,1.289970e+03
3.336263e+02,1.288711e+03
3.365190e+02,1.280430e+03
3.394117e+02,1.271540e+03
3.423044e+02,1.281751e+03
3.451971e+02,1.274084e+03
3.480898e+02,1.279554e+03
3.509825e+02,1.278641e+03
3.538752e+02,1.282809e+03
3.567680e+02,1.276129e+03
3.596607e+02,1.278957e+03
3.625534e+02,1.278302e+03
3.654461e+02,1.279898e+03
3.683388e+02,1.268802e+03
3.712315e+02,1.277495e+03
3.741242e+02,1.280558e+03
3.770169e+02,1.295980e+03
3.799096e+02,1.289117e+03
3.828023e+02,1.277009e+03
3.856950e+02,1.270631e+03
3.885877e+02,1.272200e+03
3.914804e+02,1.265860e+03
3.943731e+02,1.259957e+03
3.972658e+02,1.263761e+03
4.001585e+02,1.262435e+03
4.030512e+02,1.255450e+03
4.059439e+02,1.255962e+03
4.088366e+02,1.253845e+03
4.117293e+02,1.250040e+03
4.146220e+02,1.246198e+03
4.175147e+02,1.248594e+03
4.204074e+02,1.253861e+03
4.233001e+02,1.246871e+03
4.261928e+02,1.249052e+03
4.290855e+02,1.240553e+03
4.319782e+02,1.252194e+03
4.348709e+02,1.244589e+03
4.377636e+02,1.241417e+03
4.406563e+02,1.245088e+03
4.435490e+02,1.239433e+03
4.464417e+02,1.240531e+03
4.493344e+02,1.243517e+03
4.522271e+02,1.240793e+03
4.551198e+02,1.236736e+03
4.580125e+02,1.232201e+03
4.609052e+02,1.232490e+03
4.637979e+02,1.230645e+03
4.666906e+02,1.234901e+03
4.695833e+02,1.230721e+03
4.724760e+02,1.217183e+03
4.753687e+02,1.214715e+03
4.782614e+02,1.220693e+03
4.811541e+02,1.213497e+03
4.840468e+02,1.215182e+03
4.869395e+02,1.208495e+03
4.898322e+02,1.216928e+03
4.927249e+02,1.210657e+03
4.956176e+02,1.206341e+03
4.985103e+02,1.214405e+03
5.014030e+02,1.209692e+03
5.042957e+02,1.200831e+03
5.071884e+02,1.197085e+03
5.100811e+02,1.201915e+03
5.129738e+02,1.198069e+03
5.158665e+02,1.209445e+03
5.187592e+02,1.206194e+03
5.216519e+02,1.201114e+03
5.245446e+02,1.205236e+03
5.274373e+02,1.195869e+03
5.303300e+02,1.184689e+03
5.332227e+02,1.180111e+03
5.361154e+02,1.191702e+03
5.390081e+02,1.183797e+03
5.419008e+02,1.183161e+03
5.447935e+02,1.192518e+03
5.476862e+02,1.187838e+03
5.505789e+02,1.177977e+03
5.534716e+02,1.166170e+03
5.563643e+02,1.165321e+03
5.592570e+02,1.179302e+03
5.621497e+02,1.172332e+03
5.650424e+02,1.173286e+03
5.679351e+02,1.164083e+03
5.708278e+02,1.149514e+03
5.737205e+02,1.159991e+03
5.766132e+02,1.171557e+03
5.795059e+02,1.161687e+03
5.823986e+02,1.152531e+03
5.852913e+02,1.144918e+03
5.881840e+02,1.152148e+03
5.910767e+02,1.147066e+03
5.939694e+02,1.151361e+03
5.968621e+02,1.152108e+03
5.997548e+02,1.147870e+03
6.026475e+02,1.137891e+03
6.055402e+02,1.148956e+03
6.084329e+02,1.136036e+03
6.113256e+02,1.132895e+03
6.142183e+02,1.136158e+03
6.171110e+02,1.135822e+03
6.200037e+02,1.123412e+03
6.228964e+02,1.131516e+03
6.257891e+02,1.131784e+03
6.286818e+02,1.132046e+03
6.315745e+02,1.132115e+03
6.344672e+02,1.114394e+03
6.373599e+02,1.118173e+03
6.402526e+02,1.121835e+03
6.431453e+02,1.112586e+03
6.460380e+02,1.122295e+03
6.489307e+02,1.120774e+03
6.518234e+02,1.106467e+03
6.547161e+02,1.102270e+03
6.576088e+02,1.105752e+03
6.605015e+02,1.096275e+03
6.633942e+02,1.101147e+03
6.662869e+02,1.089211e+03
6.691796e+02,1.095776e+03
6.720723e+02,1.094730e+03
6.749650e+02,1.088566e+03
6.778577e+02,1.092865e+03
6.807504e+02,1.088835e+03
6.836431e+02,1.091129e+03
6.865358e+02,1.085608e+03
6.894285e+02,1.082516e+03
6.923212e+02,1.080495e+03
6.952139e+02,1.073863e+03
6.981066e+02,1.079422e+03
7.009993e+02,1.081943e+03
7.038920e+02,1.072161e+03
7.067847e+02,1.072325e+03
7.096774e+02,1.066947e+03
7.125701e+02,1.061553e+03
7.154628e+02,1.064572e+03
7.183555e+02,1.068366e+03
7.212482e+02,1.058141e+03
7.241409e+02,1.060059e+03
7.270336e+02,1.045577e+03
7.299263e+02,1.046013e+03
7.328190e+02,1.041727e+03
7.357117e+02,1.044660e+03
7.386044e+02,1.044707e+03
7.414971e+02,1.039697e+03
7.443898e+02,1.035610e+03
7.472825e+02,1.034266e+03
7.501752e+02,1.029691e+03
7.530679e+02,1.031173e+03
7.559606e+02,1.027923e+03
7.588533e+02,1.029821e+03
7.617460e+02,1.020042e+03
7.646387e+02,1.021128e+03
7.675314e+02,1.023470e+03
7.704241e+02,1.017812e+03
7.733168e+02,1.022783e+03
7.762095e+02,1.024173e+03
7.791022e+02,1.012137e+03
7.819949e+02,1.028292e+03
7.848876e+02,1.014628e+03
7.877803e+02,1.011981e+03
7.906730e+02,1.022239e+03
7.935657e+02,1.013336e+03
7.964584e+02,1.002166e+03
7.993511e+02,9.987689e+02
8.022438e+02,9.993165e+02
8.051365e+02,9.958126e+02
8.080292e+02,1.005453e+03
8.109219e+02,1.000829e+03
8.138146e+02,9.869092e+02
8.167073e+02,9.884724e+02
8.196000e+02,9.910179e+02
8.224927e+02,9.861915e+02
8.253854e+02,9.853301e+02
8.282781e+02,9.697870e+02
8.311708e+02,9.791109e+02
8.340635e+02,9.811212e+02
8.369562e+02,9.819343e+02
8.398489e+02,9.727118e+02
8.427416e+02,9.697220e+02
8.456343e+02,9.732029e+02
8.485270e+02,9.707822e+02
8.514197e+02,9.628187e+02
8.543124e+02,9.610013e+02
8.572051e+02,9.658387e+02
8.600978e+02,9.635855e+02
8.629905e+02,9.600914e+02
8.658832e+02,9.616475e+02
8.687759e+02,9.630570e+02
8.716686e+02,9.703809e+02
8.745613e+02,9.541597e+02
8.774540e+02,9.552419e+02
8.803467e+02,9.559012e+02
8.832394e+02,9.528257e+02
8.861321e+02,9.528937e+02
8.890248e+02,9.594178e+02
8.919175e+02,9.437455e+02
8.948102e+02,9.484477e+02
8.977029e+02,9.509316e+02
9.005956e+02,9.428110e+02
9.034883e+02,9.404890e+02
9.063810e+02,9.374316e+02
9.092737e+02,9.274808e+02
9.121664e+02,9.280762e+02
9.150591e+02,9.164285e+02
9.179518e+02,9.218460e+02
9.208445e+02,9.215731e+02
9.237372e+02,9.160794e+02
9.266299e+02,9.196283e+02
9.295226e+02,9.085143e+02
9.324153e+02,9.038319e+02
9.353080e+02,9.121381e+02
9.382007e+02,9.076068e+02
9.410934e+02,9.003987e+02
9.439861e+02,9.021282e+02
9.468788e+02,9.003889e+02
9.497715e+02,8.920247e+02
9.526642e+02,8.932562e+02
9.555569e+02,8.944874e+02
9.584496e+02,8.973023e+02
9.613423e+02,8.976837e+02
9.642350e+02,8.979423e+02
9.671277e+02,8.876648e+02
9.700204e+02,8.870173e+02
9.729131e+02,8.827793e+02
9.758058e+02,8.918563e+02
9.786985e+02,8.765773e+02
9.815912e+02,8.869177e+02
9.844839e+02,8.775293e+02
9.873766e+02,8.734279e+02
9.902693e+02,8.803934e+02
9.931620e+02,8.813199e+02
9.960547e+02,8.745510e+02
9.989474e+02,8.705792e+02
1.001840e+03,8.719257e+02
1.004733e+03,8.726177e+02
1.007626e+03,8.675182e+02
1.010518e+03,8.665289e+02
1.013411e+03,8.609619e+02
1.016304e+03,8.579901e+02
1.019196e+03,8.617239e+02
1.022089e+03,8.656953e+02
1.024982e+03,8.553057e+02
1.027875e+03,8.578578e+02
1.030767e+03,8.531467e+02
1.033660e+03,8.599130e+02
1.036552e+03,8.565561e+02
1.039445e+03,8.514113e+02
1.042338e+03,8.452836e+02
1.045231e+03,8.511718e+02
1.048123e+03,8.446826e+02
1.051016e+03,8.504074e+02
1.053909e+03,8.496160e+02
1.056802e+03,8.434033e+02
1.059694e+03,8.423638e+02
1.062587e+03,8.440620e+02
1.065479e+03,8.280325e+02
1.068372e+03,8.386144e+02
1.071265e+03,8.324163e+02
1.074158e+03,8.428560e+02
1.077050e+03,8.397098e+02
1.079943e+03,8.361689e+02
1.082836e+03,8.303749e+02
1.085729e+03,8.372231e+02
1.088621e+03,8.405782e+02
1.091514e+03,8.474401e+02
1.094406e+03,8.401968e+02
1.097299e+03,8.474412e+02
1.100192e+03,8.333759e+02
1.103085e+03,8.312272e+02
1.105977e+03,8.243083e+02
1.108870e+03,8.268727e+02
1.111763e+03,8.297920e+02
1.114656e+03,8.318756e+02
1.117548e+03,8.329019e+02
1.120441e+03,8.316516e+02
1.123334e+03,8.291104e+02
1.126226e+03,8.112517e+02
1.129119e+03,8.224490e+02
1.132012e+03,8.219503e+02
1.134904e+03,8.008191e+02
1.137797e+03,7.987892e+02
1.140690e+03,8.088746e+02
1.143583e+03,7.988322e+02
1.146475e+03,8.040927e+02
1.149368e+03,8.044470e+02
1.152261e+03,8.063005e+02
1.155153e+03,7.915384e+02
1.158046e+03,7.878310e+02
1.160939e+03,7.923856e+02
1.163831e+03,7.885256e+02
1.166724e+03,7.861639e+02
1.169617e+03,7.852968e+02
1.172510e+03,7.888951e+02
1.175402e+03,7.901759e+02
1.178295e+03,7.893669e+02
1.181188e+03,7.897430e+02
1.184080e+03,7.794928e+02
1.186973e+03,7.835712e+02
1.189866e+03,7.833050e+02
1.192758e+03,7.713596e+02
1.195651e+03,7.800541e+02
1.198544e+03,7.738240e+02
1.201437e+03,7.739362e+02
1.204329e+03,7.616698e+02
1.207222e+03,7.704554e+02
1.210115e+03,7.731768e+02
1.213007e+03,7.783836e+02
1.215900e+03,7.749467e+02
1.218793e+03,7.716525e+02
1.221685e+03,7.644668e+02
1.224578e+03,7.632454e+02
1.227471e+03,7.691628e+02
1.230364e+03,7.681621e+02
1.233256e+03,7.668151e+02
1.236149e+03,7.653746e+02
1.239042e+03,7.647123e+02
1.241934e+03,7.628348e+02
1.244827e+03,7.666566e+02
1.247720e+03,7.603130e+02
1.250612e+03,7.534481e+02
1.253505e+03,7.660751e+02
1.256398e+03,7.606244e+02
1.259291e+03,7.545547e+02
1.262183e+03,7.497166e+02
1.265076e+03,7.474891e+02
1.267969e+03,7.477936e+02
1.270861e+03,7.468588e+02
1.273754e+03,7.498431e+02
1.276647e+03,7.429493e+02
1.279539e+03,7.434958e+02
1.282432e+03,7.453417e+02
1.285325e+03,7.408888e+02
1.288218e+03,7.444003e+02
1.291110e+03,7.508961e+02
1.294003e+03,7.447684e+02
1.296896e+03,7.368732e+02
1.299788e+03,7.359011e+02
1.302681e+03,7.403033e+02
1.305574e+03,7.389996e+02
1.308466e+03,7.421170e+02
1.311359e+03,7.376473e+02
1.314252e+03,7.429273e+02
1.317145e+03,7.334656e+02
1.320037e+03,7.422097e+02
1.322930e+03,7.434520e+02
1.325823e+03,7.539515e+02
1.328715e+03,7.514426e+02
1.331608e+03,7.388326e+02
1.334501e+03,7.423759e+02
1.337393e+03,7.355590e+02
1.340286e+03,7.382191e+02
1.343179e+03,7.342172e+02
1.346072e+03,7.320414e+02
1.348964e+03,7.291017e+02
1.351857e+03,7.327952e+02
1.354750e+03,7.321374e+02
1.357642e+03,7.340275e+02
1.360535e+03,7.276182e+02
1.363428e+03,7.275233e+02
1.366320e+03,7.307630e+02
1.369213e+03,7.229225e+02
1.372106e+03,7.316772e+02
1.374999e+03,7.285577e+02
1.377891e+03,7.221668e+02
1.380784e+03,7.254335e+02
1.383677e+03,7.216691e+02
1.386569e+03,7.175687e+02
1.389462e+03,7.165745e+02
1.392355e+03,7.153469e+02
1.395247e+03,7.118682e+02
1.398140e+03,7.194232e+02
1.401033e+03,7.114745e+02
1.403926e+03,7.142849e+02
1.406818e+03,7.085139e+02
1.409711e+03,7.091957e+02
1.412604e+03,7.048124e+02
1.415496e+03,7.000632e+02
1.418389e+03,6.988181e+02
1.421282e+03,6.978244e+02
1.424174e+03,7.007333e+02
1.427067e+03,7.039238e+02
1.429960e+03,6.921324e+02
1.432853e+03,6.825710e+02
1.435745e+03,6.917401e+02
1.438638e+03,6.925028e+02
1.441531e+03,6.912708e+02
1.444423e+03,6.838463e+02
1.447316e+03,6.915064e+02
1.450209e+03,6.903415e+02
1.453101e+03,6.845419e+02
1.455994e+03,6.934322e+02
1.458887e+03,6.821853e+02
1.461780e+03,6.769545e+02
1.464672e+03,6.842882e+02
1.467565e+03,6.748492e+02
1.470458e+03,6.819100e+02
1.473350e+03,6.760682e+02
1.476243e+03,6.750186e+02
1.479136e+03,6.726777e+02
1.482028e+03,6.732399e+02
1.484921e+03,6.666650e+02
1.487814e+03,6.685080e+02
1.490707e+03,6.730306e+02
1.493599e+03,6.642823e+02
1.496492e+03,6.663539e+02
1.499385e+03,6.657186e+02
1.502277e+03,6.650334e+02
1.505170e+03,6.626019e+02
1.508063e+03,6.642098e+02
1.510955e+03,6.614916e+02
1.513848e+03,6.524112e+02
1.516741e+03,6.508481e+02
1.519634e+03,6.518792e+02
1.522526e+03,6.513877e+02
1.525419e+03,6.568630e+02
1.528312e+03,6.447172e+02
1.531204e+03,6.463301e+02
1.534097e+03,6.492109e+02
1.536990e+03,6.521329e+02
1.539882e+03,6.526686e+02
1.542775e+03,6.461522e+02
1.545668e+03,6.478768e+02
1.548561e+03,6.468658e+02
1.551453e+03,6.458492e+02
1.554346e+03,6.370974e+02
1.557239e+03,6.405950e+02
1.560131e+03,6.465967e+02
1.563024e+03,6.418265e+02
1.565917e+03,6.395483e+02
1.568809e+03,6.424223e+02
1.571702e+03,6.415063e+02
1.574595e+03,6.383323e+02
1.577488e+03,6.326984e+02
1.580380e+03,6.309301e+02
1.583273e+03,6.296925e+02
1.586166e+03,6.350543e+02
1.589058e+03,6.258939e+02
1.591951e+03,6.303650e+02
1.594844e+03,6.267264e+02
1.597736e+03,6.265554e+02
1.600629e+03,6.291734e+02
1.603522e+03,6.276990e+02
1.606415e+03,6.201946e+02
1.609307e+03,6.224379e+02
1.612200e+03,6.219367e+02
1.615093e+03,6.236708e+02
1.617985e+03,6.235049e+02
1.620878e+03,6.156520e+02
1.623771e+03,6.127258e+02
1.626663e+03,6.199650e+02
1.629556e+03,6.173259e+02
1.632449e+03,6.154640e+02
1.635342e+03,6.097943e+02
1.638234e+03,6.118232e+02
1.641127e+03,5.983580e+02
1.644020e+03,6.133738e+02
1.646912e+03,6.045027e+02
1.649805e+03,5.977900e+02
1.652698e+03,6.006080e+02
1.655590e+03,6.017627e+02
1.658483e+03,5.998217e+02
1.661376e+03,6.011487e+02
1.664269e+03,5.939607e+02
1.667161e+03,5.988809e+02
1.670054e+03,5.883087e+02
1.672947e+03,5.936789e+02
1.675839e+03,5.979509e+02
1.678732e+03,5.911974e+02
1.681625e+03,5.917541e+02
1.684517e+03,5.889338e+02
1.687410e+03,5.811913e+02
1.690303e+03,5.857137e+02
1.693196e+03,5.798201e+02
1.696088e+03,5.831242e+02
1.698981e+03,5.846215e+02
1.701874e+03,5.777734e+02
1.704766e+03,5.671920e+02
1.707659e+03,5.820016e+02
1.710552e+03,5.824915e+02
1.713444e+03,5.792841e+02
1.716337e+03,5.695264e+02
1.719230e+03,5.660479e+02
1.722123e+03,5.770826e+02
1.725015e+03,5.653480e+02
1.727908e+03,5.704877e+02
1.730801e+03,5.695355e+02
1.733693e+03,5.590418e+02
1.736586e+03,5.637334e+02
1.739479e+03,5.619509e+02
1.742371e+03,5.636042e+02
1.745264e+03,5.665803e+02
1.748157e+03,5.613038e+02
1.751050e+03,5.594660e+02
1.753942e+03,5.528641e+02
1.756835e+03,5.598677e+02
1.759728e+03,5.626760e+02
1.762620e+03,5.508303e+02
1.765513e+03,5.453563e+02
1.768406e+03,5.468951e+02
1.771298e+03,5.420763e+02
1.774191e+03,5.412101e+02
1.777084e+03,5.476422e+02
1.779977e+03,5.461223e+02
1.782869e+03,5.464541e+02
1.785762e+03,5.413897e+02
1.788655e+03,5.413080e+02
1.791547e+03,5.305749e+02
1.794440e+03,5.393955e+02
1.797333e+03,5.404524e+02
1.800225e+03,5.367369e+02
1.803118e+03,5.395551e+02
1.806011e+03,5.250253e+02
1.808904e+03,5.318853e+02
1.811796e+03,5.354060e+02
1.814689e+03,5.255053e+02
1.817582e+03,5.267009e+02
1.820474e+03,5.301471e+02
1.823367e+03,5.223146e+02
1.826260e+03,5.174345e+02
1.829152e+03,5.261448e+02
1.832045e+03,5.222719e+02
1.834938e+03,5.159614e+02
1.837831e+03,5.210016e+02
1.840723e+03,5.156477e+02
1.843616e+03,5.144212e+02
1.846509e+03,5.098969e+02
1.849401e+03,5.121586e+02
1.852294e+03,4.996038e+02
1.855187e+03,4.992263e+02
1.858079e+03,5.094509e+02
1.860972e+03,4.945022e+02
1.863865e+03,5.059428e+02
1.866758e+03,4.949313e+02
1.869650e+03,4.990735e+02
1.872543e+03,4.998594e+02
1.875436e+03,4.990507e+02
1.878328e+03,5.066265e+02
1.881221e+03,4.933056e+02
1.884114e+03,4.865398e+02
1.887006e+03,4.895642e+02
1.889899e+03,4.949859e+02
1.892792e+03,4.882466e+02
1.895685e+03,4.867928e+02
1.898577e+03,4.865792e+02
1.901470e+03,4.827512e+02
1.904363e+03,4.766807e+02
1.907255e+03,4.776368e+02
1.910148e+03,4.782307e+02
1.913041e+03,4.888649e+02
1.915933e+03,4.787852e+02
1.918826e+03,4.717167e+02
1.921719e+03,4.663343e+02
1.924612e+03,4.785211e+02
1.927504e+03,4.734184e+02
1.930397e+03,4.800096e+02
1.933290e+03,4.656566e+02
1.936182e+03,4.670818e+02
1.939075e+03,4.762744e+02
1.941968e+03,4.596515e+02
1.944860e+03,4.666832e+02
1.947753e+03,4.658983e+02
1.950646e+03,4.561475e+02
1.953539e+03,4.639471e+02
1.956431e+03,4.677480e+02
1.959324e+03,4.476367e+02
1.962217e+03,4.557299e+02
1.965109e+03,4.468192e+02
1.968002e+03,4.595457e+02
1.970895e+03,4.580147e+02
1.973787e+03,4.441642e+02
1.976680e+03,4.398170e+02
1.979573e+03,4.478571e+02
1.982466e+03,4.469862e+02
1.985358e+03,4.470912e+02
1.988251e+03,4.377984e+02
1.991144e+03,4.395536e+02
1.994036e+03,4.369435e+02
1.996929e+03,4.386278e+02
1.999822e+03,4.431359e+02
2.002714e+03,4.388580e+02
2.005607e+03,4.282313e+02
2.008500e+03,4.378353e+02
2.011393e+03,4.358428e+02
2.014285e+03,4.349859e+02
2.017178e+03,4.297914e+02
2.020071e+03,4.252813e+02
2.022963e+03,4.258692e+02
2.025856e+03,4.215231e+02
2.028749e+03,4.300822e+02
2.031641e+03,4.287618e+02
2.034534e+03,4.214123e+02
2.037427e+03,4.192217e+02
2.040320e+03,4.075488e+02
2.043212e+03,4.156456e+02
2.046105e+03,4.145083e+02
2.048998e+03,4.160391e+02
2.051890e+03,4.190698e+02
2.054783e+03,4.104751e+02
2.057676e+03,4.095850e+02
2.060568e+03,4.099608e+02
2.063461e+03,4.160729e+02
2.066354e+03,3.997609e+02
2.069247e+03,4.063199e+02
2.072139e+03,4.002518e+02
2.075032e+03,4.061253e+02
2.077925e+03,3.943623e+02
2.080817e+03,4.057293e+02
2.083710e+03,3.992867e+02
2.086603e+03,3.942196e+02
2.089496e+03,3.957148e+02
2.092388e+03,3.910882e+02
2.095281e+03,3.873325e+02
2.098174e+03,4.019799e+02
2.101066e+03,3.882550e+02
2.103959e+03,3.909901e+02
2.106852e+03,3.827273e+02
2.109744e+03,3.937343e+02
2.112637e+03,3.829838e+02
2.115530e+03,3.821490e+02
2.118422e+03,3.740944e+02
2.121315e+03,3.865637e+02
2.124208e+03,3.784946e+02
2.127101e+03,3.801727e+02
2.129993e+03,3.765198e+02
2.132886e+03,3.808846e+02
2.135779e+03,3.761046e+02
2.138671e+03,3.729961e+02
2.141564e+03,3.718082e+02
2.144457e+03,3.686040e+02
2.147350e+03,3.639636e+02
2.150242e+03,3.691431e+02
2.153135e+03,3.690314e+02
2.156028e+03,3.679906e+02
2.158920e+03,3.586387e+02
2.161813e+03,3.678517e+02
2.164706e+03,3.645302e+02
2.167598e+03,3.617644e+02
2.170491e+03,3.594256e+02
2.173384e+03,3.587006e+02
2.176277e+03,3.556563e+02
2.179169e+03,3.601435e+02
2.182062e+03,3.554931e+02
2.184955e+03,3.518939e+02
2.187847e+03,3.503357e+02
2.190740e+03,3.479461e+02
2.193633e+03,3.464980e+02
2.196525e+03,3.484416e+02
2.199418e+03,3.579224e+02
2.202311e+03,3.498182e+02
2.205204e+03,3.518267e+02
2.208096e+03,3.384573e+02
2.210989e+03,3.398236e+02
2.213882e+03,3.382430e+02
2.216774e+03,3.438652e+02
2.219667e+03,3.364381e+02
2.222560e+03,3.393087e+02
2.225452e+03,3.328737e+02
2.228345e+03,3.504616e+02
2.231238e+03,3.352617e+02
2.234131e+03,3.368665e+02
2.237023e+03,3.328640e+02
2.239916e+03,3.341041e+02
2.242809e+03,3.318717e+02
2.245701e+03,3.313506e+02
2.248594e+03,3.240179e+02
2.251487e+03,3.257824e+02
2.254379e+03,3.234807e+02
2.257272e+03,3.215862e+02
2.260165e+03,3.237375e+02
2.263058e+03,3.205456e+02
2.265950e+03,3.239222e+02
2.268843e+03,3.186977e+02
2.271736e+03,3.221453e+02
2.274628e+03,3.171021e+02
2.277521e+03,3.058300e+02
2.280414e+03,3.176450e+02
2.283306e+03,3.113058e+02
2.286199e+03,3.137809e+02
2.289092e+03,3.172331e+02
2.291985e+03,3.178090e+02
2.294877e+03,3.175308e+02
2.297770e+03,3.052456e+02
2.300663e+03,3.119622e+02
2.303555e+03,3.044468e+02
2.306448e+03,2.987145e+02
2.309341e+03,3.069767e+02
2.312233e+03,3.030051e+02
2.315126e+03,3.075921e+02
2.318019e+03,2.978641e+02
2.320912e+03,3.062400e+02
2.323804e+03,3.063952e+02
2.326697e+03,2.992525e+02
2.329590e+03,3.108247e+02
2.332482e+03,2.936738e+02
2.335375e+03,2.992345e+02
2.338268e+03,2.936628e+02
2.341160e+03,2.937192e+02
2.344053e+03,2.962503e+02
2.346946e+03,2.954104e+02
2.349839e+03,2.873157e+02
2.352731e+03,2.840916e+02
2.355624e+03,2.902400e+02
2.358517e+03,2.855106e+02
2.361409e+03,2.806076e+02
2.364302e+03,2.832718e+02
2.367195e+03,2.901704e+02
2.370087e+03,2.920311e+02
2.372980e+03,2.869008e+02
2.375873e+03,2.894030e+02
2.378766e+03,2.814644e+02
2.381658e+03,2.791165e+02
2.384551e+03,2.815652e+02
2.387444e+03,2.811151e+02
2.390336e+03,2.788318e+02
2.393229e+03,2.743351e+02
2.396122e+03,2.783423e+02
2.399014e+03,2.755452e+02
2.401907e+03,2.745854e+02
2.404800e+03,2.718007e+02
2.407693e+03,2.793940e+02
2.410585e+03,2.693747e+02
2.413478e+03,2.735528e+02
2.416371e+03,2.736831e+02
2.419263e+03,2.783257e+02
2.422156e+03,2.661959e+02
2.425049e+03,2.680105e+02
2.427941e+03,2.664753e+02
2.430834e+03,2.673523e+02
2.433727e+03,2.617996e+02
2.436620e+03,2.640503e+02
2.439512e+03,2.677350e+02
2.442405e+03,2.672331e+02
2.445298e+03,2.626370e+02
2.448190e+03,2.605804e+02
2.451083e+03,2.650845e+02
2.453976e+03,2.642058e+02
2.456868e+03,2.581317e+02
2.459761e+03,2.557981e+02
2.462654e+03,2.540888e+02
2.465547e+03,2.570914e+02
2.468439e+03,2.543805e+02
2.471332e+03,2.565672e+02
2.474225e+03,2.594725e+02
2.477117e+03,2.566118e+02
2.480010e+03,2.529429e+02
2.482903e+03,2.606688e+02
2.485795e+03,2.529585e+02
2.488688e+03,2.463257e+02
2.491581e+03,2.491169e+02
2.494474e+03,2.481305e+02
2.497366e+03,2.478450e+02
2.500259e+03,2.500435e+02
2.503152e+03,2.480017e+02
2.506044e+03,2.505347e+02
2.508937e+03,2.465280e+02
2.511830e+03,2.450925e+02
2.514722e+03,2.462561e+02
2.517615e+03,2.456010e+02
2.520508e+03,2.370459e+02
2.523401e+03,2.434652e+02
2.526293e+03,2.453507e+02
2.529186e+03,2.365721e+02
2.532079e+03,2.377450e+02
2.534971e+03,2.340803e+02
2.537864e+03,2.417028e+02
2.540757e+03,2.349529e+02
2.543649e+03,2.413948e+02
2.546542e+03,2.538697e+02
2.549435e+03,2.400000e+02
2.552328e+03,2.466989e+02
2.555220e+03,2.436952e+02
2.558113e+03,2.436223e+02
2.561006e+03,2.471084e+02
2.563898e+03,2.400648e+02
2.566791e+03,2.375651e+02
2.569684e+03,2.459812e+02
2.572576e+03,2.301854e+02
2.575469e+03,2.449443e+02
2.578362e+03,2.379482e+02
2.581255e+03,2.331327e+02
2.584147e+03,2.277069e+02
2.587040e+03,2.195550e+02
2.589933e+03,2.417843e+02
2.592825e+03,2.232876e+02
2.595718e+03,2.272408e+02
2.598611e+03,2.302845e+02
2.601503e+03,2.259855e+02
2.604396e+03,2.371444e+02
2.607289e+03,2.273431e+02
2.610182e+03,2.237135e+02
2.613074e+03,2.183232e+02
2.615967e+03,2.242347e+02
2.618860e+03,2.280884e+02
2.621752e+03,2.273458e+02
2.624645e+03,2.314319e+02
2.627538e+03,2.233610e+02
2.630430e+03,2.289053e+02
2.633323e+03,2.097495e+02
2.636216e+03,2.182386e+02
2.639109e+03,2.159699e+02
2.642001e+03,2.184409e+02
2.644894e+03,2.213788e+02
2.647787e+03,2.147148e+02
2.650679e+03,2.237353e+02
2.653572e+03,2.188471e+02
2.656465e+03,2.271848e+02
2.659357e+03,2.119766e+02
2.662250e+03,2.177979e+02
2.665143e+03,2.180748e+02
2.668036e+03,2.185419e+02
2.670928e+03,2.136037e+02
2.673821e+03,2.163638e+02
2.676714e+03,2.078326e+02
2.679606e+03,2.124403e+02
2.682499e+03,2.142202e+02
2.685392e+03,2.138131e+02
2.688284e+03,2.173976e+02
2.691177e+03,2.040722e+02
2.694070e+03,2.109834e+02
2.696963e+03,2.133137e+02
2.699855e+03,2.038254e+02
2.702748e+03,2.077195e+02
2.705641e+03,2.102775e+02
2.708533e+03,2.044230e+02
2.711426e+03,2.101511e+02
2.714319e+03,2.091236e+02
2.717211e+03,2.067821e+02
2.720104e+03,2.104717e+02
2.722997e+03,2.105767e+02
2.725890e+03,2.199581e+02
2.728782e+03,2.074547e+02
2.731675e+03,2.042773e+02
2.734568e+03,2.134137e+02
2.737460e+03,2.063092e+02
2.740353e+03,2.021186e+02
2.743246e+03,2.092223e+02
2.746138e+03,2.081211e+02
2.749031e+03,2.100689e+02
2.751924e+03,2.111257e+02
2.754817e+03,2.057111e+02
2.757709e+03,1.996199e+02
2.760602e+03,2.082867e+02
2.763495e+03,2.033942e+02
2.766387e+03,1.947822e+02
2.769280e+03,2.072504e+02
2.772173e+03,2.045117e+02
2.775065e+03,2.013103e+02
2.777958e+03,1.950885e+02
2.780851e+03,2.100367e+02
2.783744e+03,2.002796e+02
2.786636e+03,1.948669e+02
2.789529e+03,2.043787e+02
2.792422e+03,2.110262e+02
2.795314e+03,1.889711e+02
2.798207e+03,2.074080e+02
2.801100e+03,1.961332e+02
2.803992e+03,2.130282e+02
2.806885e+03,2.010337e+02
2.809778e+03,2.012414e+02
2.812671e+03,2.025889e+02
2.815563e+03,2.003318e+02
2.818456e+03,1.949421e+02
2.821349e+03,2.018336e+02
2.824241e+03,1.944600e+02
2.827134e+03,1.985140e+02
2.830027e+03,1.986139e+02
2.832919e+03,2.051754e+02
2.835812e+03,1.973263e+02
2.838705e+03,1.935525e+02
2.841598e+03,1.966171e+02
2.844490e+03,2.030860e+02
2.847383e+03,1.896682e+02
2.850276e+03,1.939187e+02
2.853168e+03,2.044026e+02
2.856061e+03,2.000139e+02
2.858954e+03,1.934187e+02
2.861846e+03,2.122367e+02
2.864739e+03,2.036329e+02
2.867632e+03,2.067100e+02
2.870525e+03,2.041666e+02
2.873417e+03,2.022479e+02
2.876310e+03,2.095470e+02
2.879203e+03,2.146929e+02
2.882095e+03,2.059506e+02
2.884988e+03,2.227564e+02
2.887881e+03,2.121571e+02
2.890773e+03,2.072574e+02
2.893666e+03,2.042537e+02
2.896559e+03,2.156735e+02
2.899452e+03,2.040331e+02
2.902344e+03,2.127424e+02
2.905237e+03,2.067432e+02
2.908130e+03,1.983577e+02
2.911022e+03,1.972319e+02
2.913915e+03,2.081486e+02
2.916808e+03,2.036441e+02
2.919700e+03,2.070762e+02
2.922593e+03,2.022881e+02
2.925486e+03,1.938920e+02
2.928379e+03,1.849954e+02
2.931271e+03,1.987343e+02
2.934164e+03,1.886815e+02
2.937057e+03,1.953346e+02
2.939949e+03,1.992987e+02
2.942842e+03,2.043215e+02
2.945735e+03,2.021600e+02
2.948627e+03,1.869470e+02
2.951520e+03,2.005698e+02
2.954413e+03,1.962144e+02
2.957306e+03,2.407208e+02
2.960198e+03,1.999744e+02
2.963091e+03,1.933973e+02
2.965984e+03,1.818748e+02
2.968876e+03,1.850100e+02
2.971769e+03,1.875998e+02
2.974662e+03,1.752993e+02
2.977554e+03,1.916408e+02
2.980447e+03,1.801210e+02
2.983340e+03,1.837742e+02
2.986233e+03,1.811039e+02
2.989125e+03,1.699851e+02
2.992018e+03,1.872207e+02
2.994911e+03,1.792308e+02
2.997803e+03,1.999478e+02
3.000696e+03,1.509173e+02
3.003589e+03,1.661993e+02
3.006481e+03,1.824782e+02
3.009374e+03,1.652193e+02
3.012267e+03,1.784590e+02
3.015160e+03,1.738585e+02
3.018052e+03,1.864349e+02
3.020945e+03,1.596685e+02
3.023838e+03,1.759121e+02
3.026730e+03,1.593844e+02
3.029623e+03,1.749269e+02
3.032516e+03,1.704143e+02
3.035408e+03,1.724228e+02
3.038301e+03,1.873780e+02
3.041194e+03,1.743172e+02
3.044087e+03,1.557980e+02
3.046979e+03,1.830478e+02
3.049872e+03,1.625683e+02
3.052765e+03,1.677785e+02
3.055657e+03,1.631968e+02
3.058550e+03,1.861939e+02
3.061443e+03,1.784000e+02
3.064335e+03,1.592740e+02
3.067228e+03,1.887215e+02
3.070121e+03,1.746332e+02
3.073014e+03,1.567883e+02
3.075906e+03,1.669190e+02
3.078799e+03,1.863940e+02
3.081692e+03,1.616782e+02
3.084584e+03,1.812704e+02
3.087477e+03,1.805523e+02
3.090370e+03,1.745522e+02
3.093262e+03,1.759946e+02
3.096155e+03,1.682767e+02
3.099048e+03,1.812638e+02
3.101941e+03,1.944336e+02
3.104833e+03,1.611935e+02
3.107726e+03,1.670830e+02
3.110619e+03,1.599917e+02
3.113511e+03,1.764703e+02
3.116404e+03,2.009509e+02
3.119297e+03,1.877501e+02
3.122189e+03,1.808940e+02
3.125082e+03,1.758177e+02
3.127975e+03,1.706936e+02
3.130868e+03,1.741134e+02
3.133760e+03,1.839798e+02
3.136653e+03,1.821823e+02
3.139546e+03,1.977098e+02
3.142438e+03,1.921051e+02
3.145331e+03,1.712096e+02
3.148224e+03,1.755335e+02
3.151116e+03,1.807456e+02
3.154009e+03,1.645191e+02
3.156902e+03,1.482278e+02
3.159795e+03,1.822423e+02
3.162687e+03,2.104787e+02
3.165580e+03,1.804049e+02
3.168473e+03,1.780615e+02
3.171365e+03,1.560042e+02
3.174258e+03,2.108285e+02
3.177151e+03,2.016787e+02
3.180043e+03,1.704066e+02
3.182936e+03,1.974802e+02
3.185829e+03,1.489394e+02
3.188722e+03,1.641424e+02
3.191614e+03,1.831050e+02
3.194507e+03,1.719118e+02
3.197400e+03,1.822842e+02
3.200292e+03,2.228870e+02
3.203185e+03,0.000000e+00
3.206078e+03,0.000000e+00
3.208970e+03,0.000000e+00
3.211863e+03,0.000000e+00
3.214756e+03,0.000000e+00
3.217649e+03,0.000000e+00
3.220541e+03,0.000000e+00
3.223434e+03,0.000000e+00
3.226327e+03,0.000000e+00
3.229219e+03,0.000000e+00
3.232112e+03,0.000000e+00
3.235005e+03,0.000000e+00
3.237897e+03,0.000000e+00
3.240790e+03,0.000000e+00
3.243683e+03,0.000000e+00
3.246576e+03,0.000000e+00
3.249468e+03,0.000000e+00
3.252361e+03,0.000000e+00
3.255254e+03,0.000000e+00
3.258146e+03,0.000000e+00
3.261039e+03,0.000000e+00
3.263932e+03,0.000000e+00
3.266824e+03,0.000000e+00
3.269717e+03,0.000000e+00
3.272610e+03,0.000000e+00
3.275503e+03,0.000000e+00
3.278395e+03,0.000000e+00
3.281288e+03,0.000000e+00
3.284181e+03,0.000000e+00
3.287073e+03,0.000000e+00
3.289966e+03,0.000000e+00
3.292859e+03,0.000000e+00
3.295751e+03,0.000000e+00
3.298644e+03,0.000000e+00
3.301537e+03,0.000000e+00
3.304430e+03,0.000000e+00
3.307322e+03,0.000000e+00
3.310215e+03,0.000000e+00
3.313108e+03,0.000000e+00
3.316000e+03,0.000000e+00
3.318893e+03,0.000000e+00
3.321786e+03,0.000000e+00
3.324678e+03,0.000000e+00
3.327571e+03,0.000000e+00
3.330464e+03,0.000000e+00
3.333357e+03,0.000000e+00
3.336249e+03,0.000000e+00
3.339142e+03,0.000000e+00
3.342035e+03,0.000000e+00
3.344927e+03,0.000000e+00
3.347820e+03,0.000000e+00
3.350713e+03,0.000000e+00
3.353605e+03,0.000000e+00
3.356498e+03,0.000000e+00
3.359391e+03,0.000000e+00
3.362284e+03,0.000000e+00
3.365176e+03,0.000000e+00
3.368069e+03,0.000000e+00
3.370962e+03,0.000000e+00
3.373854e+03,0.000000e+00
3.376747e+03,0.000000e+00
3.379640e+03,0.000000e+00
3.382532e+03,0.000000e+00
3.385425e+03,0.000000e+00
3.388318e+03,0.000000e+00
3.391211e+03,0.000000e+00
3.394103e+03,0.000000e+00
3.396996e+03,0.000000e+00
3.399889e+03,0.000000e+00
3.402781e+03,0.000000e+00
3.405674e+03,0.000000e+00
3.408567e+03,0.000000e+00
3.411459e+03,0.000000e+00
3.414352e+03,0.000000e+00
3.417245e+03,0.000000e+00
3.420138e+03,0.000000e+00
3.423030e+03,0.000000e+00
3.425923e+03,0.000000e+00
3.428816e+03,0.000000e+00
3.431708e+03,0.000000e+00
3.434601e+03,0.000000e+00
3.437494e+03,0.000000e+00
3.440386e+03,0.000000e+00
3.443279e+03,0.000000e+00
3.446172e+03,0.000000e+00
3.449065e+03,0.000000e+00
3.451957e+03,0.000000e+00
3.454850e+03,0.000000e+00
3.457743e+03,0.000000e+00
3.460635e+03,0.000000e+00
3.463528e+03,0.000000e+00
3.466421e+03,0.000000e+00
3.469313e+03,0.000000e+00
3.472206e+03,0.000000e+00
3.475099e+03,0.000000e+00
3.477992e+03,0.000000e+00
3.480884e+03,0.000000e+00
3.483777e+03,0.000000e+00
3.486670e+03,0.000000e+00
3.489563e+03,0.000000e+00
3.492455e+03,0.000000e+00
3.495348e+03,0.000000e+00
3.498240e+03,0.000000e+00
3.500169e+03,0.000000e+00