File: RAMAN_data/13112023_r1/blue fibre1.CSV
9.931763e+01,0.000000e+00
1.022103e+02,0.000000e+00
1.051030e+02,0.000000e+00
1.079957e+02,0.000000e+00
1.108884e+02,0.000000e+00
1.137811e+02,0.000000e+00
1.166738e+02,0.000000e+00
1.195665e+02,0.000000e+00
1.224592e+02,0.000000e+00
1.253519e+02,0.000000e+00
1.282446e+02,0.000000e+00
1.311373e+02,0.000000e+00
1.340300e+02,0.000000e+00
1.369227e+02,0.000000e+00
1.398154e+02,0.000000e+00
1.427081e+02,0.000000e+00
1.456008e+02,0.000000e+00
1.484935e+02,0.000000e+00
1.513862e+02,0.000000e+00
1.542789e+02,0.000000e+00
1.571716e+02,0.000000e+00
1.600643e+02,0.000000e+00
1.629570e+02,0.000000e+00
1.658497e+02,0.000000e+00
1.687424e+02,0.000000e+00
1.716351e+02,0.000000e+00
1.745278e+02,0.000000e+00
1.774205e+02,0.000000e+00
1.803132e+02,0.000000e+00
1.832059e+02,0.000000e+00
1.860986e+02,0.000000e+00
1.889913e+02,0.000000e+00
1.918840e+02,0.000000e+00
1.947767e+02,0.000000e+00
1.976694e+02,0.000000e+00
2.005621e+02,1.047531e+04
2.034548e+02,1.051888e+04
2.063475e+02,1.053996e+04
2.092402e+02,1.054614e+04
2.121329e+02,1.053789e+04
2.150256e+02,1.056710e+04
2.179183e+02,1.059342e+04
2.208110e+02,1.062956e+04
2.237037e+02,1.064362e+04
2.265964e+02,1.064326e+04
2.294892e+02,1.066999e+04
2.323819e+02,1.070682e+04
2.352746e+02,1.073854e+04
2.381673e+02,1.076232e+04
2.410600e+02,1.075625e+04
2.439527e+02,1.074824e+04
2.468454e+02,1.078934e+04
2.497381e+02,1.081691e+04
2.526308e+02,1.083674e+04
2.555235e+02,1.085900e+04
2.584161e+02,1.085604e+04
2.613088e+02,1.089771e+04
2.642015e+02,1.093787e+04
2.670942e+02,1.094985e+04
2.699869e+02,1.097820e+04
2.728796e+02,1.098796e+04
2.757723e+02,1.100199e+04
2.786650e+02,1.105413e+04
2.815577e+02,1.105594e+04
2.844504e+02,1.108944e+04
2.873431e+02,1.108598e+04
2.902358e+02,1.109483e+04
2.931285e+02,1.110668e+04
2.960212e+02,1.111931e+04
2.989139e+02,1.113007e+04
3.018066e+02,1.114798e+04
3.046993e+02,1.115946e+04
3.075920e+02,1.115413e+04
3.104847e+02,1.118139e+04
3.133774e+02,1.121661e+04
3.162701e+02,1.122219e+04
3.191628e+02,1.118644e+04
3.220555e+02,1.121640e+04
3.249482e+02,1.123697e+04
3.278409e+02,1.125805e+04
3.307336e+02,1.127300e+04
3.336263e+02,1.127577e+04
3.365190e+02,1.125814e+04
3.394117e+02,1.128711e+04
3.423044e+02,1.129920e+04
3.451971e+02,1.135348e+04
3.480898e+02,1.133505e+04
3.509825e+02,1.133759e+04
3.538752e+02,1.135601e+04
3.567680e+02,1.138192e+04
3.596607e+02,1.140063e+04
3.625534e+02,1.138781e+04
3.654461e+02,1.138879e+04
3.683388e+02,1.140062e+04
3.712315e+02,1.143912e+04
3.741242e+02,1.142997e+04
3.770169e+02,1.144871e+04
3.799096e+02,1.146090e+04
3.828023e+02,1.144772e+04
3.856950e+02,1.146126e+04
3.885877e+02,1.147841e+04
3.914804e+02,1.152003e+04
3.943731e+02,1.149663e+04
3.972658e+02,1.146573e+04
4.001585e+02,1.148031e+04
4.030512e+02,1.149747e+04
4.059439e+02,1.149157e+04
4.088366e+02,1.149394e+04
4.117293e+02,1.144403e+04
4.146220e+02,1.143337e+04
4.175147e+02,1.144318e+04
4.204074e+02,1.144958e+04
4.233001e+02,1.147171e+04
4.261928e+02,1.142486e+04
4.290855e+02,1.142452e+04
4.319782e+02,1.143023e+04
4.348709e+02,1.143759e+04
4.377636e+02,1.143415e+04
4.406563e+02,1.141680e+04
4.435490e+02,1.140854e+04
4.464417e+02,1.138476e+04
4.493344e+02,1.139522e+04
4.522271e+02,1.138972e+04
4.551198e+02,1.139951e+04
4.580125e+02,1.140338e+04
4.609052e+02,1.138083e+04
4.637979e+02,1.137338e+04
4.666906e+02,1.135176e+04
4.695833e+02,1.137133e+04
4.724760e+02,1.136162e+04
4.753687e+02,1.133688e+04
4.782614e+02,1.134342e+04
4.811541e+02,1.132188e+04
4.840468e+02,1.132102e+04
4.869395e+02,1.133591e+04
4.898322e+02,1.130546e+04
4.927249e+02,1.127359e+04
4.956176e+02,1.130336e+04
4.985103e+02,1.131962e+04
5.014030e+02,1.129309e+04
5.042957e+02,1.127180e+04
5.071884e+02,1.127604e+04
5.100811e+02,1.126498e+04
5.129738e+02,1.122736e+04
5.158665e+02,1.128380e+04
5.187592e+02,1.124586e+04
5.216519e+02,1.123295e+04
5.245446e+02,1.123815e+04
5.274373e+02,1.123810e+04
5.303300e+02,1.120961e+04
5.332227e+02,1.118306e+04
5.361154e+02,1.116600e+04
5.390081e+02,1.119367e+04
5.419008e+02,1.116189e+04
5.447935e+02,1.117775e+04
5.476862e+02,1.117487e+04
5.505789e+02,1.115736e+04
5.534716e+02,1.115117e+04
5.563643e+02,1.111024e+04
5.592570e+02,1.112083e+04
5.621497e+02,1.114464e+04
5.650424e+02,1.109828e+04
5.679351e+02,1.111093e+04
5.708278e+02,1.109674e+04
5.737205e+02,1.110999e+04
5.766132e+02,1.110226e+04
5.795059e+02,1.108107e+04
5.823986e+02,1.108668e+04
5.852913e+02,1.105017e+04
5.881840e+02,1.104187e+04
5.910767e+02,1.102760e+04
5.939694e+02,1.102831e+04
5.968621e+02,1.101305e+04
5.997548e+02,1.101669e+04
6.026475e+02,1.101397e+04
6.055402e+02,1.106188e+04
6.084329e+02,1.098858e+04
6.113256e+02,1.096258e+04
6.142183e+02,1.094708e+04
6.171110e+02,1.093983e+04
6.200037e+02,1.093906e+04
6.228964e+02,1.093243e+04
6.257891e+02,1.096142e+04
6.286818e+02,1.092926e+04
6.315745e+02,1.093500e+04
6.344672e+02,1.092889e+04
6.373599e+02,1.089068e+04
6.402526e+02,1.086418e+04
6.431453e+02,1.084144e+04
6.460380e+02,1.078825e+04
6.489307e+02,1.084222e+04
6.518234e+02,1.085248e+04
6.547161e+02,1.083855e+04
6.576088e+02,1.078714e+04
6.605015e+02,1.078772e+04
6.633942e+02,1.078884e+04
6.662869e+02,1.076803e+04
6.691796e+02,1.078283e+04
6.720723e+02,1.077225e+04
6.749650e+02,1.076043e+04
6.778577e+02,1.073191e+04
6.807504e+02,1.069359e+04
6.836431e+02,1.071343e+04
6.865358e+02,1.071672e+04
6.894285e+02,1.067945e+04
6.923212e+02,1.067560e+04
6.952139e+02,1.066760e+04
6.981066e+02,1.070147e+04
7.009993e+02,1.063092e+04
7.038920e+02,1.064102e+04
7.067847e+02,1.061069e+04
7.096774e+02,1.061337e+04
7.125701e+02,1.062467e+04
7.154628e+02,1.059802e+04
7.183555e+02,1.061645e+04
7.212482e+02,1.059712e+04
7.241409e+02,1.055739e+04
7.270336e+02,1.054477e+04
7.299263e+02,1.054803e+04
7.328190e+02,1.056878e+04
7.357117e+02,1.052157e+04
7.386044e+02,1.050248e+04
7.414971e+02,1.050095e+04
7.443898e+02,1.047874e+04
7.472825e+02,1.053178e+04
7.501752e+02,1.047966e+04
7.530679e+02,1.049965e+04
7.559606e+02,1.045837e+04
7.588533e+02,1.043803e+04
7.617460e+02,1.043570e+04
7.646387e+02,1.038667e+04
7.675314e+02,1.040851e+04
7.704241e+02,1.038635e+04
7.733168e+02,1.038740e+04
7.762095e+02,1.040788e+04
7.791022e+02,1.036919e+04
7.819949e+02,1.038064e+04
7.848876e+02,1.034362e+04
7.877803e+02,1.031082e+04
7.906730e+02,1.032161e+04
7.935657e+02,1.032668e+04
7.964584e+02,1.031241e+04
7.993511e+02,1.030573e+04
8.022438e+02,1.025252e+04
8.051365e+02,1.027631e+04
8.080292e+02,1.029674e+04
8.109219e+02,1.021318e+04
8.138146e+02,1.024385e+04
8.167073e+02,1.020831e+04
8.196000e+02,1.022207e+04
8.224927e+02,1.022455e+04
8.253854e+02,1.022175e+04
8.282781e+02,1.018221e+04
8.311708e+02,1.015642e+04
8.340635e+02,1.016740e+04
8.369562e+02,1.015268e+04
8.398489e+02,1.016499e+04
8.427416e+02,1.014309e+04
8.456343e+02,1.011897e+04
8.485270e+02,1.011657e+04
8.514197e+02,1.013979e+04
8.543124e+02,1.011179e+04
8.572051e+02,1.007028e+04
8.600978e+02,1.004054e+04
8.629905e+02,1.006742e+04
8.658832e+02,1.007642e+04
8.687759e+02,1.005624e+04
8.716686e+02,1.004361e+04
8.745613e+02,9.981965e+03
8.774540e+02,9.989926e+03
8.803467e+02,9.998502e+03
8.832394e+02,9.999443e+03
8.861321e+02,9.996819e+03
8.890248e+02,9.977707e+03
8.919175e+02,9.948534e+03
8.948102e+02,9.918379e+03
8.977029e+02,9.925588e+03
9.005956e+02,9.918213e+03
9.034883e+02,9.925410e+03
9.063810e+02,9.888331e+03
9.092737e+02,9.873354e+03
9.121664e+02,9.862509e+03
9.150591e+02,9.874660e+03
9.179518e+02,9.891772e+03
9.208445e+02,9.819576e+03
9.237372e+02,9.790834e+03
9.266299e+02,9.796482e+03
9.295226e+02,9.808343e+03
9.324153e+02,9.812450e+03
9.353080e+02,9.800518e+03
9.382007e+02,9.758854e+03
9.410934e+02,9.757634e+03
9.439861e+02,9.758900e+03
9.468788e+02,9.732746e+03
9.497715e+02,9.758878e+03
9.526642e+02,9.710216e+03
9.555569e+02,9.692138e+03
9.584496e+02,9.652518e+03
9.613423e+02,9.713356e+03
9.642350e+02,9.677121e+03
9.671277e+02,9.662996e+03
9.700204e+02,9.628875e+03
9.729131e+02,9.620666e+03
9.758058e+02,9.605296e+03
9.786985e+02,9.616913e+03
9.815912e+02,9.599050e+03
9.844839e+02,9.583091e+03
9.873766e+02,9.562580e+03
9.902693e+02,9.557076e+03
9.931620e+02,9.570188e+03
9.960547e+02,9.567715e+03
9.989474e+02,9.512140e+03
1.001840e+03,9.524755e+03
1.004733e+03,9.520099e+03
1.007626e+03,9.553825e+03
1.010518e+03,9.507615e+03
1.013411e+03,9.499803e+03
1.016304e+03,9.432440e+03
1.019196e+03,9.451926e+03
1.022089e+03,9.455144e+03
1.024982e+03,9.480146e+03
1.027875e+03,9.400130e+03
1.030767e+03,9.421435e+03
1.033660e+03,9.450381e+03
1.036552e+03,9.447646e+03
1.039445e+03,9.394214e+03
1.042338e+03,9.407331e+03
1.045231e+03,9.412718e+03
1.048123e+03,9.386354e+03
1.051016e+03,9.347297e+03
1.053909e+03,9.368785e+03
1.056802e+03,9.373707e+03
1.059694e+03,9.358772e+03
1.062587e+03,9.333459e+03
1.065479e+03,9.340069e+03
1.068372e+03,9.327511e+03
1.071265e+03,9.333767e+03
1.074158e+03,9.327434e+03
1.077050e+03,9.285139e+03
1.079943e+03,9.289996e+03
1.082836e+03,9.317210e+03
1.085729e+03,9.320463e+03
1.088621e+03,9.311056e+03
1.091514e+03,9.316541e+03
1.094406e+03,9.248502e+03
1.097299e+03,9.250941e+03
1.100192e+03,9.270736e+03
1.103085e+03,9.233943e+03
1.105977e+03,9.215654e+03
1.108870e+03,9.198058e+03
1.111763e+03,9.205325e+03
1.114656e+03,9.209174e+03
1.117548e+03,9.231080e+03
1.120441e+03,9.226072e+03
1.123334e+03,9.176342e+03
1.126226e+03,9.145361e+03
1.129119e+03,9.154530e+03
1.132012e+03,9.182440e+03
1.134904e+03,9.182646e+03
1.137797e+03,9.138459e+03
1.140690e+03,9.131618e+03
1.143583e+03,9.126793e+03
1.146475e+03,9.120901e+03
1.149368e+03,9.126411e+03
1.152261e+03,9.138846e+03
1.155153e+03,9.070846e+03
1.158046e+03,9.081740e+03
1.160939e+03,9.075970e+03
1.163831e+03,9.103212e+03
1.166724e+03,9.075400e+03
1.169617e+03,9.034369e+03
1.172510e+03,9.029775e+03
1.175402e+03,9.025653e+03
1.178295e+03,9.043405e+03
1.181188e+03,8.985736e+03
1.184080e+03,9.003175e+03
1.186973e+03,8.962538e+03
1.189866e+03,8.995177e+03
1.192758e+03,9.013456e+03
1.195651e+03,9.001620e+03
1.198544e+03,8.998897e+03
1.201437e+03,8.960259e+03
1.204329e+03,8.922310e+03
1.207222e+03,8.961255e+03
1.210115e+03,8.955366e+03
1.213007e+03,8.951997e+03
1.215900e+03,8.953566e+03
1.218793e+03,8.942890e+03
1.221685e+03,8.921949e+03
1.224578e+03,8.931400e+03
1.227471e+03,8.948928e+03
1.230364e+03,8.899498e+03
1.233256e+03,8.873619e+03
1.236149e+03,8.873942e+03
1.239042e+03,8.877612e+03
1.241934e+03,8.878705e+03
1.244827e+03,8.902672e+03
1.247720e+03,8.829964e+03
1.250612e+03,8.842155e+03
1.253505e+03,8.844835e+03
1.256398e+03,8.853730e+03
1.259291e+03,8.833314e+03
1.262183e+03,8.818193e+03
1.265076e+03,8.794847e+03
1.267969e+03,8.790893e+03
1.270861e+03,8.823019e+03
1.273754e+03,8.798107e+03
1.276647e+03,8.804020e+03
1.279539e+03,8.769732e+03
1.282432e+03,8.747021e+03
1.285325e+03,8.782456e+03
1.288218e+03,8.810844e+03
1.291110e+03,8.788361e+03
1.294003e+03,8.745790e+03
1.296896e+03,8.725034e+03
1.299788e+03,8.751122e+03
1.302681e+03,8.700616e+03
1.305574e+03,8.721924e+03
1.308466e+03,8.706669e+03
1.311359e+03,8.709995e+03
1.314252e+03,8.663505e+03
1.317145e+03,8.684767e+03
1.320037e+03,8.692396e+03
1.322930e+03,8.679234e+03
1.325823e+03,8.658510e+03
1.328715e+03,8.670996e+03
1.331608e+03,8.654237e+03
1.334501e+03,8.649494e+03
1.337393e+03,8.674377e+03
1.340286e+03,8.626994e+03
1.343179e+03,8.607967e+03
1.346072e+03,8.597395e+03
1.348964e+03,8.586098e+03
1.351857e+03,8.584790e+03
1.354750e+03,8.557509e+03
1.357642e+03,8.552440e+03
1.360535e+03,8.519181e+03
1.363428e+03,8.520721e+03
1.366320e+03,8.524034e+03
1.369213e+03,8.533069e+03
1.372106e+03,8.504960e+03
1.374999e+03,8.479390e+03
1.377891e+03,8.491529e+03
1.380784e+03,8.487975e+03
1.383677e+03,8.459926e+03
1.386569e+03,8.434724e+03
1.389462e+03,8.380188e+03
1.392355e+03,8.372819e+03
1.395247e+03,8.394502e+03
1.398140e+03,8.385357e+03
1.401033e+03,8.397010e+03
1.403926e+03,8.358984e+03
1.406818e+03,8.330536e+03
1.409711e+03,8.325182e+03
1.412604e+03,8.317021e+03
1.415496e+03,8.315183e+03
1.418389e+03,8.314245e+03
1.421282e+03,8.292832e+03
1.424174e+03,8.287334e+03
1.427067e+03,8.278652e+03
1.429960e+03,8.261373e+03
1.432853e+03,8.237854e+03
1.435745e+03,8.204722e+03
1.438638e+03,8.192544e+03
1.441531e+03,8.202391e+03
1.444423e+03,8.205196e+03
1.447316e+03,8.167067e+03
1.450209e+03,8.159693e+03
1.453101e+03,8.134437e+03
1.455994e+03,8.153862e+03
1.458887e+03,8.147416e+03
1.461780e+03,8.150706e+03
1.464672e+03,8.118096e+03
1.467565e+03,8.097011e+03
1.470458e+03,8.104744e+03
1.473350e+03,8.090495e+03
1.476243e+03,8.081995e+03
1.479136e+03,8.052889e+03
1.482028e+03,8.056097e+03
1.484921e+03,8.034423e+03
1.487814e+03,8.063990e+03
1.490707e+03,8.031669e+03
1.493599e+03,8.022291e+03
1.496492e+03,7.993805e+03
1.499385e+03,8.009127e+03
1.502277e+03,8.004985e+03
1.505170e+03,7.991104e+03
1.508063e+03,7.999384e+03
1.510955e+03,7.965075e+03
1.513848e+03,7.935417e+03
1.516741e+03,7.949353e+03
1.519634e+03,7.941565e+03
1.522526e+03,7.918192e+03
1.525419e+03,7.924475e+03
1.528312e+03,7.872757e+03
1.531204e+03,7.894701e+03
1.534097e+03,7.894420e+03
1.536990e+03,7.848662e+03
1.539882e+03,7.850383e+03
1.542775e+03,7.845158e+03
1.545668e+03,7.851555e+03
1.548561e+03,7.844507e+03
1.551453e+03,7.873299e+03
1.554346e+03,7.832121e+03
1.557239e+03,7.845161e+03
1.560131e+03,7.820754e+03
1.563024e+03,7.819181e+03
1.565917e+03,7.811416e+03
1.568809e+03,7.829220e+03
1.571702e+03,7.814039e+03
1.574595e+03,7.790437e+03
1.577488e+03,7.789638e+03
1.580380e+03,7.779434e+03
1.583273e+03,7.805181e+03
1.586166e+03,7.803522e+03
1.589058e+03,7.756940e+03
1.591951e+03,7.743618e+03
1.594844e+03,7.752955e+03
1.597736e+03,7.739922e+03
1.600629e+03,7.696449e+03
1.603522e+03,7.691130e+03
1.606415e+03,7.643947e+03
1.609307e+03,7.696827e+03
1.612200e+03,7.622611e+03
1.615093e+03,7.634298e+03
1.617985e+03,7.610130e+03
1.620878e+03,7.553407e+03
1.623771e+03,7.542279e+03
1.626663e+03,7.547036e+03
1.629556e+03,7.496033e+03
1.632449e+03,7.528367e+03
1.635342e+03,7.493715e+03
1.638234e+03,7.430643e+03
1.641127e+03,7.432315e+03
1.644020e+03,7.437569e+03
1.646912e+03,7.433333e+03
1.649805e+03,7.388938e+03
1.652698e+03,7.396923e+03
1.655590e+03,7.360758e+03
1.658483e+03,7.374076e+03
1.661376e+03,7.352341e+03
1.664269e+03,7.331458e+03
1.667161e+03,7.327202e+03
1.670054e+03,7.286740e+03
1.672947e+03,7.263312e+03
1.675839e+03,7.287796e+03
1.678732e+03,7.275322e+03
1.681625e+03,7.241555e+03
1.684517e+03,7.201623e+03
1.687410e+03,7.194523e+03
1.690303e+03,7.198644e+03
1.693196e+03,7.202179e+03
1.696088e+03,7.182608e+03
1.698981e+03,7.160298e+03
1.701874e+03,7.173559e+03
1.704766e+03,7.176427e+03
1.707659e+03,7.165868e+03
1.710552e+03,7.145409e+03
1.713444e+03,7.116035e+03
1.716337e+03,7.076091e+03
1.719230e+03,7.078405e+03
1.722123e+03,7.082273e+03
1.725015e+03,7.055037e+03
1.727908e+03,7.057721e+03
1.730801e+03,7.061564e+03
1.733693e+03,7.023065e+03
1.736586e+03,7.005079e+03
1.739479e+03,7.018212e+03
1.742371e+03,7.006097e+03
1.745264e+03,6.985296e+03
1.748157e+03,6.953788e+03
1.751050e+03,6.943208e+03
1.753942e+03,6.962917e+03
1.756835e+03,6.943455e+03
1.759728e+03,6.893577e+03
1.762620e+03,6.886028e+03
1.765513e+03,6.902614e+03
1.768406e+03,6.881979e+03
1.771298e+03,6.895394e+03
1.774191e+03,6.833689e+03
1.777084e+03,6.853385e+03
1.779977e+03,6.839563e+03
1.782869e+03,6.857971e+03
1.785762e+03,6.823310e+03
1.788655e+03,6.828806e+03
1.791547e+03,6.782529e+03
1.794440e+03,6.771228e+03
1.797333e+03,6.770927e+03
1.800225e+03,6.778515e+03
1.803118e+03,6.718758e+03
1.806011e+03,6.705334e+03
1.808904e+03,6.718911e+03
1.811796e+03,6.687103e+03
1.814689e+03,6.715622e+03
1.817582e+03,6.683536e+03
1.820474e+03,6.657771e+03
1.823367e+03,6.652929e+03
1.826260e+03,6.655586e+03
1.829152e+03,6.645022e+03
1.832045e+03,6.627508e+03
1.834938e+03,6.602192e+03
1.837831e+03,6.587509e+03
1.840723e+03,6.567791e+03
1.843616e+03,6.583905e+03
1.846509e+03,6.571416e+03
1.849401e+03,6.533822e+03
1.852294e+03,6.500803e+03
1.855187e+03,6.502325e+03
1.858079e+03,6.508212e+03
1.860972e+03,6.481466e+03
1.863865e+03,6.492856e+03
1.866758e+03,6.476623e+03
1.869650e+03,6.457369e+03
1.872543e+03,6.433229e+03
1.875436e+03,6.463955e+03
1.878328e+03,6.447938e+03
1.881221e+03,6.411876e+03
1.884114e+03,6.360714e+03
1.887006e+03,6.374806e+03
1.889899e+03,6.345330e+03
1.892792e+03,6.367147e+03
1.895685e+03,6.323995e+03
1.898577e+03,6.350067e+03
1.901470e+03,6.309806e+03
1.904363e+03,6.307417e+03
1.907255e+03,6.294740e+03
1.910148e+03,6.276733e+03
1.913041e+03,6.249140e+03
1.915933e+03,6.234924e+03
1.918826e+03,6.241591e+03
1.921719e+03,6.237976e+03
1.924612e+03,6.205858e+03
1.927504e+03,6.232266e+03
1.930397e+03,6.183872e+03
1.933290e+03,6.185244e+03
1.936182e+03,6.155157e+03
1.939075e+03,6.145787e+03
1.941968e+03,6.121109e+03
1.944860e+03,6.102229e+03
1.947753e+03,6.078617e+03
1.950646e+03,6.045804e+03
1.953539e+03,6.062021e+03
1.956431e+03,6.071026e+03
1.959324e+03,6.100864e+03
1.962217e+03,6.067869e+03
1.965109e+03,6.018349e+03
1.968002e+03,6.046171e+03
1.970895e+03,6.016299e+03
1.973787e+03,5.950242e+03
1.976680e+03,5.973836e+03
1.979573e+03,5.972581e+03
1.982466e+03,5.960375e+03
1.985358e+03,5.942224e+03
1.988251e+03,5.952201e+03
1.991144e+03,5.898728e+03
1.994036e+03,5.891556e+03
1.996929e+03,5.902373e+03
1.999822e+03,5.879423e+03
2.002714e+03,5.864953e+03
2.005607e+03,5.855627e+03
2.008500e+03,5.815781e+03
2.011393e+03,5.817039e+03
2.014285e+03,5.817466e+03
2.017178e+03,5.806472e+03
2.020071e+03,5.785672e+03
2.022963e+03,5.762297e+03
2.025856e+03,5.757690e+03
2.028749e+03,5.760777e+03
2.031641e+03,5.745396e+03
2.034534e+03,5.743708e+03
2.037427e+03,5.706304e+03
2.040320e+03,5.651771e+03
2.043212e+03,5.667929e+03
2.046105e+03,5.661288e+03
2.048998e+03,5.640248e+03
2.051890e+03,5.621666e+03
2.054783e+03,5.604583e+03
2.057676e+03,5.576080e+03
2.060568e+03,5.599893e+03
2.063461e+03,5.585400e+03
2.066354e+03,5.612291e+03
2.069247e+03,5.535452e+03
2.072139e+03,5.512571e+03
2.075032e+03,5.525898e+03
2.077925e+03,5.526672e+03
2.080817e+03,5.509326e+03
2.083710e+03,5.461696e+03
2.086603e+03,5.457597e+03
2.089496e+03,5.477015e+03
2.092388e+03,5.439525e+03
2.095281e+03,5.457033e+03
2.098174e+03,5.439925e+03
2.101066e+03,5.403588e+03
2.103959e+03,5.384216e+03
2.106852e+03,5.388148e+03
2.109744e+03,5.394083e+03
2.112637e+03,5.368490e+03
2.115530e+03,5.310202e+03
2.118422e+03,5.350572e+03
2.121315e+03,5.365738e+03
2.124208e+03,5.355632e+03
2.127101e+03,5.271719e+03
2.129993e+03,5.270531e+03
2.132886e+03,5.289907e+03
2.135779e+03,5.277621e+03
2.138671e+03,5.242114e+03
2.141564e+03,5.268180e+03
2.144457e+03,5.221371e+03
2.147350e+03,5.189753e+03
2.150242e+03,5.192300e+03
2.153135e+03,5.188975e+03
2.156028e+03,5.163058e+03
2.158920e+03,5.177836e+03
2.161813e+03,5.167878e+03
2.164706e+03,5.124012e+03
2.167598e+03,5.115862e+03
2.170491e+03,5.115870e+03
2.173384e+03,5.083135e+03
2.176277e+03,5.029087e+03
2.179169e+03,5.057508e+03
2.182062e+03,5.056508e+03
2.184955e+03,5.042132e+03
2.187847e+03,5.018514e+03
2.190740e+03,5.014689e+03
2.193633e+03,4.974954e+03
2.196525e+03,4.982286e+03
2.199418e+03,4.967088e+03
2.202311e+03,4.954562e+03
2.205204e+03,4.937511e+03
2.208096e+03,4.947292e+03
2.210989e+03,4.866679e+03
2.213882e+03,4.899780e+03
2.216774e+03,4.934702e+03
2.219667e+03,4.897242e+03
2.222560e+03,4.880970e+03
2.225452e+03,4.856319e+03
2.228345e+03,4.846938e+03
2.231238e+03,4.883799e+03
2.234131e+03,4.844792e+03
2.237023e+03,4.806534e+03
2.239916e+03,4.787184e+03
2.242809e+03,4.782496e+03
2.245701e+03,4.784817e+03
2.248594e+03,4.753333e+03
2.251487e+03,4.765894e+03
2.254379e+03,4.771977e+03
2.257272e+03,4.705451e+03
2.260165e+03,4.721438e+03
2.263058e+03,4.725753e+03
2.265950e+03,4.689809e+03
2.268843e+03,4.687666e+03
2.271736e+03,4.661150e+03
2.274628e+03,4.657184e+03
2.277521e+03,4.628927e+03
2.280414e+03,4.648108e+03
2.283306e+03,4.617894e+03
2.286199e+03,4.588246e+03
2.289092e+03,4.568849e+03
2.291985e+03,4.561865e+03
2.294877e+03,4.599047e+03
2.297770e+03,4.586039e+03
2.300663e+03,4.563285e+03
2.303555e+03,4.511302e+03
2.306448e+03,4.489905e+03
2.309341e+03,4.503995e+03
2.312233e+03,4.482359e+03
2.315126e+03,4.495470e+03
2.318019e+03,4.484048e+03
2.320912e+03,4.444058e+03
2.323804e+03,4.438743e+03
2.326697e+03,4.453352e+03
2.329590e+03,4.437199e+03
2.332482e+03,4.405371e+03
2.335375e+03,4.391788e+03
2.338268e+03,4.386361e+03
2.341160e+03,4.370884e+03
2.344053e+03,4.383745e+03
2.346946e+03,4.375306e+03
2.349839e+03,4.354363e+03
2.352731e+03,4.337030e+03
2.355624e+03,4.351395e+03
2.358517e+03,4.335837e+03
2.361409e+03,4.299500e+03
2.364302e+03,4.268365e+03
2.367195e+03,4.285958e+03
2.370087e+03,4.263088e+03
2.372980e+03,4.280179e+03
2.375873e+03,4.243631e+03
2.378766e+03,4.241585e+03
2.381658e+03,4.190482e+03
2.384551e+03,4.211437e+03
2.387444e+03,4.187054e+03
2.390336e+03,4.202624e+03
2.393229e+03,4.197408e+03
2.396122e+03,4.169750e+03
2.399014e+03,4.150299e+03
2.401907e+03,4.136112e+03
2.404800e+03,4.146392e+03
2.407693e+03,4.177619e+03
2.410585e+03,4.118761e+03
2.413478e+03,4.090698e+03
2.416371e+03,4.086292e+03
2.419263e+03,4.097916e+03
2.422156e+03,4.091103e+03
2.425049e+03,4.064245e+03
2.427941e+03,4.031854e+03
2.430834e+03,4.054461e+03
2.433727e+03,4.042774e+03
2.436620e+03,4.021913e+03
2.439512e+03,4.033144e+03
2.442405e+03,4.016101e+03
2.445298e+03,3.994456e+03
2.448190e+03,3.989456e+03
2.451083e+03,3.988201e+03
2.453976e+03,3.971848e+03
2.456868e+03,3.952278e+03
2.459761e+03,3.955546e+03
2.462654e+03,3.944492e+03
2.465547e+03,3.911211e+03
2.468439e+03,3.915711e+03
2.471332e+03,3.922611e+03
2.474225e+03,3.915345e+03
2.477117e+03,3.904520e+03
2.480010e+03,3.894759e+03
2.482903e+03,3.887398e+03
2.485795e+03,3.871419e+03
2.488688e+03,3.872550e+03
2.491581e+03,3.857491e+03
2.494474e+03,3.840675e+03
2.497366e+03,3.847086e+03
2.500259e+03,3.823837e+03
2.503152e+03,3.804481e+03
2.506044e+03,3.810622e+03
2.508937e+03,3.759508e+03
2.511830e+03,3.771914e+03
2.514722e+03,3.777405e+03
2.517615e+03,3.775316e+03
2.520508e+03,3.771528e+03
2.523401e+03,3.752427e+03
2.526293e+03,3.774167e+03
2.529186e+03,3.716320e+03
2.532079e+03,3.734894e+03
2.534971e+03,3.707515e+03
2.537864e+03,3.686661e+03
2.540757e+03,3.705110e+03
2.543649e+03,3.690304e+03
2.546542e+03,3.691525e+03
2.549435e+03,3.640693e+03
2.552328e+03,3.661767e+03
2.555220e+03,3.660465e+03
2.558113e+03,3.639924e+03
2.561006e+03,3.666029e+03
2.563898e+03,3.639719e+03
2.566791e+03,3.636367e+03
2.569684e+03,3.635927e+03
2.572576e+03,3.614155e+03
2.575469e+03,3.619230e+03
2.578362e+03,3.570813e+03
2.581255e+03,3.598611e+03
2.584147e+03,3.575571e+03
2.587040e+03,3.580444e+03
2.589933e+03,3.576630e+03
2.592825e+03,3.565927e+03
2.595718e+03,3.553998e+03
2.598611e+03,3.517962e+03
2.601503e+03,3.514255e+03
2.604396e+03,3.511940e+03
2.607289e+03,3.538119e+03
2.610182e+03,3.512149e+03
2.613074e+03,3.481303e+03
2.615967e+03,3.466738e+03
2.618860e+03,3.482369e+03
2.621752e+03,3.475937e+03
2.624645e+03,3.482461e+03
2.627538e+03,3.481332e+03
2.630430e+03,3.443394e+03
2.633323e+03,3.452420e+03
2.636216e+03,3.460899e+03
2.639109e+03,3.438540e+03
2.642001e+03,3.402758e+03
2.644894e+03,3.428742e+03
2.647787e+03,3.410361e+03
2.650679e+03,3.397271e+03
2.653572e+03,3.388198e+03
2.656465e+03,3.403943e+03
2.659357e+03,3.405862e+03
2.662250e+03,3.383451e+03
2.665143e+03,3.380622e+03
2.668036e+03,3.347263e+03
2.670928e+03,3.362954e+03
2.673821e+03,3.362238e+03
2.676714e+03,3.314070e+03
2.679606e+03,3.316482e+03
2.682499e+03,3.332963e+03
2.685392e+03,3.339227e+03
2.688284e+03,3.330075e+03
2.691177e+03,3.325306e+03
2.694070e+03,3.308147e+03
2.696963e+03,3.314757e+03
2.699855e+03,3.265772e+03
2.702748e+03,3.248656e+03
2.705641e+03,3.288208e+03
2.708533e+03,3.241918e+03
2.711426e+03,3.257604e+03
2.714319e+03,3.245839e+03
2.717211e+03,3.285073e+03
2.720104e+03,3.285293e+03
2.722997e+03,3.245813e+03
2.725890e+03,3.214740e+03
2.728782e+03,3.227718e+03
2.731675e+03,3.209177e+03
2.734568e+03,3.228320e+03
2.737460e+03,3.214674e+03
2.740353e+03,3.202583e+03
2.743246e+03,3.212323e+03
2.746138e+03,3.186724e+03
2.749031e+03,3.161386e+03
2.751924e+03,3.149580e+03
2.754817e+03,3.173145e+03
2.757709e+03,3.174142e+03
2.760602e+03,3.147992e+03
2.763495e+03,3.160903e+03
2.766387e+03,3.141331e+03
2.769280e+03,3.120395e+03
2.772173e+03,3.129263e+03
2.775065e+03,3.100531e+03
2.777958e+03,3.120982e+03
2.780851e+03,3.110236e+03
2.783744e+03,3.105286e+03
2.786636e+03,3.121061e+03
2.789529e+03,3.109649e+03
2.792422e+03,3.108957e+03
2.795314e+03,3.087504e+03
2.798207e+03,3.074371e+03
2.801100e+03,3.043696e+03
2.803992e+03,3.057261e+03
2.806885e+03,3.060701e+03
2.809778e+03,3.063716e+03
2.812671e+03,3.079789e+03
2.815563e+03,3.031068e+03
2.818456e+03,3.031431e+03
2.821349e+03,3.027022e+03
2.824241e+03,3.018821e+03
2.827134e+03,3.028422e+03
2.830027e+03,3.006054e+03
2.832919e+03,3.006266e+03
2.835812e+03,3.001046e+03
2.838705e+03,2.942254e+03
2.841598e+03,3.013112e+03
2.844490e+03,3.019513e+03
2.847383e+03,2.979039e+03
2.850276e+03,3.006138e+03
2.853168e+03,2.990378e+03
2.856061e+03,3.023767e+03
2.858954e+03,2.969324e+03
2.861846e+03,2.951920e+03
2.864739e+03,2.946673e+03
2.867632e+03,2.971708e+03
2.870525e+03,2.923524e+03
2.873417e+03,2.988943e+03
2.876310e+03,2.935016e+03
2.879203e+03,2.970940e+03
2.882095e+03,2.941153e+03
2.884988e+03,2.975144e+03
2.887881e+03,2.967434e+03
2.890773e+03,2.969223e+03
2.893666e+03,2.966853e+03
2.896559e+03,2.899067e+03
2.899452e+03,2.921935e+03
2.902344e+03,2.925059e+03
2.905237e+03,2.886790e+03
2.908130e+03,2.863433e+03
2.911022e+03,2.915185e+03
2.913915e+03,2.834528e+03
2.916808e+03,2.896817e+03
2.919700e+03,2.866897e+03
2.922593e+03,2.847052e+03
2.925486e+03,2.871614e+03
2.928379e+03,2.884576e+03
2.931271e+03,2.863175e+03
2.934164e+03,2.876426e+03
2.937057e+03,2.848599e+03
2.939949e+03,2.835217e+03
2.942842e+03,2.829060e+03
2.945735e+03,2.808477e+03
2.948627e+03,2.821782e+03
2.951520e+03,2.817676e+03
2.954413e+03,2.801234e+03
2.957306e+03,2.849757e+03
2.960198e+03,2.808175e+03
2.963091e+03,2.796824e+03
2.965984e+03,2.772032e+03
2.968876e+03,2.748999e+03
2.971769e+03,2.726059e+03
2.974662e+03,2.768533e+03
2.977554e+03,2.752405e+03
2.980447e+03,2.762543e+03
2.983340e+03,2.730781e+03
2.986233e+03,2.742539e+03
2.989125e+03,2.737115e+03
2.992018e+03,2.699376e+03
2.994911e+03,2.743077e+03
2.997803e+03,2.722283e+03
3.000696e+03,2.680652e+03
3.003589e+03,2.692934e+03
3.006481e+03,2.696844e+03
3.009374e+03,2.696976e+03
3.012267e+03,2.737293e+03
3.015160e+03,2.633552e+03
3.018052e+03,2.658828e+03
3.020945e+03,2.638334e+03
3.023838e+03,2.671878e+03
3.026730e+03,2.676871e+03
3.029623e+03,2.682037e+03
3.032516e+03,2.650373e+03
3.035408e+03,2.624532e+03
3.038301e+03,2.599425e+03
3.041194e+03,2.641737e+03
3.044087e+03,2.627587e+03
3.046979e+03,2.689281e+03
3.049872e+03,2.657042e+03
3.052765e+03,2.628744e+03
3.055657e+03,2.620052e+03
3.058550e+03,2.609461e+03
3.061443e+03,2.623911e+03
3.064335e+03,2.636508e+03
3.067228e+03,2.634274e+03
3.070121e+03,2.621440e+03
3.073014e+03,2.618597e+03
3.075906e+03,2.627210e+03
3.078799e+03,2.618028e+03
3.081692e+03,2.620500e+03
3.084584e+03,2.560526e+03
3.087477e+03,2.663298e+03
3.090370e+03,2.632042e+03
3.093262e+03,2.646465e+03
3.096155e+03,2.612878e+03
3.099048e+03,2.595651e+03
3.101941e+03,2.596243e+03
3.104833e+03,2.578500e+03
3.107726e+03,2.529588e+03
3.110619e+03,2.548958e+03
3.113511e+03,2.570149e+03
3.116404e+03,2.584025e+03
3.119297e+03,2.558956e+03
3.122189e+03,2.634551e+03
3.125082e+03,2.544159e+03
3.127975e+03,2.607849e+03
3.130868e+03,2.540694e+03
3.133760e+03,2.579032e+03
3.136653e+03,2.595706e+03
3.139546e+03,2.540110e+03
3.142438e+03,2.614518e+03
3.145331e+03,2.580942e+03
3.148224e+03,2.571732e+03
3.151116e+03,2.568739e+03
3.154009e+03,2.546387e+03
3.156902e+03,2.525728e+03
3.159795e+03,2.605258e+03
3.162687e+03,2.510710e+03
3.165580e+03,2.550653e+03
3.168473e+03,2.603680e+03
3.171365e+03,2.537875e+03
3.174258e+03,2.520940e+03
3.177151e+03,2.480760e+03
3.180043e+03,2.564796e+03
3.182936e+03,2.600153e+03
3.185829e+03,2.523346e+03
3.188722e+03,2.523262e+03
3.191614e+03,2.584115e+03
3.194507e+03,2.464110e+03
3.197400e+03,2.542690e+03
3.200292e+03,2.581304e+03
3.203185e+03,0.000000e+00
3.206078e+03,0.000000e+00
3.208970e+03,0.000000e+00
3.211863e+03,0.000000e+00
3.214756e+03,0.000000e+00
3.217649e+03,0.000000e+00
3.220541e+03,0.000000e+00
3.223434e+03,0.000000e+00
3.226327e+03,0.000000e+00
3.229219e+03,0.000000e+00
3.232112e+03,0.000000e+00
3.235005e+03,0.000000e+00
3.237897e+03,0.000000e+00
3.240790e+03,0.000000e+00
3.243683e+03,0.000000e+00
3.246576e+03,0.000000e+00
3.249468e+03,0.000000e+00
3.252361e+03,0.000000e+00
3.255254e+03,0.000000e+00
3.258146e+03,0.000000e+00
3.261039e+03,0.000000e+00
3.263932e+03,0.000000e+00
3.266824e+03,0.000000e+00
3.269717e+03,0.000000e+00
3.272610e+03,0.000000e+00
3.275503e+03,0.000000e+00
3.278395e+03,0.000000e+00
3.281288e+03,0.000000e+00
3.284181e+03,0.000000e+00
3.287073e+03,0.000000e+00
3.289966e+03,0.000000e+00
3.292859e+03,0.000000e+00
3.295751e+03,0.000000e+00
3.298644e+03,0.000000e+00
3.301537e+03,0.000000e+00
3.304430e+03,0.000000e+00
3.307322e+03,0.000000e+00
3.310215e+03,0.000000e+00
3.313108e+03,0.000000e+00
3.316000e+03,0.000000e+00
3.318893e+03,0.000000e+00
3.321786e+03,0.000000e+00
3.324678e+03,0.000000e+00
3.327571e+03,0.000000e+00
3.330464e+03,0.000000e+00
3.333357e+03,0.000000e+00
3.336249e+03,0.000000e+00
3.339142e+03,0.000000e+00
3.342035e+03,0.000000e+00
3.344927e+03,0.000000e+00
3.347820e+03,0.000000e+00
3.350713e+03,0.000000e+00
3.353605e+03,0.000000e+00
3.356498e+03,0.000000e+00
3.359391e+03,0.000000e+00
3.362284e+03,0.000000e+00
3.365176e+03,0.000000e+00
3.368069e+03,0.000000e+00
3.370962e+03,0.000000e+00
3.373854e+03,0.000000e+00
3.376747e+03,0.000000e+00
3.379640e+03,0.000000e+00
3.382532e+03,0.000000e+00
3.385425e+03,0.000000e+00
3.388318e+03,0.000000e+00
3.391211e+03,0.000000e+00
3.394103e+03,0.000000e+00
3.396996e+03,0.000000e+00
3.399889e+03,0.000000e+00
3.402781e+03,0.000000e+00
3.405674e+03,0.000000e+00
3.408567e+03,0.000000e+00
3.411459e+03,0.000000e+00
3.414352e+03,0.000000e+00
3.417245e+03,0.000000e+00
3.420138e+03,0.000000e+00
3.423030e+03,0.000000e+00
3.425923e+03,0.000000e+00
3.428816e+03,0.000000e+00
3.431708e+03,0.000000e+00
3.434601e+03,0.000000e+00
3.437494e+03,0.000000e+00
3.440386e+03,0.000000e+00
3.443279e+03,0.000000e+00
3.446172e+03,0.000000e+00
3.449065e+03,0.000000e+00
3.451957e+03,0.000000e+00
3.454850e+03,0.000000e+00
3.457743e+03,0.000000e+00
3.460635e+03,0.000000e+00
3.463528e+03,0.000000e+00
3.466421e+03,0.000000e+00
3.469313e+03,0.000000e+00
3.472206e+03,0.000000e+00
3.475099e+03,0.000000e+00
3.477992e+03,0.000000e+00
3.480884e+03,0.000000e+00
3.483777e+03,0.000000e+00
3.486670e+03,0.000000e+00
3.489563e+03,0.000000e+00
3.492455e+03,0.000000e+00
3.495348e+03,0.000000e+00
3.498240e+03,0.000000e+00
3.500169e+03,0.000000e+00