File: RAMAN_data/13112023_r1/blue fibre4.CSV
9.931763e+01,0.000000e+00
1.022103e+02,0.000000e+00
1.051030e+02,0.000000e+00
1.079957e+02,0.000000e+00
1.108884e+02,0.000000e+00
1.137811e+02,0.000000e+00
1.166738e+02,0.000000e+00
1.195665e+02,0.000000e+00
1.224592e+02,0.000000e+00
1.253519e+02,0.000000e+00
1.282446e+02,0.000000e+00
1.311373e+02,0.000000e+00
1.340300e+02,0.000000e+00
1.369227e+02,0.000000e+00
1.398154e+02,0.000000e+00
1.427081e+02,0.000000e+00
1.456008e+02,0.000000e+00
1.484935e+02,0.000000e+00
1.513862e+02,0.000000e+00
1.542789e+02,0.000000e+00
1.571716e+02,0.000000e+00
1.600643e+02,0.000000e+00
1.629570e+02,0.000000e+00
1.658497e+02,0.000000e+00
1.687424e+02,0.000000e+00
1.716351e+02,0.000000e+00
1.745278e+02,0.000000e+00
1.774205e+02,0.000000e+00
1.803132e+02,0.000000e+00
1.832059e+02,0.000000e+00
1.860986e+02,0.000000e+00
1.889913e+02,0.000000e+00
1.918840e+02,0.000000e+00
1.947767e+02,0.000000e+00
1.976694e+02,0.000000e+00
2.005621e+02,4.931024e+03
2.034548e+02,4.933383e+03
2.063475e+02,4.961586e+03
2.092402e+02,4.947344e+03
2.121329e+02,4.946327e+03
2.150256e+02,4.957106e+03
2.179183e+02,4.955287e+03
2.208110e+02,4.987525e+03
2.237037e+02,4.984820e+03
2.265964e+02,4.971142e+03
2.294892e+02,4.980023e+03
2.323819e+02,5.001167e+03
2.352746e+02,5.019875e+03
2.381673e+02,5.016872e+03
2.410600e+02,5.021311e+03
2.439527e+02,5.034870e+03
2.468454e+02,5.042796e+03
2.497381e+02,5.035874e+03
2.526308e+02,5.072343e+03
2.555235e+02,5.067299e+03
2.584161e+02,5.039427e+03
2.613088e+02,5.041242e+03
2.642015e+02,5.070167e+03
2.670942e+02,5.076892e+03
2.699869e+02,5.078748e+03
2.728796e+02,5.085931e+03
2.757723e+02,5.079173e+03
2.786650e+02,5.102697e+03
2.815577e+02,5.106695e+03
2.844504e+02,5.097512e+03
2.873431e+02,5.096153e+03
2.902358e+02,5.089336e+03
2.931285e+02,5.079636e+03
2.960212e+02,5.093764e+03
2.989139e+02,5.103099e+03
3.018066e+02,5.106188e+03
3.046993e+02,5.112369e+03
3.075920e+02,5.124826e+03
3.104847e+02,5.129823e+03
3.133774e+02,5.111881e+03
3.162701e+02,5.125063e+03
3.191628e+02,5.132072e+03
3.220555e+02,5.142182e+03
3.249482e+02,5.139836e+03
3.278409e+02,5.156236e+03
3.307336e+02,5.157320e+03
3.336263e+02,5.141810e+03
3.365190e+02,5.140254e+03
3.394117e+02,5.126070e+03
3.423044e+02,5.145195e+03
3.451971e+02,5.156767e+03
3.480898e+02,5.122961e+03
3.509825e+02,5.121742e+03
3.538752e+02,5.144838e+03
3.567680e+02,5.146217e+03
3.596607e+02,5.161528e+03
3.625534e+02,5.172164e+03
3.654461e+02,5.160124e+03
3.683388e+02,5.151267e+03
3.712315e+02,5.174328e+03
3.741242e+02,5.178843e+03
3.770169e+02,5.186973e+03
3.799096e+02,5.183571e+03
3.828023e+02,5.159134e+03
3.856950e+02,5.156218e+03
3.885877e+02,5.144369e+03
3.914804e+02,5.159186e+03
3.943731e+02,5.143297e+03
3.972658e+02,5.145752e+03
4.001585e+02,5.126442e+03
4.030512e+02,5.163326e+03
4.059439e+02,5.154079e+03
4.088366e+02,5.133941e+03
4.117293e+02,5.154263e+03
4.146220e+02,5.147051e+03
4.175147e+02,5.106771e+03
4.204074e+02,5.148818e+03
4.233001e+02,5.141989e+03
4.261928e+02,5.132185e+03
4.290855e+02,5.133554e+03
4.319782e+02,5.137979e+03
4.348709e+02,5.133397e+03
4.377636e+02,5.135872e+03
4.406563e+02,5.145586e+03
4.435490e+02,5.140152e+03
4.464417e+02,5.155370e+03
4.493344e+02,5.123261e+03
4.522271e+02,5.112981e+03
4.551198e+02,5.123535e+03
4.580125e+02,5.138558e+03
4.609052e+02,5.114549e+03
4.637979e+02,5.116346e+03
4.666906e+02,5.100706e+03
4.695833e+02,5.086250e+03
4.724760e+02,5.137987e+03
4.753687e+02,5.106205e+03
4.782614e+02,5.096102e+03
4.811541e+02,5.108417e+03
4.840468e+02,5.110938e+03
4.869395e+02,5.103670e+03
4.898322e+02,5.099399e+03
4.927249e+02,5.112581e+03
4.956176e+02,5.117759e+03
4.985103e+02,5.081546e+03
5.014030e+02,5.086065e+03
5.042957e+02,5.082833e+03
5.071884e+02,5.070573e+03
5.100811e+02,5.065216e+03
5.129738e+02,5.073034e+03
5.158665e+02,5.074117e+03
5.187592e+02,5.087092e+03
5.216519e+02,5.064750e+03
5.245446e+02,5.058328e+03
5.274373e+02,5.053816e+03
5.303300e+02,5.039141e+03
5.332227e+02,5.049205e+03
5.361154e+02,5.026952e+03
5.390081e+02,5.027227e+03
5.419008e+02,5.065173e+03
5.447935e+02,5.041884e+03
5.476862e+02,5.047668e+03
5.505789e+02,5.038039e+03
5.534716e+02,5.012002e+03
5.563643e+02,4.992771e+03
5.592570e+02,5.012457e+03
5.621497e+02,5.024281e+03
5.650424e+02,5.002723e+03
5.679351e+02,4.996957e+03
5.708278e+02,4.968721e+03
5.737205e+02,4.989690e+03
5.766132e+02,4.995461e+03
5.795059e+02,4.999381e+03
5.823986e+02,4.987779e+03
5.852913e+02,4.971373e+03
5.881840e+02,4.968660e+03
5.910767e+02,4.970161e+03
5.939694e+02,4.958842e+03
5.968621e+02,4.945117e+03
5.997548e+02,4.973881e+03
6.026475e+02,4.962012e+03
6.055402e+02,4.971482e+03
6.084329e+02,4.957813e+03
6.113256e+02,4.938803e+03
6.142183e+02,4.925908e+03
6.171110e+02,4.914762e+03
6.200037e+02,4.919459e+03
6.228964e+02,4.888566e+03
6.257891e+02,4.920756e+03
6.286818e+02,4.921419e+03
6.315745e+02,4.897807e+03
6.344672e+02,4.903472e+03
6.373599e+02,4.894864e+03
6.402526e+02,4.891476e+03
6.431453e+02,4.890563e+03
6.460380e+02,4.859657e+03
6.489307e+02,4.875265e+03
6.518234e+02,4.864149e+03
6.547161e+02,4.874653e+03
6.576088e+02,4.851936e+03
6.605015e+02,4.859647e+03
6.633942e+02,4.835765e+03
6.662869e+02,4.843254e+03
6.691796e+02,4.845969e+03
6.720723e+02,4.840642e+03
6.749650e+02,4.819209e+03
6.778577e+02,4.807422e+03
6.807504e+02,4.813389e+03
6.836431e+02,4.819189e+03
6.865358e+02,4.820725e+03
6.894285e+02,4.801404e+03
6.923212e+02,4.789800e+03
6.952139e+02,4.788408e+03
6.981066e+02,4.797016e+03
7.009993e+02,4.787589e+03
7.038920e+02,4.767484e+03
7.067847e+02,4.780702e+03
7.096774e+02,4.782960e+03
7.125701e+02,4.736466e+03
7.154628e+02,4.740274e+03
7.183555e+02,4.768574e+03
7.212482e+02,4.754155e+03
7.241409e+02,4.745062e+03
7.270336e+02,4.745041e+03
7.299263e+02,4.739561e+03
7.328190e+02,4.719714e+03
7.357117e+02,4.718475e+03
7.386044e+02,4.727019e+03
7.414971e+02,4.714197e+03
7.443898e+02,4.704696e+03
7.472825e+02,4.694947e+03
7.501752e+02,4.692602e+03
7.530679e+02,4.689577e+03
7.559606e+02,4.668798e+03
7.588533e+02,4.661700e+03
7.617460e+02,4.685692e+03
7.646387e+02,4.661727e+03
7.675314e+02,4.675026e+03
7.704241e+02,4.639201e+03
7.733168e+02,4.637057e+03
7.762095e+02,4.632172e+03
7.791022e+02,4.640613e+03
7.819949e+02,4.626416e+03
7.848876e+02,4.595232e+03
7.877803e+02,4.629300e+03
7.906730e+02,4.618976e+03
7.935657e+02,4.579131e+03
7.964584e+02,4.576892e+03
7.993511e+02,4.582425e+03
8.022438e+02,4.568609e+03
8.051365e+02,4.583345e+03
8.080292e+02,4.593316e+03
8.109219e+02,4.551783e+03
8.138146e+02,4.567997e+03
8.167073e+02,4.554417e+03
8.196000e+02,4.554478e+03
8.224927e+02,4.552028e+03
8.253854e+02,4.545036e+03
8.282781e+02,4.530895e+03
8.311708e+02,4.501936e+03
8.340635e+02,4.508747e+03
8.369562e+02,4.515386e+03
8.398489e+02,4.527882e+03
8.427416e+02,4.510690e+03
8.456343e+02,4.470197e+03
8.485270e+02,4.482548e+03
8.514197e+02,4.483703e+03
8.543124e+02,4.474097e+03
8.572051e+02,4.454618e+03
8.600978e+02,4.450842e+03
8.629905e+02,4.442795e+03
8.658832e+02,4.439880e+03
8.687759e+02,4.415235e+03
8.716686e+02,4.437259e+03
8.745613e+02,4.422630e+03
8.774540e+02,4.404976e+03
8.803467e+02,4.413303e+03
8.832394e+02,4.417418e+03
8.861321e+02,4.414668e+03
8.890248e+02,4.394085e+03
8.919175e+02,4.402493e+03
8.948102e+02,4.385839e+03
8.977029e+02,4.356919e+03
9.005956e+02,4.372822e+03
9.034883e+02,4.375450e+03
9.063810e+02,4.339204e+03
9.092737e+02,4.328271e+03
9.121664e+02,4.335683e+03
9.150591e+02,4.326746e+03
9.179518e+02,4.330890e+03
9.208445e+02,4.299972e+03
9.237372e+02,4.302151e+03
9.266299e+02,4.303705e+03
9.295226e+02,4.289641e+03
9.324153e+02,4.286875e+03
9.353080e+02,4.274624e+03
9.382007e+02,4.287319e+03
9.410934e+02,4.269803e+03
9.439861e+02,4.268327e+03
9.468788e+02,4.264420e+03
9.497715e+02,4.261842e+03
9.526642e+02,4.245771e+03
9.555569e+02,4.225485e+03
9.584496e+02,4.228972e+03
9.613423e+02,4.208818e+03
9.642350e+02,4.221494e+03
9.671277e+02,4.210237e+03
9.700204e+02,4.196391e+03
9.729131e+02,4.175583e+03
9.758058e+02,4.188230e+03
9.786985e+02,4.192933e+03
9.815912e+02,4.161654e+03
9.844839e+02,4.159762e+03
9.873766e+02,4.147030e+03
9.902693e+02,4.146628e+03
9.931620e+02,4.154979e+03
9.960547e+02,4.143669e+03
9.989474e+02,4.127826e+03
1.001840e+03,4.110491e+03
1.004733e+03,4.112805e+03
1.007626e+03,4.111254e+03
1.010518e+03,4.102360e+03
1.013411e+03,4.090097e+03
1.016304e+03,4.089268e+03
1.019196e+03,4.076121e+03
1.022089e+03,4.057895e+03
1.024982e+03,4.078439e+03
1.027875e+03,4.072212e+03
1.030767e+03,4.045724e+03
1.033660e+03,4.048779e+03
1.036552e+03,4.057376e+03
1.039445e+03,4.065336e+03
1.042338e+03,4.042593e+03
1.045231e+03,4.046112e+03
1.048123e+03,4.023115e+03
1.051016e+03,4.029160e+03
1.053909e+03,4.021304e+03
1.056802e+03,4.015601e+03
1.059694e+03,3.984652e+03
1.062587e+03,3.994212e+03
1.065479e+03,3.988854e+03
1.068372e+03,4.001172e+03
1.071265e+03,3.993721e+03
1.074158e+03,3.988087e+03
1.077050e+03,3.955190e+03
1.079943e+03,3.956942e+03
1.082836e+03,3.970629e+03
1.085729e+03,3.985947e+03
1.088621e+03,3.959267e+03
1.091514e+03,3.961810e+03
1.094406e+03,3.963766e+03
1.097299e+03,3.955614e+03
1.100192e+03,3.951640e+03
1.103085e+03,3.936597e+03
1.105977e+03,3.930532e+03
1.108870e+03,3.911722e+03
1.111763e+03,3.893341e+03
1.114656e+03,3.887596e+03
1.117548e+03,3.900176e+03
1.120441e+03,3.886342e+03
1.123334e+03,3.889653e+03
1.126226e+03,3.859929e+03
1.129119e+03,3.867691e+03
1.132012e+03,3.867550e+03
1.134904e+03,3.834366e+03
1.137797e+03,3.814837e+03
1.140690e+03,3.842222e+03
1.143583e+03,3.841498e+03
1.146475e+03,3.832381e+03
1.149368e+03,3.811729e+03
1.152261e+03,3.820432e+03
1.155153e+03,3.815953e+03
1.158046e+03,3.789403e+03
1.160939e+03,3.776920e+03
1.163831e+03,3.771247e+03
1.166724e+03,3.767335e+03
1.169617e+03,3.760625e+03
1.172510e+03,3.761147e+03
1.175402e+03,3.740611e+03
1.178295e+03,3.731666e+03
1.181188e+03,3.742276e+03
1.184080e+03,3.733834e+03
1.186973e+03,3.714635e+03
1.189866e+03,3.700992e+03
1.192758e+03,3.712257e+03
1.195651e+03,3.717640e+03
1.198544e+03,3.719940e+03
1.201437e+03,3.684863e+03
1.204329e+03,3.649068e+03
1.207222e+03,3.668547e+03
1.210115e+03,3.683382e+03
1.213007e+03,3.679076e+03
1.215900e+03,3.680964e+03
1.218793e+03,3.654886e+03
1.221685e+03,3.639516e+03
1.224578e+03,3.641085e+03
1.227471e+03,3.634008e+03
1.230364e+03,3.630365e+03
1.233256e+03,3.596846e+03
1.236149e+03,3.599022e+03
1.239042e+03,3.611706e+03
1.241934e+03,3.615393e+03
1.244827e+03,3.584726e+03
1.247720e+03,3.594987e+03
1.250612e+03,3.590711e+03
1.253505e+03,3.577583e+03
1.256398e+03,3.589758e+03
1.259291e+03,3.576991e+03
1.262183e+03,3.581676e+03
1.265076e+03,3.574013e+03
1.267969e+03,3.552985e+03
1.270861e+03,3.564275e+03
1.273754e+03,3.554546e+03
1.276647e+03,3.545364e+03
1.279539e+03,3.530832e+03
1.282432e+03,3.515750e+03
1.285325e+03,3.542041e+03
1.288218e+03,3.543374e+03
1.291110e+03,3.534939e+03
1.294003e+03,3.515549e+03
1.296896e+03,3.511967e+03
1.299788e+03,3.492873e+03
1.302681e+03,3.498191e+03
1.305574e+03,3.495017e+03
1.308466e+03,3.475344e+03
1.311359e+03,3.481722e+03
1.314252e+03,3.469265e+03
1.317145e+03,3.459004e+03
1.320037e+03,3.486663e+03
1.322930e+03,3.458967e+03
1.325823e+03,3.457760e+03
1.328715e+03,3.437340e+03
1.331608e+03,3.447242e+03
1.334501e+03,3.445286e+03
1.337393e+03,3.449874e+03
1.340286e+03,3.430351e+03
1.343179e+03,3.422539e+03
1.346072e+03,3.418645e+03
1.348964e+03,3.410931e+03
1.351857e+03,3.396074e+03
1.354750e+03,3.398855e+03
1.357642e+03,3.369630e+03
1.360535e+03,3.375806e+03
1.363428e+03,3.369086e+03
1.366320e+03,3.372954e+03
1.369213e+03,3.370319e+03
1.372106e+03,3.354000e+03
1.374999e+03,3.345348e+03
1.377891e+03,3.349421e+03
1.380784e+03,3.354056e+03
1.383677e+03,3.332968e+03
1.386569e+03,3.336354e+03
1.389462e+03,3.321086e+03
1.392355e+03,3.299271e+03
1.395247e+03,3.307414e+03
1.398140e+03,3.307161e+03
1.401033e+03,3.293456e+03
1.403926e+03,3.279542e+03
1.406818e+03,3.286180e+03
1.409711e+03,3.272884e+03
1.412604e+03,3.271848e+03
1.415496e+03,3.276624e+03
1.418389e+03,3.270411e+03
1.421282e+03,3.244610e+03
1.424174e+03,3.236150e+03
1.427067e+03,3.235684e+03
1.429960e+03,3.232889e+03
1.432853e+03,3.236580e+03
1.435745e+03,3.207106e+03
1.438638e+03,3.206615e+03
1.441531e+03,3.214948e+03
1.444423e+03,3.194568e+03
1.447316e+03,3.203915e+03
1.450209e+03,3.182500e+03
1.453101e+03,3.162190e+03
1.455994e+03,3.177646e+03
1.458887e+03,3.174674e+03
1.461780e+03,3.164037e+03
1.464672e+03,3.178110e+03
1.467565e+03,3.160263e+03
1.470458e+03,3.169842e+03
1.473350e+03,3.153504e+03
1.476243e+03,3.143618e+03
1.479136e+03,3.146415e+03
1.482028e+03,3.133611e+03
1.484921e+03,3.146211e+03
1.487814e+03,3.128654e+03
1.490707e+03,3.143683e+03
1.493599e+03,3.117862e+03
1.496492e+03,3.105451e+03
1.499385e+03,3.104450e+03
1.502277e+03,3.090497e+03
1.505170e+03,3.108417e+03
1.508063e+03,3.090910e+03
1.510955e+03,3.074865e+03
1.513848e+03,3.073358e+03
1.516741e+03,3.075130e+03
1.519634e+03,3.057508e+03
1.522526e+03,3.052890e+03
1.525419e+03,3.063815e+03
1.528312e+03,3.045716e+03
1.531204e+03,3.033881e+03
1.534097e+03,3.029971e+03
1.536990e+03,3.027819e+03
1.539882e+03,3.027870e+03
1.542775e+03,3.015580e+03
1.545668e+03,3.000097e+03
1.548561e+03,3.011429e+03
1.551453e+03,3.016222e+03
1.554346e+03,3.037969e+03
1.557239e+03,3.012031e+03
1.560131e+03,2.975555e+03
1.563024e+03,2.987357e+03
1.565917e+03,2.997033e+03
1.568809e+03,3.001423e+03
1.571702e+03,2.994619e+03
1.574595e+03,2.987955e+03
1.577488e+03,2.969981e+03
1.580380e+03,2.969774e+03
1.583273e+03,2.969238e+03
1.586166e+03,2.962411e+03
1.589058e+03,2.945713e+03
1.591951e+03,2.947915e+03
1.594844e+03,2.936656e+03
1.597736e+03,2.939171e+03
1.600629e+03,2.923925e+03
1.603522e+03,2.936555e+03
1.606415e+03,2.900740e+03
1.609307e+03,2.912312e+03
1.612200e+03,2.909924e+03
1.615093e+03,2.905000e+03
1.617985e+03,2.916406e+03
1.620878e+03,2.893521e+03
1.623771e+03,2.891597e+03
1.626663e+03,2.887836e+03
1.629556e+03,2.870791e+03
1.632449e+03,2.864474e+03
1.635342e+03,2.848215e+03
1.638234e+03,2.856542e+03
1.641127e+03,2.830711e+03
1.644020e+03,2.845364e+03
1.646912e+03,2.842760e+03
1.649805e+03,2.837084e+03
1.652698e+03,2.816501e+03
1.655590e+03,2.811259e+03
1.658483e+03,2.825586e+03
1.661376e+03,2.805524e+03
1.664269e+03,2.804196e+03
1.667161e+03,2.801324e+03
1.670054e+03,2.777633e+03
1.672947e+03,2.791450e+03
1.675839e+03,2.805504e+03
1.678732e+03,2.779276e+03
1.681625e+03,2.773181e+03
1.684517e+03,2.748035e+03
1.687410e+03,2.764430e+03
1.690303e+03,2.758013e+03
1.693196e+03,2.743781e+03
1.696088e+03,2.743783e+03
1.698981e+03,2.741222e+03
1.701874e+03,2.742668e+03
1.704766e+03,2.743429e+03
1.707659e+03,2.708427e+03
1.710552e+03,2.701786e+03
1.713444e+03,2.722986e+03
1.716337e+03,2.698581e+03
1.719230e+03,2.700128e+03
1.722123e+03,2.689058e+03
1.725015e+03,2.697173e+03
1.727908e+03,2.690347e+03
1.730801e+03,2.702680e+03
1.733693e+03,2.672458e+03
1.736586e+03,2.682300e+03
1.739479e+03,2.677234e+03
1.742371e+03,2.669099e+03
1.745264e+03,2.662788e+03
1.748157e+03,2.654485e+03
1.751050e+03,2.662050e+03
1.753942e+03,2.654668e+03
1.756835e+03,2.631896e+03
1.759728e+03,2.652901e+03
1.762620e+03,2.645279e+03
1.765513e+03,2.643790e+03
1.768406e+03,2.644904e+03
1.771298e+03,2.635513e+03
1.774191e+03,2.616437e+03
1.777084e+03,2.611300e+03
1.779977e+03,2.603849e+03
1.782869e+03,2.620524e+03
1.785762e+03,2.600382e+03
1.788655e+03,2.586752e+03
1.791547e+03,2.584358e+03
1.794440e+03,2.575081e+03
1.797333e+03,2.607478e+03
1.800225e+03,2.572804e+03
1.803118e+03,2.568560e+03
1.806011e+03,2.539010e+03
1.808904e+03,2.552337e+03
1.811796e+03,2.566785e+03
1.814689e+03,2.553349e+03
1.817582e+03,2.540634e+03
1.820474e+03,2.546324e+03
1.823367e+03,2.521191e+03
1.826260e+03,2.532815e+03
1.829152e+03,2.530556e+03
1.832045e+03,2.515883e+03
1.834938e+03,2.517594e+03
1.837831e+03,2.509540e+03
1.840723e+03,2.490308e+03
1.843616e+03,2.495609e+03
1.846509e+03,2.504604e+03
1.849401e+03,2.472418e+03
1.852294e+03,2.453282e+03
1.855187e+03,2.477134e+03
1.858079e+03,2.472364e+03
1.860972e+03,2.470434e+03
1.863865e+03,2.460147e+03
1.866758e+03,2.453287e+03
1.869650e+03,2.455706e+03
1.872543e+03,2.447991e+03
1.875436e+03,2.448875e+03
1.878328e+03,2.428009e+03
1.881221e+03,2.406879e+03
1.884114e+03,2.429097e+03
1.887006e+03,2.412003e+03
1.889899e+03,2.392034e+03
1.892792e+03,2.414513e+03
1.895685e+03,2.403898e+03
1.898577e+03,2.388920e+03
1.901470e+03,2.375894e+03
1.904363e+03,2.400882e+03
1.907255e+03,2.384686e+03
1.910148e+03,2.386922e+03
1.913041e+03,2.360888e+03
1.915933e+03,2.374119e+03
1.918826e+03,2.329904e+03
1.921719e+03,2.333086e+03
1.924612e+03,2.350065e+03
1.927504e+03,2.358572e+03
1.930397e+03,2.335796e+03
1.933290e+03,2.321949e+03
1.936182e+03,2.321297e+03
1.939075e+03,2.324648e+03
1.941968e+03,2.308348e+03
1.944860e+03,2.284904e+03
1.947753e+03,2.294209e+03
1.950646e+03,2.280937e+03
1.953539e+03,2.289100e+03
1.956431e+03,2.299657e+03
1.959324e+03,2.272296e+03
1.962217e+03,2.294239e+03
1.965109e+03,2.259139e+03
1.968002e+03,2.270949e+03
1.970895e+03,2.285828e+03
1.973787e+03,2.249884e+03
1.976680e+03,2.246978e+03
1.979573e+03,2.246861e+03
1.982466e+03,2.238924e+03
1.985358e+03,2.260337e+03
1.988251e+03,2.227211e+03
1.991144e+03,2.225131e+03
1.994036e+03,2.220942e+03
1.996929e+03,2.199577e+03
1.999822e+03,2.221273e+03
2.002714e+03,2.217353e+03
2.005607e+03,2.187113e+03
2.008500e+03,2.196867e+03
2.011393e+03,2.179993e+03
2.014285e+03,2.165735e+03
2.017178e+03,2.174722e+03
2.020071e+03,2.183605e+03
2.022963e+03,2.175644e+03
2.025856e+03,2.149400e+03
2.028749e+03,2.150175e+03
2.031641e+03,2.154862e+03
2.034534e+03,2.136612e+03
2.037427e+03,2.131067e+03
2.040320e+03,2.119531e+03
2.043212e+03,2.111594e+03
2.046105e+03,2.122352e+03
2.048998e+03,2.117680e+03
2.051890e+03,2.119166e+03
2.054783e+03,2.102648e+03
2.057676e+03,2.094935e+03
2.060568e+03,2.085198e+03
2.063461e+03,2.101228e+03
2.066354e+03,2.084921e+03
2.069247e+03,2.063092e+03
2.072139e+03,2.075095e+03
2.075032e+03,2.056757e+03
2.077925e+03,2.054371e+03
2.080817e+03,2.057659e+03
2.083710e+03,2.034400e+03
2.086603e+03,2.022486e+03
2.089496e+03,2.040114e+03
2.092388e+03,2.025936e+03
2.095281e+03,2.022030e+03
2.098174e+03,2.021974e+03
2.101066e+03,2.026424e+03
2.103959e+03,1.993722e+03
2.106852e+03,1.989590e+03
2.109744e+03,2.010130e+03
2.112637e+03,1.990481e+03
2.115530e+03,1.962920e+03
2.118422e+03,1.983572e+03
2.121315e+03,1.993056e+03
2.124208e+03,1.987301e+03
2.127101e+03,1.969343e+03
2.129993e+03,1.969760e+03
2.132886e+03,1.945680e+03
2.135779e+03,1.973928e+03
2.138671e+03,1.932458e+03
2.141564e+03,1.947801e+03
2.144457e+03,1.951587e+03
2.147350e+03,1.917885e+03
2.150242e+03,1.938258e+03
2.153135e+03,1.906122e+03
2.156028e+03,1.903683e+03
2.158920e+03,1.891583e+03
2.161813e+03,1.902082e+03
2.164706e+03,1.891632e+03
2.167598e+03,1.882956e+03
2.170491e+03,1.873343e+03
2.173384e+03,1.867093e+03
2.176277e+03,1.872789e+03
2.179169e+03,1.875331e+03
2.182062e+03,1.845966e+03
2.184955e+03,1.860766e+03
2.187847e+03,1.839471e+03
2.190740e+03,1.854007e+03
2.193633e+03,1.849689e+03
2.196525e+03,1.838846e+03
2.199418e+03,1.834964e+03
2.202311e+03,1.820152e+03
2.205204e+03,1.820440e+03
2.208096e+03,1.814335e+03
2.210989e+03,1.794628e+03
2.213882e+03,1.795056e+03
2.216774e+03,1.797898e+03
2.219667e+03,1.784904e+03
2.222560e+03,1.784888e+03
2.225452e+03,1.765208e+03
2.228345e+03,1.775680e+03
2.231238e+03,1.783254e+03
2.234131e+03,1.749839e+03
2.237023e+03,1.755810e+03
2.239916e+03,1.736941e+03
2.242809e+03,1.751522e+03
2.245701e+03,1.758171e+03
2.248594e+03,1.739300e+03
2.251487e+03,1.758183e+03
2.254379e+03,1.729866e+03
2.257272e+03,1.703451e+03
2.260165e+03,1.726130e+03
2.263058e+03,1.699533e+03
2.265950e+03,1.714412e+03
2.268843e+03,1.690486e+03
2.271736e+03,1.683209e+03
2.274628e+03,1.688848e+03
2.277521e+03,1.678616e+03
2.280414e+03,1.684861e+03
2.283306e+03,1.661483e+03
2.286199e+03,1.657412e+03
2.289092e+03,1.662734e+03
2.291985e+03,1.655202e+03
2.294877e+03,1.645804e+03
2.297770e+03,1.655474e+03
2.300663e+03,1.640504e+03
2.303555e+03,1.639262e+03
2.306448e+03,1.643574e+03
2.309341e+03,1.623017e+03
2.312233e+03,1.599167e+03
2.315126e+03,1.619144e+03
2.318019e+03,1.612653e+03
2.320912e+03,1.597543e+03
2.323804e+03,1.594142e+03
2.326697e+03,1.611774e+03
2.329590e+03,1.598473e+03
2.332482e+03,1.575798e+03
2.335375e+03,1.579550e+03
2.338268e+03,1.560956e+03
2.341160e+03,1.563914e+03
2.344053e+03,1.568744e+03
2.346946e+03,1.547619e+03
2.349839e+03,1.551675e+03
2.352731e+03,1.552931e+03
2.355624e+03,1.543535e+03
2.358517e+03,1.520099e+03
2.361409e+03,1.536669e+03
2.364302e+03,1.529856e+03
2.367195e+03,1.536639e+03
2.370087e+03,1.517620e+03
2.372980e+03,1.503273e+03
2.375873e+03,1.509706e+03
2.378766e+03,1.500259e+03
2.381658e+03,1.508619e+03
2.384551e+03,1.498823e+03
2.387444e+03,1.484255e+03
2.390336e+03,1.478695e+03
2.393229e+03,1.485858e+03
2.396122e+03,1.466882e+03
2.399014e+03,1.474340e+03
2.401907e+03,1.462633e+03
2.404800e+03,1.461113e+03
2.407693e+03,1.455393e+03
2.410585e+03,1.451738e+03
2.413478e+03,1.443561e+03
2.416371e+03,1.429345e+03
2.419263e+03,1.440894e+03
2.422156e+03,1.432516e+03
2.425049e+03,1.424669e+03
2.427941e+03,1.412336e+03
2.430834e+03,1.410375e+03
2.433727e+03,1.393936e+03
2.436620e+03,1.406338e+03
2.439512e+03,1.407126e+03
2.442405e+03,1.398357e+03
2.445298e+03,1.397052e+03
2.448190e+03,1.396011e+03
2.451083e+03,1.395321e+03
2.453976e+03,1.389329e+03
2.456868e+03,1.371979e+03
2.459761e+03,1.366896e+03
2.462654e+03,1.360542e+03
2.465547e+03,1.366407e+03
2.468439e+03,1.361681e+03
2.471332e+03,1.365990e+03
2.474225e+03,1.345217e+03
2.477117e+03,1.343447e+03
2.480010e+03,1.336521e+03
2.482903e+03,1.361153e+03
2.485795e+03,1.326597e+03
2.488688e+03,1.337055e+03
2.491581e+03,1.346286e+03
2.494474e+03,1.328320e+03
2.497366e+03,1.322088e+03
2.500259e+03,1.344844e+03
2.503152e+03,1.308982e+03
2.506044e+03,1.304236e+03
2.508937e+03,1.308776e+03
2.511830e+03,1.313454e+03
2.514722e+03,1.307187e+03
2.517615e+03,1.305049e+03
2.520508e+03,1.293599e+03
2.523401e+03,1.283366e+03
2.526293e+03,1.286770e+03
2.529186e+03,1.286537e+03
2.532079e+03,1.275389e+03
2.534971e+03,1.280555e+03
2.537864e+03,1.280352e+03
2.540757e+03,1.278494e+03
2.543649e+03,1.280261e+03
2.546542e+03,1.279051e+03
2.549435e+03,1.271212e+03
2.552328e+03,1.271868e+03
2.555220e+03,1.267963e+03
2.558113e+03,1.247747e+03
2.561006e+03,1.263128e+03
2.563898e+03,1.252844e+03
2.566791e+03,1.243800e+03
2.569684e+03,1.259049e+03
2.572576e+03,1.229262e+03
2.575469e+03,1.247440e+03
2.578362e+03,1.225091e+03
2.581255e+03,1.219390e+03
2.584147e+03,1.220536e+03
2.587040e+03,1.211733e+03
2.589933e+03,1.225704e+03
2.592825e+03,1.194559e+03
2.595718e+03,1.208184e+03
2.598611e+03,1.187803e+03
2.601503e+03,1.192652e+03
2.604396e+03,1.225263e+03
2.607289e+03,1.197311e+03
2.610182e+03,1.180042e+03
2.613074e+03,1.184441e+03
2.615967e+03,1.179891e+03
2.618860e+03,1.190091e+03
2.621752e+03,1.189328e+03
2.624645e+03,1.174244e+03
2.627538e+03,1.174562e+03
2.630430e+03,1.162742e+03
2.633323e+03,1.175388e+03
2.636216e+03,1.164935e+03
2.639109e+03,1.166464e+03
2.642001e+03,1.159278e+03
2.644894e+03,1.157933e+03
2.647787e+03,1.141524e+03
2.650679e+03,1.141331e+03
2.653572e+03,1.149631e+03
2.656465e+03,1.149003e+03
2.659357e+03,1.151056e+03
2.662250e+03,1.142247e+03
2.665143e+03,1.142722e+03
2.668036e+03,1.127121e+03
2.670928e+03,1.124237e+03
2.673821e+03,1.132366e+03
2.676714e+03,1.123086e+03
2.679606e+03,1.121335e+03
2.682499e+03,1.101603e+03
2.685392e+03,1.127832e+03
2.688284e+03,1.118673e+03
2.691177e+03,1.111352e+03
2.694070e+03,1.109465e+03
2.696963e+03,1.098265e+03
2.699855e+03,1.098902e+03
2.702748e+03,1.106056e+03
2.705641e+03,1.099922e+03
2.708533e+03,1.093350e+03
2.711426e+03,1.093581e+03
2.714319e+03,1.091634e+03
2.717211e+03,1.111142e+03
2.720104e+03,1.093870e+03
2.722997e+03,1.076515e+03
2.725890e+03,1.099238e+03
2.728782e+03,1.071277e+03
2.731675e+03,1.075431e+03
2.734568e+03,1.061951e+03
2.737460e+03,1.087469e+03
2.740353e+03,1.071422e+03
2.743246e+03,1.032470e+03
2.746138e+03,1.065903e+03
2.749031e+03,1.066373e+03
2.751924e+03,1.074324e+03
2.754817e+03,1.053390e+03
2.757709e+03,1.063320e+03
2.760602e+03,1.070234e+03
2.763495e+03,1.035833e+03
2.766387e+03,1.048348e+03
2.769280e+03,1.058395e+03
2.772173e+03,1.054008e+03
2.775065e+03,1.036725e+03
2.777958e+03,1.020189e+03
2.780851e+03,1.029391e+03
2.783744e+03,1.028632e+03
2.786636e+03,1.019296e+03
2.789529e+03,1.032489e+03
2.792422e+03,1.032725e+03
2.795314e+03,1.001704e+03
2.798207e+03,1.040939e+03
2.801100e+03,1.028032e+03
2.803992e+03,1.029543e+03
2.806885e+03,1.011930e+03
2.809778e+03,9.987618e+02
2.812671e+03,1.018859e+03
2.815563e+03,1.027321e+03
2.818456e+03,9.859887e+02
2.821349e+03,9.976522e+02
2.824241e+03,9.970766e+02
2.827134e+03,9.946911e+02
2.830027e+03,9.911981e+02
2.832919e+03,1.002177e+03
2.835812e+03,9.950543e+02
2.838705e+03,9.686517e+02
2.841598e+03,9.942631e+02
2.844490e+03,9.875007e+02
2.847383e+03,9.880543e+02
2.850276e+03,9.995649e+02
2.853168e+03,1.009846e+03
2.856061e+03,1.004720e+03
2.858954e+03,9.918523e+02
2.861846e+03,9.997096e+02
2.864739e+03,9.873961e+02
2.867632e+03,1.003004e+03
2.870525e+03,9.748189e+02
2.873417e+03,9.947337e+02
2.876310e+03,9.994700e+02
2.879203e+03,9.857773e+02
2.882095e+03,1.004555e+03
2.884988e+03,9.924597e+02
2.887881e+03,9.686375e+02
2.890773e+03,9.743287e+02
2.893666e+03,1.002110e+03
2.896559e+03,1.016962e+03
2.899452e+03,9.833643e+02
2.902344e+03,1.006143e+03
2.905237e+03,1.002778e+03
2.908130e+03,9.679223e+02
2.911022e+03,9.722516e+02
2.913915e+03,9.478456e+02
2.916808e+03,9.513831e+02
2.919700e+03,9.719527e+02
2.922593e+03,9.655026e+02
2.925486e+03,9.853949e+02
2.928379e+03,9.572549e+02
2.931271e+03,9.420516e+02
2.934164e+03,9.533152e+02
2.937057e+03,9.512543e+02
2.939949e+03,9.510877e+02
2.942842e+03,9.478411e+02
2.945735e+03,9.397158e+02
2.948627e+03,9.331662e+02
2.951520e+03,9.568865e+02
2.954413e+03,9.607873e+02
2.957306e+03,1.012361e+03
2.960198e+03,9.487286e+02
2.963091e+03,9.277111e+02
2.965984e+03,9.050630e+02
2.968876e+03,9.381785e+02
2.971769e+03,9.136014e+02
2.974662e+03,9.041598e+02
2.977554e+03,9.123348e+02
2.980447e+03,9.148071e+02
2.983340e+03,8.982411e+02
2.986233e+03,8.938032e+02
2.989125e+03,8.977045e+02
2.992018e+03,8.957878e+02
2.994911e+03,8.933148e+02
2.997803e+03,9.294100e+02
3.000696e+03,9.035000e+02
3.003589e+03,8.855948e+02
3.006481e+03,8.947666e+02
3.009374e+03,9.003397e+02
3.012267e+03,8.934257e+02
3.015160e+03,8.831800e+02
3.018052e+03,8.844698e+02
3.020945e+03,8.925609e+02
3.023838e+03,9.003502e+02
3.026730e+03,8.622798e+02
3.029623e+03,8.678066e+02
3.032516e+03,8.842377e+02
3.035408e+03,8.873976e+02
3.038301e+03,8.672205e+02
3.041194e+03,8.636188e+02
3.044087e+03,8.779980e+02
3.046979e+03,8.345121e+02
3.049872e+03,8.779254e+02
3.052765e+03,8.447994e+02
3.055657e+03,8.520066e+02
3.058550e+03,8.773795e+02
3.061443e+03,9.029862e+02
3.064335e+03,8.496270e+02
3.067228e+03,8.850861e+02
3.070121e+03,8.329069e+02
3.073014e+03,8.515899e+02
3.075906e+03,8.551104e+02
3.078799e+03,8.651234e+02
3.081692e+03,8.846266e+02
3.084584e+03,8.441127e+02
3.087477e+03,8.728013e+02
3.090370e+03,8.744424e+02
3.093262e+03,8.814023e+02
3.096155e+03,8.779830e+02
3.099048e+03,8.713068e+02
3.101941e+03,8.486366e+02
3.104833e+03,8.768104e+02
3.107726e+03,8.666450e+02
3.110619e+03,8.127722e+02
3.113511e+03,8.867458e+02
3.116404e+03,8.624763e+02
3.119297e+03,8.689332e+02
3.122189e+03,8.823888e+02
3.125082e+03,8.985792e+02
3.127975e+03,8.438995e+02
3.130868e+03,8.577155e+02
3.133760e+03,8.925880e+02
3.136653e+03,8.785934e+02
3.139546e+03,8.528140e+02
3.142438e+03,8.582721e+02
3.145331e+03,8.392566e+02
3.148224e+03,8.642156e+02
3.151116e+03,8.425325e+02
3.154009e+03,8.698541e+02
3.156902e+03,8.690602e+02
3.159795e+03,8.794094e+02
3.162687e+03,8.812673e+02
3.165580e+03,8.508484e+02
3.168473e+03,8.598850e+02
3.171365e+03,8.195104e+02
3.174258e+03,8.544880e+02
3.177151e+03,8.463196e+02
3.180043e+03,8.404719e+02
3.182936e+03,8.836361e+02
3.185829e+03,8.337534e+02
3.188722e+03,8.795449e+02
3.191614e+03,8.878052e+02
3.194507e+03,8.314905e+02
3.197400e+03,8.649986e+02
3.200292e+03,8.749597e+02
3.203185e+03,0.000000e+00
3.206078e+03,0.000000e+00
3.208970e+03,0.000000e+00
3.211863e+03,0.000000e+00
3.214756e+03,0.000000e+00
3.217649e+03,0.000000e+00
3.220541e+03,0.000000e+00
3.223434e+03,0.000000e+00
3.226327e+03,0.000000e+00
3.229219e+03,0.000000e+00
3.232112e+03,0.000000e+00
3.235005e+03,0.000000e+00
3.237897e+03,0.000000e+00
3.240790e+03,0.000000e+00
3.243683e+03,0.000000e+00
3.246576e+03,0.000000e+00
3.249468e+03,0.000000e+00
3.252361e+03,0.000000e+00
3.255254e+03,0.000000e+00
3.258146e+03,0.000000e+00
3.261039e+03,0.000000e+00
3.263932e+03,0.000000e+00
3.266824e+03,0.000000e+00
3.269717e+03,0.000000e+00
3.272610e+03,0.000000e+00
3.275503e+03,0.000000e+00
3.278395e+03,0.000000e+00
3.281288e+03,0.000000e+00
3.284181e+03,0.000000e+00
3.287073e+03,0.000000e+00
3.289966e+03,0.000000e+00
3.292859e+03,0.000000e+00
3.295751e+03,0.000000e+00
3.298644e+03,0.000000e+00
3.301537e+03,0.000000e+00
3.304430e+03,0.000000e+00
3.307322e+03,0.000000e+00
3.310215e+03,0.000000e+00
3.313108e+03,0.000000e+00
3.316000e+03,0.000000e+00
3.318893e+03,0.000000e+00
3.321786e+03,0.000000e+00
3.324678e+03,0.000000e+00
3.327571e+03,0.000000e+00
3.330464e+03,0.000000e+00
3.333357e+03,0.000000e+00
3.336249e+03,0.000000e+00
3.339142e+03,0.000000e+00
3.342035e+03,0.000000e+00
3.344927e+03,0.000000e+00
3.347820e+03,0.000000e+00
3.350713e+03,0.000000e+00
3.353605e+03,0.000000e+00
3.356498e+03,0.000000e+00
3.359391e+03,0.000000e+00
3.362284e+03,0.000000e+00
3.365176e+03,0.000000e+00
3.368069e+03,0.000000e+00
3.370962e+03,0.000000e+00
3.373854e+03,0.000000e+00
3.376747e+03,0.000000e+00
3.379640e+03,0.000000e+00
3.382532e+03,0.000000e+00
3.385425e+03,0.000000e+00
3.388318e+03,0.000000e+00
3.391211e+03,0.000000e+00
3.394103e+03,0.000000e+00
3.396996e+03,0.000000e+00
3.399889e+03,0.000000e+00
3.402781e+03,0.000000e+00
3.405674e+03,0.000000e+00
3.408567e+03,0.000000e+00
3.411459e+03,0.000000e+00
3.414352e+03,0.000000e+00
3.417245e+03,0.000000e+00
3.420138e+03,0.000000e+00
3.423030e+03,0.000000e+00
3.425923e+03,0.000000e+00
3.428816e+03,0.000000e+00
3.431708e+03,0.000000e+00
3.434601e+03,0.000000e+00
3.437494e+03,0.000000e+00
3.440386e+03,0.000000e+00
3.443279e+03,0.000000e+00
3.446172e+03,0.000000e+00
3.449065e+03,0.000000e+00
3.451957e+03,0.000000e+00
3.454850e+03,0.000000e+00
3.457743e+03,0.000000e+00
3.460635e+03,0.000000e+00
3.463528e+03,0.000000e+00
3.466421e+03,0.000000e+00
3.469313e+03,0.000000e+00
3.472206e+03,0.000000e+00
3.475099e+03,0.000000e+00
3.477992e+03,0.000000e+00
3.480884e+03,0.000000e+00
3.483777e+03,0.000000e+00
3.486670e+03,0.000000e+00
3.489563e+03,0.000000e+00
3.492455e+03,0.000000e+00
3.495348e+03,0.000000e+00
3.498240e+03,0.000000e+00
3.500169e+03,0.000000e+00