File: RAMAN_data/13112023_r1/blue fibre7.CSV
9.931763e+01,0.000000e+00
1.022103e+02,0.000000e+00
1.051030e+02,0.000000e+00
1.079957e+02,0.000000e+00
1.108884e+02,0.000000e+00
1.137811e+02,0.000000e+00
1.166738e+02,0.000000e+00
1.195665e+02,0.000000e+00
1.224592e+02,0.000000e+00
1.253519e+02,0.000000e+00
1.282446e+02,0.000000e+00
1.311373e+02,0.000000e+00
1.340300e+02,0.000000e+00
1.369227e+02,0.000000e+00
1.398154e+02,0.000000e+00
1.427081e+02,0.000000e+00
1.456008e+02,0.000000e+00
1.484935e+02,0.000000e+00
1.513862e+02,0.000000e+00
1.542789e+02,0.000000e+00
1.571716e+02,0.000000e+00
1.600643e+02,0.000000e+00
1.629570e+02,0.000000e+00
1.658497e+02,0.000000e+00
1.687424e+02,0.000000e+00
1.716351e+02,0.000000e+00
1.745278e+02,0.000000e+00
1.774205e+02,0.000000e+00
1.803132e+02,0.000000e+00
1.832059e+02,0.000000e+00
1.860986e+02,0.000000e+00
1.889913e+02,0.000000e+00
1.918840e+02,0.000000e+00
1.947767e+02,0.000000e+00
1.976694e+02,0.000000e+00
2.005621e+02,1.047981e+04
2.034548e+02,1.052034e+04
2.063475e+02,1.054905e+04
2.092402e+02,1.055023e+04
2.121329e+02,1.055114e+04
2.150256e+02,1.057994e+04
2.179183e+02,1.060919e+04
2.208110e+02,1.066058e+04
2.237037e+02,1.067718e+04
2.265964e+02,1.068749e+04
2.294892e+02,1.071674e+04
2.323819e+02,1.076485e+04
2.352746e+02,1.080180e+04
2.381673e+02,1.083688e+04
2.410600e+02,1.083374e+04
2.439527e+02,1.085114e+04
2.468454e+02,1.088743e+04
2.497381e+02,1.092293e+04
2.526308e+02,1.095972e+04
2.555235e+02,1.097477e+04
2.584161e+02,1.097703e+04
2.613088e+02,1.102010e+04
2.642015e+02,1.107264e+04
2.670942e+02,1.109793e+04
2.699869e+02,1.113241e+04
2.728796e+02,1.114520e+04
2.757723e+02,1.118599e+04
2.786650e+02,1.122956e+04
2.815577e+02,1.125743e+04
2.844504e+02,1.128402e+04
2.873431e+02,1.129060e+04
2.902358e+02,1.131700e+04
2.931285e+02,1.134644e+04
2.960212e+02,1.139113e+04
2.989139e+02,1.141448e+04
3.018066e+02,1.143413e+04
3.046993e+02,1.146692e+04
3.075920e+02,1.148884e+04
3.104847e+02,1.152890e+04
3.133774e+02,1.157925e+04
3.162701e+02,1.159601e+04
3.191628e+02,1.160888e+04
3.220555e+02,1.164175e+04
3.249482e+02,1.168424e+04
3.278409e+02,1.172364e+04
3.307336e+02,1.175929e+04
3.336263e+02,1.178546e+04
3.365190e+02,1.179593e+04
3.394117e+02,1.184477e+04
3.423044e+02,1.189110e+04
3.451971e+02,1.195065e+04
3.480898e+02,1.197636e+04
3.509825e+02,1.198931e+04
3.538752e+02,1.203903e+04
3.567680e+02,1.208796e+04
3.596607e+02,1.212734e+04
3.625534e+02,1.216518e+04
3.654461e+02,1.215143e+04
3.683388e+02,1.217766e+04
3.712315e+02,1.224066e+04
3.741242e+02,1.227460e+04
3.770169e+02,1.231209e+04
3.799096e+02,1.235504e+04
3.828023e+02,1.237077e+04
3.856950e+02,1.241141e+04
3.885877e+02,1.246715e+04
3.914804e+02,1.251785e+04
3.943731e+02,1.254654e+04
3.972658e+02,1.257221e+04
4.001585e+02,1.259571e+04
4.030512e+02,1.265208e+04
4.059439e+02,1.268439e+04
4.088366e+02,1.272684e+04
4.117293e+02,1.274472e+04
4.146220e+02,1.277363e+04
4.175147e+02,1.281375e+04
4.204074e+02,1.285257e+04
4.233001e+02,1.288676e+04
4.261928e+02,1.290905e+04
4.290855e+02,1.294774e+04
4.319782e+02,1.298699e+04
4.348709e+02,1.304558e+04
4.377636e+02,1.309523e+04
4.406563e+02,1.313692e+04
4.435490e+02,1.317664e+04
4.464417e+02,1.321787e+04
4.493344e+02,1.326524e+04
4.522271e+02,1.329400e+04
4.551198e+02,1.332378e+04
4.580125e+02,1.333318e+04
4.609052e+02,1.337773e+04
4.637979e+02,1.340457e+04
4.666906e+02,1.342731e+04
4.695833e+02,1.347626e+04
4.724760e+02,1.351270e+04
4.753687e+02,1.353410e+04
4.782614e+02,1.356131e+04
4.811541e+02,1.360236e+04
4.840468e+02,1.364771e+04
4.869395e+02,1.368210e+04
4.898322e+02,1.370779e+04
4.927249e+02,1.374528e+04
4.956176e+02,1.378946e+04
4.985103e+02,1.383504e+04
5.014030e+02,1.385538e+04
5.042957e+02,1.387171e+04
5.071884e+02,1.389219e+04
5.100811e+02,1.390614e+04
5.129738e+02,1.394348e+04
5.158665e+02,1.398935e+04
5.187592e+02,1.398478e+04
5.216519e+02,1.398815e+04
5.245446e+02,1.402090e+04
5.274373e+02,1.403797e+04
5.303300e+02,1.409803e+04
5.332227e+02,1.411051e+04
5.361154e+02,1.409856e+04
5.390081e+02,1.416437e+04
5.419008e+02,1.421913e+04
5.447935e+02,1.425885e+04
5.476862e+02,1.425893e+04
5.505789e+02,1.421933e+04
5.534716e+02,1.417873e+04
5.563643e+02,1.420857e+04
5.592570e+02,1.423534e+04
5.621497e+02,1.426620e+04
5.650424e+02,1.426171e+04
5.679351e+02,1.424989e+04
5.708278e+02,1.424312e+04
5.737205e+02,1.427267e+04
5.766132e+02,1.431336e+04
5.795059e+02,1.434607e+04
5.823986e+02,1.433833e+04
5.852913e+02,1.434904e+04
5.881840e+02,1.440763e+04
5.910767e+02,1.442041e+04
5.939694e+02,1.448724e+04
5.968621e+02,1.451741e+04
5.997548e+02,1.448801e+04
6.026475e+02,1.447135e+04
6.055402e+02,1.452239e+04
6.084329e+02,1.451915e+04
6.113256e+02,1.449802e+04
6.142183e+02,1.447644e+04
6.171110e+02,1.450097e+04
6.200037e+02,1.451809e+04
6.228964e+02,1.455567e+04
6.257891e+02,1.459136e+04
6.286818e+02,1.458907e+04
6.315745e+02,1.458822e+04
6.344672e+02,1.456258e+04
6.373599e+02,1.458700e+04
6.402526e+02,1.458723e+04
6.431453e+02,1.458741e+04
6.460380e+02,1.458784e+04
6.489307e+02,1.462579e+04
6.518234e+02,1.462403e+04
6.547161e+02,1.462180e+04
6.576088e+02,1.459025e+04
6.605015e+02,1.458256e+04
6.633942e+02,1.461490e+04
6.662869e+02,1.459712e+04
6.691796e+02,1.466239e+04
6.720723e+02,1.468118e+04
6.749650e+02,1.463008e+04
6.778577e+02,1.460842e+04
6.807504e+02,1.456842e+04
6.836431e+02,1.457963e+04
6.865358e+02,1.458117e+04
6.894285e+02,1.455190e+04
6.923212e+02,1.457988e+04
6.952139e+02,1.453162e+04
6.981066e+02,1.458164e+04
7.009993e+02,1.458139e+04
7.038920e+02,1.456425e+04
7.067847e+02,1.455312e+04
7.096774e+02,1.457633e+04
7.125701e+02,1.459010e+04
7.154628e+02,1.454932e+04
7.183555e+02,1.456873e+04
7.212482e+02,1.453231e+04
7.241409e+02,1.454048e+04
7.270336e+02,1.454174e+04
7.299263e+02,1.456666e+04
7.328190e+02,1.451505e+04
7.357117e+02,1.452436e+04
7.386044e+02,1.453282e+04
7.414971e+02,1.451523e+04
7.443898e+02,1.452250e+04
7.472825e+02,1.458605e+04
7.501752e+02,1.455093e+04
7.530679e+02,1.452444e+04
7.559606e+02,1.453440e+04
7.588533e+02,1.457241e+04
7.617460e+02,1.455836e+04
7.646387e+02,1.450891e+04
7.675314e+02,1.451697e+04
7.704241e+02,1.444237e+04
7.733168e+02,1.444238e+04
7.762095e+02,1.445129e+04
7.791022e+02,1.447145e+04
7.819949e+02,1.442225e+04
7.848876e+02,1.440959e+04
7.877803e+02,1.439850e+04
7.906730e+02,1.439486e+04
7.935657e+02,1.438283e+04
7.964584e+02,1.437675e+04
7.993511e+02,1.435554e+04
8.022438e+02,1.431926e+04
8.051365e+02,1.431757e+04
8.080292e+02,1.436431e+04
8.109219e+02,1.434588e+04
8.138146e+02,1.431581e+04
8.167073e+02,1.428818e+04
8.196000e+02,1.429881e+04
8.224927e+02,1.428677e+04
8.253854e+02,1.426688e+04
8.282781e+02,1.427698e+04
8.311708e+02,1.426207e+04
8.340635e+02,1.425563e+04
8.369562e+02,1.426374e+04
8.398489e+02,1.425898e+04
8.427416e+02,1.423856e+04
8.456343e+02,1.417406e+04
8.485270e+02,1.414421e+04
8.514197e+02,1.416971e+04
8.543124e+02,1.418840e+04
8.572051e+02,1.415962e+04
8.600978e+02,1.411013e+04
8.629905e+02,1.412539e+04
8.658832e+02,1.408587e+04
8.687759e+02,1.411637e+04
8.716686e+02,1.408242e+04
8.745613e+02,1.404275e+04
8.774540e+02,1.404158e+04
8.803467e+02,1.405367e+04
8.832394e+02,1.404145e+04
8.861321e+02,1.405909e+04
8.890248e+02,1.400710e+04
8.919175e+02,1.396823e+04
8.948102e+02,1.394957e+04
8.977029e+02,1.391507e+04
9.005956e+02,1.394357e+04
9.034883e+02,1.390260e+04
9.063810e+02,1.386378e+04
9.092737e+02,1.387652e+04
9.121664e+02,1.385649e+04
9.150591e+02,1.385415e+04
9.179518e+02,1.385257e+04
9.208445e+02,1.379092e+04
9.237372e+02,1.377004e+04
9.266299e+02,1.376064e+04
9.295226e+02,1.378213e+04
9.324153e+02,1.377325e+04
9.353080e+02,1.377492e+04
9.382007e+02,1.371697e+04
9.410934e+02,1.369242e+04
9.439861e+02,1.368573e+04
9.468788e+02,1.369274e+04
9.497715e+02,1.369689e+04
9.526642e+02,1.366076e+04
9.555569e+02,1.360517e+04
9.584496e+02,1.359211e+04
9.613423e+02,1.361932e+04
9.642350e+02,1.356961e+04
9.671277e+02,1.356528e+04
9.700204e+02,1.353889e+04
9.729131e+02,1.345372e+04
9.758058e+02,1.346672e+04
9.786985e+02,1.347528e+04
9.815912e+02,1.344968e+04
9.844839e+02,1.340182e+04
9.873766e+02,1.337996e+04
9.902693e+02,1.337936e+04
9.931620e+02,1.337549e+04
9.960547e+02,1.336652e+04
9.989474e+02,1.330250e+04
1.001840e+03,1.323284e+04
1.004733e+03,1.326064e+04
1.007626e+03,1.326308e+04
1.010518e+03,1.327267e+04
1.013411e+03,1.321384e+04
1.016304e+03,1.315960e+04
1.019196e+03,1.314908e+04
1.022089e+03,1.314444e+04
1.024982e+03,1.313141e+04
1.027875e+03,1.309550e+04
1.030767e+03,1.305060e+04
1.033660e+03,1.303105e+04
1.036552e+03,1.302272e+04
1.039445e+03,1.301142e+04
1.042338e+03,1.299243e+04
1.045231e+03,1.298081e+04
1.048123e+03,1.294357e+04
1.051016e+03,1.289556e+04
1.053909e+03,1.292642e+04
1.056802e+03,1.289405e+04
1.059694e+03,1.286189e+04
1.062587e+03,1.282688e+04
1.065479e+03,1.282770e+04
1.068372e+03,1.280793e+04
1.071265e+03,1.283545e+04
1.074158e+03,1.280666e+04
1.077050e+03,1.274449e+04
1.079943e+03,1.274966e+04
1.082836e+03,1.274907e+04
1.085729e+03,1.273753e+04
1.088621e+03,1.273359e+04
1.091514e+03,1.267886e+04
1.094406e+03,1.263444e+04
1.097299e+03,1.259033e+04
1.100192e+03,1.260459e+04
1.103085e+03,1.257801e+04
1.105977e+03,1.254491e+04
1.108870e+03,1.250753e+04
1.111763e+03,1.249482e+04
1.114656e+03,1.249618e+04
1.117548e+03,1.251543e+04
1.120441e+03,1.250065e+04
1.123334e+03,1.245602e+04
1.126226e+03,1.240839e+04
1.129119e+03,1.240756e+04
1.132012e+03,1.241078e+04
1.134904e+03,1.238426e+04
1.137797e+03,1.236475e+04
1.140690e+03,1.234941e+04
1.143583e+03,1.233493e+04
1.146475e+03,1.233342e+04
1.149368e+03,1.231698e+04
1.152261e+03,1.231338e+04
1.155153e+03,1.225209e+04
1.158046e+03,1.221355e+04
1.160939e+03,1.225039e+04
1.163831e+03,1.224510e+04
1.166724e+03,1.221684e+04
1.169617e+03,1.216492e+04
1.172510e+03,1.214533e+04
1.175402e+03,1.214643e+04
1.178295e+03,1.215455e+04
1.181188e+03,1.216374e+04
1.184080e+03,1.212494e+04
1.186973e+03,1.209246e+04
1.189866e+03,1.210920e+04
1.192758e+03,1.208106e+04
1.195651e+03,1.210571e+04
1.198544e+03,1.208894e+04
1.201437e+03,1.203523e+04
1.204329e+03,1.201016e+04
1.207222e+03,1.201891e+04
1.210115e+03,1.205971e+04
1.213007e+03,1.204730e+04
1.215900e+03,1.200517e+04
1.218793e+03,1.201163e+04
1.221685e+03,1.203544e+04
1.224578e+03,1.206097e+04
1.227471e+03,1.205160e+04
1.230364e+03,1.201186e+04
1.233256e+03,1.198278e+04
1.236149e+03,1.195157e+04
1.239042e+03,1.198550e+04
1.241934e+03,1.200218e+04
1.244827e+03,1.196980e+04
1.247720e+03,1.198843e+04
1.250612e+03,1.195438e+04
1.253505e+03,1.195434e+04
1.256398e+03,1.194574e+04
1.259291e+03,1.195200e+04
1.262183e+03,1.193392e+04
1.265076e+03,1.190649e+04
1.267969e+03,1.193093e+04
1.270861e+03,1.194117e+04
1.273754e+03,1.194789e+04
1.276647e+03,1.193417e+04
1.279539e+03,1.191147e+04
1.282432e+03,1.188968e+04
1.285325e+03,1.193757e+04
1.288218e+03,1.192611e+04
1.291110e+03,1.191847e+04
1.294003e+03,1.190273e+04
1.296896e+03,1.191474e+04
1.299788e+03,1.193121e+04
1.302681e+03,1.197034e+04
1.305574e+03,1.198495e+04
1.308466e+03,1.196617e+04
1.311359e+03,1.195674e+04
1.314252e+03,1.195844e+04
1.317145e+03,1.196374e+04
1.320037e+03,1.198492e+04
1.322930e+03,1.195436e+04
1.325823e+03,1.191579e+04
1.328715e+03,1.194879e+04
1.331608e+03,1.193400e+04
1.334501e+03,1.195753e+04
1.337393e+03,1.194563e+04
1.340286e+03,1.190139e+04
1.343179e+03,1.188250e+04
1.346072e+03,1.188604e+04
1.348964e+03,1.190379e+04
1.351857e+03,1.193348e+04
1.354750e+03,1.192672e+04
1.357642e+03,1.189256e+04
1.360535e+03,1.189248e+04
1.363428e+03,1.191484e+04
1.366320e+03,1.191430e+04
1.369213e+03,1.189456e+04
1.372106e+03,1.186484e+04
1.374999e+03,1.182623e+04
1.377891e+03,1.183123e+04
1.380784e+03,1.184071e+04
1.383677e+03,1.188219e+04
1.386569e+03,1.185425e+04
1.389462e+03,1.181609e+04
1.392355e+03,1.183642e+04
1.395247e+03,1.184250e+04
1.398140e+03,1.186060e+04
1.401033e+03,1.188065e+04
1.403926e+03,1.185957e+04
1.406818e+03,1.185797e+04
1.409711e+03,1.185408e+04
1.412604e+03,1.187985e+04
1.415496e+03,1.187501e+04
1.418389e+03,1.187171e+04
1.421282e+03,1.187086e+04
1.424174e+03,1.186282e+04
1.427067e+03,1.187775e+04
1.429960e+03,1.189124e+04
1.432853e+03,1.190715e+04
1.435745e+03,1.189504e+04
1.438638e+03,1.187736e+04
1.441531e+03,1.189388e+04
1.444423e+03,1.190357e+04
1.447316e+03,1.186658e+04
1.450209e+03,1.187919e+04
1.453101e+03,1.190469e+04
1.455994e+03,1.190072e+04
1.458887e+03,1.193153e+04
1.461780e+03,1.188874e+04
1.464672e+03,1.181695e+04
1.467565e+03,1.178525e+04
1.470458e+03,1.175869e+04
1.473350e+03,1.173008e+04
1.476243e+03,1.175233e+04
1.479136e+03,1.176247e+04
1.482028e+03,1.174624e+04
1.484921e+03,1.170071e+04
1.487814e+03,1.167617e+04
1.490707e+03,1.165155e+04
1.493599e+03,1.164129e+04
1.496492e+03,1.160069e+04
1.499385e+03,1.159436e+04
1.502277e+03,1.157853e+04
1.505170e+03,1.160304e+04
1.508063e+03,1.155837e+04
1.510955e+03,1.154962e+04
1.513848e+03,1.148166e+04
1.516741e+03,1.147525e+04
1.519634e+03,1.151977e+04
1.522526e+03,1.151790e+04
1.525419e+03,1.147706e+04
1.528312e+03,1.141857e+04
1.531204e+03,1.142820e+04
1.534097e+03,1.141992e+04
1.536990e+03,1.144251e+04
1.539882e+03,1.141610e+04
1.542775e+03,1.139471e+04
1.545668e+03,1.138139e+04
1.548561e+03,1.138925e+04
1.551453e+03,1.143412e+04
1.554346e+03,1.147749e+04
1.557239e+03,1.149106e+04
1.560131e+03,1.153232e+04
1.563024e+03,1.165913e+04
1.565917e+03,1.186403e+04
1.568809e+03,1.206098e+04
1.571702e+03,1.209669e+04
1.574595e+03,1.196756e+04
1.577488e+03,1.186505e+04
1.580380e+03,1.182045e+04
1.583273e+03,1.176807e+04
1.586166e+03,1.159192e+04
1.589058e+03,1.139972e+04
1.591951e+03,1.130920e+04
1.594844e+03,1.127617e+04
1.597736e+03,1.122904e+04
1.600629e+03,1.118827e+04
1.603522e+03,1.118958e+04
1.606415e+03,1.112482e+04
1.609307e+03,1.113195e+04
1.612200e+03,1.107568e+04
1.615093e+03,1.107687e+04
1.617985e+03,1.106521e+04
1.620878e+03,1.104667e+04
1.623771e+03,1.098239e+04
1.626663e+03,1.100884e+04
1.629556e+03,1.099127e+04
1.632449e+03,1.094143e+04
1.635342e+03,1.085850e+04
1.638234e+03,1.085163e+04
1.641127e+03,1.082973e+04
1.644020e+03,1.083512e+04
1.646912e+03,1.079512e+04
1.649805e+03,1.075557e+04
1.652698e+03,1.074291e+04
1.655590e+03,1.074443e+04
1.658483e+03,1.072287e+04
1.661376e+03,1.070289e+04
1.664269e+03,1.070981e+04
1.667161e+03,1.067216e+04
1.670054e+03,1.063647e+04
1.672947e+03,1.061469e+04
1.675839e+03,1.063238e+04
1.678732e+03,1.059586e+04
1.681625e+03,1.056763e+04
1.684517e+03,1.054646e+04
1.687410e+03,1.054919e+04
1.690303e+03,1.053559e+04
1.693196e+03,1.053709e+04
1.696088e+03,1.053743e+04
1.698981e+03,1.052011e+04
1.701874e+03,1.048829e+04
1.704766e+03,1.046543e+04
1.707659e+03,1.045183e+04
1.710552e+03,1.042626e+04
1.713444e+03,1.039193e+04
1.716337e+03,1.038300e+04
1.719230e+03,1.036013e+04
1.722123e+03,1.038316e+04
1.725015e+03,1.032890e+04
1.727908e+03,1.029745e+04
1.730801e+03,1.031329e+04
1.733693e+03,1.028639e+04
1.736586e+03,1.022597e+04
1.739479e+03,1.025987e+04
1.742371e+03,1.023839e+04
1.745264e+03,1.020204e+04
1.748157e+03,1.019900e+04
1.751050e+03,1.016938e+04
1.753942e+03,1.015342e+04
1.756835e+03,1.017036e+04
1.759728e+03,1.014463e+04
1.762620e+03,1.010692e+04
1.765513e+03,1.014213e+04
1.768406e+03,1.009508e+04
1.771298e+03,1.005949e+04
1.774191e+03,1.009071e+04
1.777084e+03,1.003815e+04
1.779977e+03,1.000586e+04
1.782869e+03,1.006795e+04
1.785762e+03,1.000778e+04
1.788655e+03,1.001881e+04
1.791547e+03,9.964745e+03
1.794440e+03,9.947849e+03
1.797333e+03,9.974228e+03
1.800225e+03,9.922385e+03
1.803118e+03,9.876979e+03
1.806011e+03,9.908530e+03
1.808904e+03,9.853546e+03
1.811796e+03,9.836331e+03
1.814689e+03,9.868145e+03
1.817582e+03,9.872307e+03
1.820474e+03,9.796812e+03
1.823367e+03,9.769062e+03
1.826260e+03,9.766870e+03
1.829152e+03,9.752728e+03
1.832045e+03,9.767984e+03
1.834938e+03,9.755452e+03
1.837831e+03,9.694021e+03
1.840723e+03,9.684441e+03
1.843616e+03,9.719597e+03
1.846509e+03,9.699715e+03
1.849401e+03,9.653677e+03
1.852294e+03,9.626854e+03
1.855187e+03,9.612868e+03
1.858079e+03,9.594991e+03
1.860972e+03,9.584843e+03
1.863865e+03,9.587923e+03
1.866758e+03,9.562405e+03
1.869650e+03,9.548099e+03
1.872543e+03,9.555085e+03
1.875436e+03,9.548207e+03
1.878328e+03,9.515566e+03
1.881221e+03,9.464265e+03
1.884114e+03,9.447678e+03
1.887006e+03,9.426646e+03
1.889899e+03,9.402297e+03
1.892792e+03,9.443454e+03
1.895685e+03,9.410128e+03
1.898577e+03,9.387303e+03
1.901470e+03,9.362693e+03
1.904363e+03,9.363497e+03
1.907255e+03,9.352738e+03
1.910148e+03,9.292750e+03
1.913041e+03,9.252960e+03
1.915933e+03,9.227540e+03
1.918826e+03,9.241170e+03
1.921719e+03,9.259577e+03
1.924612e+03,9.219351e+03
1.927504e+03,9.262335e+03
1.930397e+03,9.182564e+03
1.933290e+03,9.185426e+03
1.936182e+03,9.164829e+03
1.939075e+03,9.125576e+03
1.941968e+03,9.172887e+03
1.944860e+03,9.083037e+03
1.947753e+03,9.082916e+03
1.950646e+03,9.047142e+03
1.953539e+03,9.067378e+03
1.956431e+03,9.071540e+03
1.959324e+03,9.047387e+03
1.962217e+03,9.024838e+03
1.965109e+03,8.982507e+03
1.968002e+03,9.009499e+03
1.970895e+03,8.981973e+03
1.973787e+03,8.974731e+03
1.976680e+03,8.922218e+03
1.979573e+03,8.891731e+03
1.982466e+03,8.889217e+03
1.985358e+03,8.894543e+03
1.988251e+03,8.894426e+03
1.991144e+03,8.814503e+03
1.994036e+03,8.848823e+03
1.996929e+03,8.815359e+03
1.999822e+03,8.831815e+03
2.002714e+03,8.798581e+03
2.005607e+03,8.753679e+03
2.008500e+03,8.729166e+03
2.011393e+03,8.741465e+03
2.014285e+03,8.737974e+03
2.017178e+03,8.699969e+03
2.020071e+03,8.659022e+03
2.022963e+03,8.618799e+03
2.025856e+03,8.625150e+03
2.028749e+03,8.661985e+03
2.031641e+03,8.643911e+03
2.034534e+03,8.590572e+03
2.037427e+03,8.549296e+03
2.040320e+03,8.525983e+03
2.043212e+03,8.524729e+03
2.046105e+03,8.476619e+03
2.048998e+03,8.496256e+03
2.051890e+03,8.513752e+03
2.054783e+03,8.470135e+03
2.057676e+03,8.431436e+03
2.060568e+03,8.445326e+03
2.063461e+03,8.419925e+03
2.066354e+03,8.405619e+03
2.069247e+03,8.353087e+03
2.072139e+03,8.321759e+03
2.075032e+03,8.356212e+03
2.077925e+03,8.334415e+03
2.080817e+03,8.332417e+03
2.083710e+03,8.249876e+03
2.086603e+03,8.271496e+03
2.089496e+03,8.227271e+03
2.092388e+03,8.214890e+03
2.095281e+03,8.226767e+03
2.098174e+03,8.250041e+03
2.101066e+03,8.203749e+03
2.103959e+03,8.104922e+03
2.106852e+03,8.158170e+03
2.109744e+03,8.126542e+03
2.112637e+03,8.107540e+03
2.115530e+03,8.087870e+03
2.118422e+03,8.053654e+03
2.121315e+03,8.137986e+03
2.124208e+03,8.060492e+03
2.127101e+03,7.981240e+03
2.129993e+03,8.045205e+03
2.132886e+03,7.992553e+03
2.135779e+03,7.982907e+03
2.138671e+03,7.989733e+03
2.141564e+03,7.913681e+03
2.144457e+03,7.945472e+03
2.147350e+03,7.846275e+03
2.150242e+03,7.867716e+03
2.153135e+03,7.893260e+03
2.156028e+03,7.834913e+03
2.158920e+03,7.818373e+03
2.161813e+03,7.871724e+03
2.164706e+03,7.799021e+03
2.167598e+03,7.773376e+03
2.170491e+03,7.818307e+03
2.173384e+03,7.763995e+03
2.176277e+03,7.730762e+03
2.179169e+03,7.723569e+03
2.182062e+03,7.691818e+03
2.184955e+03,7.691130e+03
2.187847e+03,7.659234e+03
2.190740e+03,7.652317e+03
2.193633e+03,7.607609e+03
2.196525e+03,7.585271e+03
2.199418e+03,7.582180e+03
2.202311e+03,7.557875e+03
2.205204e+03,7.567060e+03
2.208096e+03,7.529697e+03
2.210989e+03,7.459596e+03
2.213882e+03,7.481463e+03
2.216774e+03,7.513558e+03
2.219667e+03,7.478901e+03
2.222560e+03,7.430347e+03
2.225452e+03,7.382635e+03
2.228345e+03,7.371256e+03
2.231238e+03,7.428908e+03
2.234131e+03,7.383621e+03
2.237023e+03,7.360795e+03
2.239916e+03,7.329833e+03
2.242809e+03,7.269474e+03
2.245701e+03,7.286124e+03
2.248594e+03,7.249497e+03
2.251487e+03,7.319079e+03
2.254379e+03,7.231600e+03
2.257272e+03,7.185976e+03
2.260165e+03,7.193956e+03
2.263058e+03,7.198053e+03
2.265950e+03,7.164437e+03
2.268843e+03,7.125281e+03
2.271736e+03,7.079644e+03
2.274628e+03,7.112032e+03
2.277521e+03,7.114515e+03
2.280414e+03,7.075454e+03
2.283306e+03,7.064303e+03
2.286199e+03,7.007174e+03
2.289092e+03,7.031062e+03
2.291985e+03,6.978703e+03
2.294877e+03,7.004756e+03
2.297770e+03,7.031455e+03
2.300663e+03,6.975475e+03
2.303555e+03,6.947194e+03
2.306448e+03,6.890707e+03
2.309341e+03,6.919615e+03
2.312233e+03,6.845815e+03
2.315126e+03,6.850809e+03
2.318019e+03,6.823240e+03
2.320912e+03,6.810227e+03
2.323804e+03,6.806379e+03
2.326697e+03,6.846312e+03
2.329590e+03,6.816076e+03
2.332482e+03,6.794364e+03
2.335375e+03,6.734759e+03
2.338268e+03,6.701239e+03
2.341160e+03,6.719716e+03
2.344053e+03,6.712442e+03
2.346946e+03,6.711142e+03
2.349839e+03,6.626286e+03
2.352731e+03,6.647884e+03
2.355624e+03,6.668546e+03
2.358517e+03,6.596635e+03
2.361409e+03,6.654402e+03
2.364302e+03,6.572839e+03
2.367195e+03,6.571096e+03
2.370087e+03,6.561585e+03
2.372980e+03,6.533258e+03
2.375873e+03,6.550701e+03
2.378766e+03,6.504024e+03
2.381658e+03,6.442883e+03
2.384551e+03,6.462094e+03
2.387444e+03,6.505300e+03
2.390336e+03,6.412113e+03
2.393229e+03,6.459709e+03
2.396122e+03,6.419135e+03
2.399014e+03,6.368957e+03
2.401907e+03,6.360833e+03
2.404800e+03,6.329406e+03
2.407693e+03,6.367580e+03
2.410585e+03,6.351641e+03
2.413478e+03,6.282641e+03
2.416371e+03,6.277549e+03
2.419263e+03,6.274321e+03
2.422156e+03,6.256305e+03
2.425049e+03,6.272678e+03
2.427941e+03,6.230251e+03
2.430834e+03,6.223808e+03
2.433727e+03,6.221491e+03
2.436620e+03,6.141979e+03
2.439512e+03,6.177867e+03
2.442405e+03,6.154058e+03
2.445298e+03,6.132467e+03
2.448190e+03,6.153052e+03
2.451083e+03,6.129090e+03
2.453976e+03,6.098193e+03
2.456868e+03,6.093834e+03
2.459761e+03,6.054184e+03
2.462654e+03,6.050114e+03
2.465547e+03,6.050073e+03
2.468439e+03,6.024006e+03
2.471332e+03,6.024688e+03
2.474225e+03,5.994804e+03
2.477117e+03,5.985960e+03
2.480010e+03,6.027773e+03
2.482903e+03,5.966509e+03
2.485795e+03,5.962409e+03
2.488688e+03,5.907348e+03
2.491581e+03,5.920758e+03
2.494474e+03,5.915515e+03
2.497366e+03,5.944542e+03
2.500259e+03,5.882110e+03
2.503152e+03,5.892124e+03
2.506044e+03,5.801068e+03
2.508937e+03,5.832834e+03
2.511830e+03,5.837818e+03
2.514722e+03,5.822470e+03
2.517615e+03,5.798552e+03
2.520508e+03,5.781593e+03
2.523401e+03,5.731403e+03
2.526293e+03,5.752833e+03
2.529186e+03,5.722223e+03
2.532079e+03,5.719422e+03
2.534971e+03,5.754004e+03
2.537864e+03,5.698350e+03
2.540757e+03,5.650352e+03
2.543649e+03,5.700479e+03
2.546542e+03,5.655006e+03
2.549435e+03,5.655899e+03
2.552328e+03,5.622482e+03
2.555220e+03,5.598578e+03
2.558113e+03,5.618785e+03
2.561006e+03,5.611542e+03
2.563898e+03,5.562037e+03
2.566791e+03,5.566282e+03
2.569684e+03,5.535048e+03
2.572576e+03,5.540322e+03
2.575469e+03,5.508892e+03
2.578362e+03,5.504304e+03
2.581255e+03,5.478055e+03
2.584147e+03,5.484663e+03
2.587040e+03,5.476337e+03
2.589933e+03,5.490733e+03
2.592825e+03,5.478338e+03
2.595718e+03,5.474556e+03
2.598611e+03,5.398283e+03
2.601503e+03,5.385101e+03
2.604396e+03,5.460482e+03
2.607289e+03,5.377329e+03
2.610182e+03,5.404871e+03
2.613074e+03,5.378262e+03
2.615967e+03,5.394051e+03
2.618860e+03,5.341987e+03
2.621752e+03,5.353839e+03
2.624645e+03,5.315784e+03
2.627538e+03,5.308577e+03
2.630430e+03,5.306679e+03
2.633323e+03,5.258703e+03
2.636216e+03,5.326471e+03
2.639109e+03,5.270429e+03
2.642001e+03,5.271667e+03
2.644894e+03,5.188078e+03
2.647787e+03,5.189055e+03
2.650679e+03,5.194648e+03
2.653572e+03,5.235818e+03
2.656465e+03,5.209666e+03
2.659357e+03,5.204278e+03
2.662250e+03,5.188305e+03
2.665143e+03,5.188493e+03
2.668036e+03,5.188763e+03
2.670928e+03,5.160633e+03
2.673821e+03,5.138839e+03
2.676714e+03,5.141944e+03
2.679606e+03,5.116960e+03
2.682499e+03,5.130372e+03
2.685392e+03,5.103147e+03
2.688284e+03,5.075097e+03
2.691177e+03,5.060175e+03
2.694070e+03,5.071898e+03
2.696963e+03,5.090801e+03
2.699855e+03,5.028644e+03
2.702748e+03,5.032781e+03
2.705641e+03,4.980011e+03
2.708533e+03,4.987097e+03
2.711426e+03,4.958846e+03
2.714319e+03,4.996164e+03
2.717211e+03,4.992020e+03
2.720104e+03,4.961787e+03
2.722997e+03,4.971244e+03
2.725890e+03,4.967899e+03
2.728782e+03,4.926082e+03
2.731675e+03,4.909815e+03
2.734568e+03,4.923904e+03
2.737460e+03,4.896944e+03
2.740353e+03,4.885879e+03
2.743246e+03,4.858833e+03
2.746138e+03,4.873375e+03
2.749031e+03,4.844988e+03
2.751924e+03,4.819241e+03
2.754817e+03,4.834130e+03
2.757709e+03,4.833542e+03
2.760602e+03,4.822760e+03
2.763495e+03,4.813883e+03
2.766387e+03,4.792459e+03
2.769280e+03,4.799671e+03
2.772173e+03,4.799385e+03
2.775065e+03,4.756907e+03
2.777958e+03,4.789345e+03
2.780851e+03,4.760451e+03
2.783744e+03,4.740307e+03
2.786636e+03,4.720961e+03
2.789529e+03,4.718458e+03
2.792422e+03,4.714465e+03
2.795314e+03,4.741751e+03
2.798207e+03,4.705933e+03
2.801100e+03,4.715138e+03
2.803992e+03,4.681471e+03
2.806885e+03,4.692336e+03
2.809778e+03,4.654693e+03
2.812671e+03,4.604932e+03
2.815563e+03,4.632424e+03
2.818456e+03,4.637123e+03
2.821349e+03,4.635438e+03
2.824241e+03,4.601614e+03
2.827134e+03,4.568697e+03
2.830027e+03,4.648018e+03
2.832919e+03,4.590481e+03
2.835812e+03,4.581750e+03
2.838705e+03,4.624542e+03
2.841598e+03,4.578663e+03
2.844490e+03,4.534352e+03
2.847383e+03,4.527564e+03
2.850276e+03,4.585125e+03
2.853168e+03,4.541898e+03
2.856061e+03,4.524136e+03
2.858954e+03,4.527791e+03
2.861846e+03,4.498502e+03
2.864739e+03,4.498668e+03
2.867632e+03,4.485128e+03
2.870525e+03,4.496097e+03
2.873417e+03,4.488522e+03
2.876310e+03,4.454553e+03
2.879203e+03,4.463643e+03
2.882095e+03,4.421706e+03
2.884988e+03,4.475132e+03
2.887881e+03,4.408155e+03
2.890773e+03,4.455912e+03
2.893666e+03,4.417602e+03
2.896559e+03,4.374708e+03
2.899452e+03,4.420572e+03
2.902344e+03,4.406580e+03
2.905237e+03,4.366693e+03
2.908130e+03,4.379200e+03
2.911022e+03,4.377148e+03
2.913915e+03,4.350141e+03
2.916808e+03,4.413272e+03
2.919700e+03,4.368608e+03
2.922593e+03,4.383536e+03
2.925486e+03,4.311880e+03
2.928379e+03,4.297630e+03
2.931271e+03,4.328538e+03
2.934164e+03,4.337674e+03
2.937057e+03,4.299844e+03
2.939949e+03,4.292333e+03
2.942842e+03,4.303468e+03
2.945735e+03,4.327560e+03
2.948627e+03,4.276434e+03
2.951520e+03,4.280970e+03
2.954413e+03,4.225823e+03
2.957306e+03,4.255684e+03
2.960198e+03,4.214011e+03
2.963091e+03,4.261320e+03
2.965984e+03,4.228462e+03
2.968876e+03,4.222779e+03
2.971769e+03,4.208009e+03
2.974662e+03,4.198600e+03
2.977554e+03,4.212108e+03
2.980447e+03,4.218060e+03
2.983340e+03,4.183968e+03
2.986233e+03,4.140132e+03
2.989125e+03,4.091035e+03
2.992018e+03,4.168958e+03
2.994911e+03,4.153676e+03
2.997803e+03,4.212018e+03
3.000696e+03,4.119840e+03
3.003589e+03,4.124132e+03
3.006481e+03,4.055284e+03
3.009374e+03,4.105044e+03
3.012267e+03,4.144034e+03
3.015160e+03,4.082074e+03
3.018052e+03,4.055092e+03
3.020945e+03,4.090114e+03
3.023838e+03,4.145794e+03
3.026730e+03,4.104478e+03
3.029623e+03,4.043076e+03
3.032516e+03,4.067642e+03
3.035408e+03,4.040063e+03
3.038301e+03,4.064103e+03
3.041194e+03,4.107458e+03
3.044087e+03,4.033884e+03
3.046979e+03,4.063883e+03
3.049872e+03,3.972881e+03
3.052765e+03,4.046899e+03
3.055657e+03,4.090090e+03
3.058550e+03,4.057215e+03
3.061443e+03,3.978064e+03
3.064335e+03,3.991802e+03
3.067228e+03,3.945856e+03
3.070121e+03,3.979588e+03
3.073014e+03,3.960770e+03
3.075906e+03,4.022491e+03
3.078799e+03,3.953866e+03
3.081692e+03,3.937860e+03
3.084584e+03,3.950868e+03
3.087477e+03,3.929261e+03
3.090370e+03,3.954648e+03
3.093262e+03,3.956706e+03
3.096155e+03,3.954662e+03
3.099048e+03,3.975428e+03
3.101941e+03,3.974323e+03
3.104833e+03,3.901972e+03
3.107726e+03,3.910807e+03
3.110619e+03,3.914101e+03
3.113511e+03,3.880598e+03
3.116404e+03,3.944116e+03
3.119297e+03,3.890258e+03
3.122189e+03,3.913196e+03
3.125082e+03,3.999319e+03
3.127975e+03,3.908626e+03
3.130868e+03,3.843518e+03
3.133760e+03,3.931047e+03
3.136653e+03,3.858703e+03
3.139546e+03,3.912582e+03
3.142438e+03,3.911969e+03
3.145331e+03,3.892242e+03
3.148224e+03,3.871425e+03
3.151116e+03,3.885438e+03
3.154009e+03,3.898849e+03
3.156902e+03,3.879537e+03
3.159795e+03,3.806688e+03
3.162687e+03,3.826099e+03
3.165580e+03,3.822171e+03
3.168473e+03,3.830573e+03
3.171365e+03,3.780111e+03
3.174258e+03,3.828963e+03
3.177151e+03,3.823018e+03
3.180043e+03,3.815110e+03
3.182936e+03,3.828176e+03
3.185829e+03,3.780211e+03
3.188722e+03,3.872039e+03
3.191614e+03,3.906469e+03
3.194507e+03,3.814502e+03
3.197400e+03,3.853694e+03
3.200292e+03,3.838961e+03
3.203185e+03,0.000000e+00
3.206078e+03,0.000000e+00
3.208970e+03,0.000000e+00
3.211863e+03,0.000000e+00
3.214756e+03,0.000000e+00
3.217649e+03,0.000000e+00
3.220541e+03,0.000000e+00
3.223434e+03,0.000000e+00
3.226327e+03,0.000000e+00
3.229219e+03,0.000000e+00
3.232112e+03,0.000000e+00
3.235005e+03,0.000000e+00
3.237897e+03,0.000000e+00
3.240790e+03,0.000000e+00
3.243683e+03,0.000000e+00
3.246576e+03,0.000000e+00
3.249468e+03,0.000000e+00
3.252361e+03,0.000000e+00
3.255254e+03,0.000000e+00
3.258146e+03,0.000000e+00
3.261039e+03,0.000000e+00
3.263932e+03,0.000000e+00
3.266824e+03,0.000000e+00
3.269717e+03,0.000000e+00
3.272610e+03,0.000000e+00
3.275503e+03,0.000000e+00
3.278395e+03,0.000000e+00
3.281288e+03,0.000000e+00
3.284181e+03,0.000000e+00
3.287073e+03,0.000000e+00
3.289966e+03,0.000000e+00
3.292859e+03,0.000000e+00
3.295751e+03,0.000000e+00
3.298644e+03,0.000000e+00
3.301537e+03,0.000000e+00
3.304430e+03,0.000000e+00
3.307322e+03,0.000000e+00
3.310215e+03,0.000000e+00
3.313108e+03,0.000000e+00
3.316000e+03,0.000000e+00
3.318893e+03,0.000000e+00
3.321786e+03,0.000000e+00
3.324678e+03,0.000000e+00
3.327571e+03,0.000000e+00
3.330464e+03,0.000000e+00
3.333357e+03,0.000000e+00
3.336249e+03,0.000000e+00
3.339142e+03,0.000000e+00
3.342035e+03,0.000000e+00
3.344927e+03,0.000000e+00
3.347820e+03,0.000000e+00
3.350713e+03,0.000000e+00
3.353605e+03,0.000000e+00
3.356498e+03,0.000000e+00
3.359391e+03,0.000000e+00
3.362284e+03,0.000000e+00
3.365176e+03,0.000000e+00
3.368069e+03,0.000000e+00
3.370962e+03,0.000000e+00
3.373854e+03,0.000000e+00
3.376747e+03,0.000000e+00
3.379640e+03,0.000000e+00
3.382532e+03,0.000000e+00
3.385425e+03,0.000000e+00
3.388318e+03,0.000000e+00
3.391211e+03,0.000000e+00
3.394103e+03,0.000000e+00
3.396996e+03,0.000000e+00
3.399889e+03,0.000000e+00
3.402781e+03,0.000000e+00
3.405674e+03,0.000000e+00
3.408567e+03,0.000000e+00
3.411459e+03,0.000000e+00
3.414352e+03,0.000000e+00
3.417245e+03,0.000000e+00
3.420138e+03,0.000000e+00
3.423030e+03,0.000000e+00
3.425923e+03,0.000000e+00
3.428816e+03,0.000000e+00
3.431708e+03,0.000000e+00
3.434601e+03,0.000000e+00
3.437494e+03,0.000000e+00
3.440386e+03,0.000000e+00
3.443279e+03,0.000000e+00
3.446172e+03,0.000000e+00
3.449065e+03,0.000000e+00
3.451957e+03,0.000000e+00
3.454850e+03,0.000000e+00
3.457743e+03,0.000000e+00
3.460635e+03,0.000000e+00
3.463528e+03,0.000000e+00
3.466421e+03,0.000000e+00
3.469313e+03,0.000000e+00
3.472206e+03,0.000000e+00
3.475099e+03,0.000000e+00
3.477992e+03,0.000000e+00
3.480884e+03,0.000000e+00
3.483777e+03,0.000000e+00
3.486670e+03,0.000000e+00
3.489563e+03,0.000000e+00
3.492455e+03,0.000000e+00
3.495348e+03,0.000000e+00
3.498240e+03,0.000000e+00
3.500169e+03,0.000000e+00