File: RAMAN_data/13112023_r1/blue fibre6.CSV
9.931763e+01,0.000000e+00
1.022103e+02,0.000000e+00
1.051030e+02,0.000000e+00
1.079957e+02,0.000000e+00
1.108884e+02,0.000000e+00
1.137811e+02,0.000000e+00
1.166738e+02,0.000000e+00
1.195665e+02,0.000000e+00
1.224592e+02,0.000000e+00
1.253519e+02,0.000000e+00
1.282446e+02,0.000000e+00
1.311373e+02,0.000000e+00
1.340300e+02,0.000000e+00
1.369227e+02,0.000000e+00
1.398154e+02,0.000000e+00
1.427081e+02,0.000000e+00
1.456008e+02,0.000000e+00
1.484935e+02,0.000000e+00
1.513862e+02,0.000000e+00
1.542789e+02,0.000000e+00
1.571716e+02,0.000000e+00
1.600643e+02,0.000000e+00
1.629570e+02,0.000000e+00
1.658497e+02,0.000000e+00
1.687424e+02,0.000000e+00
1.716351e+02,0.000000e+00
1.745278e+02,0.000000e+00
1.774205e+02,0.000000e+00
1.803132e+02,0.000000e+00
1.832059e+02,0.000000e+00
1.860986e+02,0.000000e+00
1.889913e+02,0.000000e+00
1.918840e+02,0.000000e+00
1.947767e+02,0.000000e+00
1.976694e+02,0.000000e+00
2.005621e+02,3.082743e+03
2.034548e+02,3.097786e+03
2.063475e+02,3.090408e+03
2.092402e+02,3.077030e+03
2.121329e+02,3.086716e+03
2.150256e+02,3.076555e+03
2.179183e+02,3.112615e+03
2.208110e+02,3.116706e+03
2.237037e+02,3.125653e+03
2.265964e+02,3.128347e+03
2.294892e+02,3.146666e+03
2.323819e+02,3.146281e+03
2.352746e+02,3.133756e+03
2.381673e+02,3.137034e+03
2.410600e+02,3.147642e+03
2.439527e+02,3.145895e+03
2.468454e+02,3.170465e+03
2.497381e+02,3.193086e+03
2.526308e+02,3.202272e+03
2.555235e+02,3.195122e+03
2.584161e+02,3.199980e+03
2.613088e+02,3.195457e+03
2.642015e+02,3.190007e+03
2.670942e+02,3.192827e+03
2.699869e+02,3.193468e+03
2.728796e+02,3.203101e+03
2.757723e+02,3.217425e+03
2.786650e+02,3.210362e+03
2.815577e+02,3.203861e+03
2.844504e+02,3.224590e+03
2.873431e+02,3.232276e+03
2.902358e+02,3.220104e+03
2.931285e+02,3.229683e+03
2.960212e+02,3.230206e+03
2.989139e+02,3.235242e+03
3.018066e+02,3.238795e+03
3.046993e+02,3.239225e+03
3.075920e+02,3.234311e+03
3.104847e+02,3.252115e+03
3.133774e+02,3.257832e+03
3.162701e+02,3.256493e+03
3.191628e+02,3.268460e+03
3.220555e+02,3.250520e+03
3.249482e+02,3.259383e+03
3.278409e+02,3.273126e+03
3.307336e+02,3.276478e+03
3.336263e+02,3.286435e+03
3.365190e+02,3.269864e+03
3.394117e+02,3.286305e+03
3.423044e+02,3.286847e+03
3.451971e+02,3.303406e+03
3.480898e+02,3.292074e+03
3.509825e+02,3.284574e+03
3.538752e+02,3.301578e+03
3.567680e+02,3.295377e+03
3.596607e+02,3.291976e+03
3.625534e+02,3.296544e+03
3.654461e+02,3.302597e+03
3.683388e+02,3.302311e+03
3.712315e+02,3.299135e+03
3.741242e+02,3.311867e+03
3.770169e+02,3.321737e+03
3.799096e+02,3.324813e+03
3.828023e+02,3.314692e+03
3.856950e+02,3.326018e+03
3.885877e+02,3.331757e+03
3.914804e+02,3.337212e+03
3.943731e+02,3.329242e+03
3.972658e+02,3.330987e+03
4.001585e+02,3.325621e+03
4.030512e+02,3.330696e+03
4.059439e+02,3.342641e+03
4.088366e+02,3.336239e+03
4.117293e+02,3.329438e+03
4.146220e+02,3.332979e+03
4.175147e+02,3.345034e+03
4.204074e+02,3.353371e+03
4.233001e+02,3.333916e+03
4.261928e+02,3.333091e+03
4.290855e+02,3.351874e+03
4.319782e+02,3.341378e+03
4.348709e+02,3.348177e+03
4.377636e+02,3.357523e+03
4.406563e+02,3.346210e+03
4.435490e+02,3.353666e+03
4.464417e+02,3.375825e+03
4.493344e+02,3.390835e+03
4.522271e+02,3.359063e+03
4.551198e+02,3.367882e+03
4.580125e+02,3.360115e+03
4.609052e+02,3.372579e+03
4.637979e+02,3.353945e+03
4.666906e+02,3.366289e+03
4.695833e+02,3.376428e+03
4.724760e+02,3.379359e+03
4.753687e+02,3.384190e+03
4.782614e+02,3.418961e+03
4.811541e+02,3.432801e+03
4.840468e+02,3.412737e+03
4.869395e+02,3.387895e+03
4.898322e+02,3.381656e+03
4.927249e+02,3.385998e+03
4.956176e+02,3.394583e+03
4.985103e+02,3.409659e+03
5.014030e+02,3.389442e+03
5.042957e+02,3.378345e+03
5.071884e+02,3.381833e+03
5.100811e+02,3.370136e+03
5.129738e+02,3.395471e+03
5.158665e+02,3.390021e+03
5.187592e+02,3.390576e+03
5.216519e+02,3.374895e+03
5.245446e+02,3.384331e+03
5.274373e+02,3.406398e+03
5.303300e+02,3.391410e+03
5.332227e+02,3.369452e+03
5.361154e+02,3.388810e+03
5.390081e+02,3.357125e+03
5.419008e+02,3.371067e+03
5.447935e+02,3.390359e+03
5.476862e+02,3.387487e+03
5.505789e+02,3.379742e+03
5.534716e+02,3.376687e+03
5.563643e+02,3.374874e+03
5.592570e+02,3.395675e+03
5.621497e+02,3.405387e+03
5.650424e+02,3.383706e+03
5.679351e+02,3.384830e+03
5.708278e+02,3.382162e+03
5.737205e+02,3.381169e+03
5.766132e+02,3.401721e+03
5.795059e+02,3.394813e+03
5.823986e+02,3.409802e+03
5.852913e+02,3.413489e+03
5.881840e+02,3.403881e+03
5.910767e+02,3.408422e+03
5.939694e+02,3.424478e+03
5.968621e+02,3.401513e+03
5.997548e+02,3.391767e+03
6.026475e+02,3.381982e+03
6.055402e+02,3.395048e+03
6.084329e+02,3.377801e+03
6.113256e+02,3.374303e+03
6.142183e+02,3.377742e+03
6.171110e+02,3.383714e+03
6.200037e+02,3.384950e+03
6.228964e+02,3.380653e+03
6.257891e+02,3.381470e+03
6.286818e+02,3.368645e+03
6.315745e+02,3.383656e+03
6.344672e+02,3.383038e+03
6.373599e+02,3.393629e+03
6.402526e+02,3.403274e+03
6.431453e+02,3.371478e+03
6.460380e+02,3.366051e+03
6.489307e+02,3.378327e+03
6.518234e+02,3.371845e+03
6.547161e+02,3.368926e+03
6.576088e+02,3.372836e+03
6.605015e+02,3.366541e+03
6.633942e+02,3.371044e+03
6.662869e+02,3.382767e+03
6.691796e+02,3.402867e+03
6.720723e+02,3.429834e+03
6.749650e+02,3.466609e+03
6.778577e+02,3.521731e+03
6.807504e+02,3.465432e+03
6.836431e+02,3.415926e+03
6.865358e+02,3.397638e+03
6.894285e+02,3.372011e+03
6.923212e+02,3.383365e+03
6.952139e+02,3.383280e+03
6.981066e+02,3.394061e+03
7.009993e+02,3.390878e+03
7.038920e+02,3.371299e+03
7.067847e+02,3.367958e+03
7.096774e+02,3.390308e+03
7.125701e+02,3.395125e+03
7.154628e+02,3.381414e+03
7.183555e+02,3.387721e+03
7.212482e+02,3.370138e+03
7.241409e+02,3.365386e+03
7.270336e+02,3.366160e+03
7.299263e+02,3.371498e+03
7.328190e+02,3.361422e+03
7.357117e+02,3.357455e+03
7.386044e+02,3.381676e+03
7.414971e+02,3.437664e+03
7.443898e+02,3.469086e+03
7.472825e+02,3.458706e+03
7.501752e+02,3.395745e+03
7.530679e+02,3.377686e+03
7.559606e+02,3.368808e+03
7.588533e+02,3.349843e+03
7.617460e+02,3.373903e+03
7.646387e+02,3.347525e+03
7.675314e+02,3.357325e+03
7.704241e+02,3.321278e+03
7.733168e+02,3.350711e+03
7.762095e+02,3.378976e+03
7.791022e+02,3.364669e+03
7.819949e+02,3.360083e+03
7.848876e+02,3.330704e+03
7.877803e+02,3.336168e+03
7.906730e+02,3.339870e+03
7.935657e+02,3.333606e+03
7.964584e+02,3.334146e+03
7.993511e+02,3.324551e+03
8.022438e+02,3.321652e+03
8.051365e+02,3.333158e+03
8.080292e+02,3.331068e+03
8.109219e+02,3.327298e+03
8.138146e+02,3.315536e+03
8.167073e+02,3.312625e+03
8.196000e+02,3.320095e+03
8.224927e+02,3.319033e+03
8.253854e+02,3.330378e+03
8.282781e+02,3.337696e+03
8.311708e+02,3.324215e+03
8.340635e+02,3.317325e+03
8.369562e+02,3.327786e+03
8.398489e+02,3.317676e+03
8.427416e+02,3.300091e+03
8.456343e+02,3.327887e+03
8.485270e+02,3.294209e+03
8.514197e+02,3.298452e+03
8.543124e+02,3.309113e+03
8.572051e+02,3.276223e+03
8.600978e+02,3.286819e+03
8.629905e+02,3.285492e+03
8.658832e+02,3.277246e+03
8.687759e+02,3.273833e+03
8.716686e+02,3.263740e+03
8.745613e+02,3.270056e+03
8.774540e+02,3.255033e+03
8.803467e+02,3.267629e+03
8.832394e+02,3.257863e+03
8.861321e+02,3.249015e+03
8.890248e+02,3.259066e+03
8.919175e+02,3.250564e+03
8.948102e+02,3.245160e+03
8.977029e+02,3.225327e+03
9.005956e+02,3.239941e+03
9.034883e+02,3.248430e+03
9.063810e+02,3.246234e+03
9.092737e+02,3.216487e+03
9.121664e+02,3.227907e+03
9.150591e+02,3.219324e+03
9.179518e+02,3.223651e+03
9.208445e+02,3.205114e+03
9.237372e+02,3.214987e+03
9.266299e+02,3.222604e+03
9.295226e+02,3.219565e+03
9.324153e+02,3.212931e+03
9.353080e+02,3.210435e+03
9.382007e+02,3.198219e+03
9.410934e+02,3.182557e+03
9.439861e+02,3.196156e+03
9.468788e+02,3.223747e+03
9.497715e+02,3.249974e+03
9.526642e+02,3.216632e+03
9.555569e+02,3.210711e+03
9.584496e+02,3.174741e+03
9.613423e+02,3.201926e+03
9.642350e+02,3.189324e+03
9.671277e+02,3.180243e+03
9.700204e+02,3.178234e+03
9.729131e+02,3.165976e+03
9.758058e+02,3.156465e+03
9.786985e+02,3.150181e+03
9.815912e+02,3.165086e+03
9.844839e+02,3.153255e+03
9.873766e+02,3.136344e+03
9.902693e+02,3.140290e+03
9.931620e+02,3.141914e+03
9.960547e+02,3.120385e+03
9.989474e+02,3.140417e+03
1.001840e+03,3.131685e+03
1.004733e+03,3.120879e+03
1.007626e+03,3.132938e+03
1.010518e+03,3.119491e+03
1.013411e+03,3.113092e+03
1.016304e+03,3.107911e+03
1.019196e+03,3.098830e+03
1.022089e+03,3.111137e+03
1.024982e+03,3.115270e+03
1.027875e+03,3.099531e+03
1.030767e+03,3.094465e+03
1.033660e+03,3.093486e+03
1.036552e+03,3.090333e+03
1.039445e+03,3.098159e+03
1.042338e+03,3.092411e+03
1.045231e+03,3.083853e+03
1.048123e+03,3.072634e+03
1.051016e+03,3.072254e+03
1.053909e+03,3.083089e+03
1.056802e+03,3.070527e+03
1.059694e+03,3.067313e+03
1.062587e+03,3.033658e+03
1.065479e+03,3.039406e+03
1.068372e+03,3.053013e+03
1.071265e+03,3.061850e+03
1.074158e+03,3.041769e+03
1.077050e+03,3.028969e+03
1.079943e+03,3.036499e+03
1.082836e+03,3.048989e+03
1.085729e+03,3.042035e+03
1.088621e+03,3.038926e+03
1.091514e+03,3.029829e+03
1.094406e+03,3.028494e+03
1.097299e+03,3.035650e+03
1.100192e+03,3.051979e+03
1.103085e+03,3.047441e+03
1.105977e+03,3.049940e+03
1.108870e+03,3.038648e+03
1.111763e+03,3.032621e+03
1.114656e+03,3.027760e+03
1.117548e+03,3.012449e+03
1.120441e+03,3.018043e+03
1.123334e+03,3.009042e+03
1.126226e+03,2.997350e+03
1.129119e+03,2.999206e+03
1.132012e+03,3.001826e+03
1.134904e+03,3.018536e+03
1.137797e+03,3.016975e+03
1.140690e+03,3.048080e+03
1.143583e+03,3.012480e+03
1.146475e+03,3.006483e+03
1.149368e+03,3.000484e+03
1.152261e+03,2.977840e+03
1.155153e+03,2.962944e+03
1.158046e+03,2.967750e+03
1.160939e+03,2.965168e+03
1.163831e+03,2.974715e+03
1.166724e+03,2.960758e+03
1.169617e+03,2.942721e+03
1.172510e+03,2.944530e+03
1.175402e+03,2.937760e+03
1.178295e+03,2.958471e+03
1.181188e+03,2.958013e+03
1.184080e+03,2.955560e+03
1.186973e+03,2.937145e+03
1.189866e+03,2.954948e+03
1.192758e+03,2.927406e+03
1.195651e+03,2.942335e+03
1.198544e+03,2.923596e+03
1.201437e+03,2.924635e+03
1.204329e+03,2.927055e+03
1.207222e+03,2.916004e+03
1.210115e+03,2.918223e+03
1.213007e+03,2.918566e+03
1.215900e+03,2.904479e+03
1.218793e+03,2.887913e+03
1.221685e+03,2.874806e+03
1.224578e+03,2.873309e+03
1.227471e+03,2.875989e+03
1.230364e+03,2.859829e+03
1.233256e+03,2.856101e+03
1.236149e+03,2.828746e+03
1.239042e+03,2.835235e+03
1.241934e+03,2.839473e+03
1.244827e+03,2.826225e+03
1.247720e+03,2.825953e+03
1.250612e+03,2.823418e+03
1.253505e+03,2.832501e+03
1.256398e+03,2.794544e+03
1.259291e+03,2.802711e+03
1.262183e+03,2.806344e+03
1.265076e+03,2.800440e+03
1.267969e+03,2.786981e+03
1.270861e+03,2.832013e+03
1.273754e+03,2.810785e+03
1.276647e+03,2.793508e+03
1.279539e+03,2.782130e+03
1.282432e+03,2.779891e+03
1.285325e+03,2.791495e+03
1.288218e+03,2.798206e+03
1.291110e+03,2.789803e+03
1.294003e+03,2.791065e+03
1.296896e+03,2.766167e+03
1.299788e+03,2.787899e+03
1.302681e+03,2.811096e+03
1.305574e+03,2.801295e+03
1.308466e+03,2.779203e+03
1.311359e+03,2.761716e+03
1.314252e+03,2.753239e+03
1.317145e+03,2.744234e+03
1.320037e+03,2.767719e+03
1.322930e+03,2.749066e+03
1.325823e+03,2.764046e+03
1.328715e+03,2.773594e+03
1.331608e+03,2.785556e+03
1.334501e+03,2.844801e+03
1.337393e+03,2.867461e+03
1.340286e+03,2.818043e+03
1.343179e+03,2.762212e+03
1.346072e+03,2.733909e+03
1.348964e+03,2.705945e+03
1.351857e+03,2.707684e+03
1.354750e+03,2.693746e+03
1.357642e+03,2.678172e+03
1.360535e+03,2.667423e+03
1.363428e+03,2.686510e+03
1.366320e+03,2.683753e+03
1.369213e+03,2.661590e+03
1.372106e+03,2.673531e+03
1.374999e+03,2.665858e+03
1.377891e+03,2.660618e+03
1.380784e+03,2.649013e+03
1.383677e+03,2.651260e+03
1.386569e+03,2.646467e+03
1.389462e+03,2.636581e+03
1.392355e+03,2.626534e+03
1.395247e+03,2.627061e+03
1.398140e+03,2.632620e+03
1.401033e+03,2.618763e+03
1.403926e+03,2.624380e+03
1.406818e+03,2.630130e+03
1.409711e+03,2.617875e+03
1.412604e+03,2.625044e+03
1.415496e+03,2.615600e+03
1.418389e+03,2.603079e+03
1.421282e+03,2.595178e+03
1.424174e+03,2.605536e+03
1.427067e+03,2.613279e+03
1.429960e+03,2.593754e+03
1.432853e+03,2.594171e+03
1.435745e+03,2.597965e+03
1.438638e+03,2.583793e+03
1.441531e+03,2.592963e+03
1.444423e+03,2.617523e+03
1.447316e+03,2.629270e+03
1.450209e+03,2.600902e+03
1.453101e+03,2.564485e+03
1.455994e+03,2.566539e+03
1.458887e+03,2.563783e+03
1.461780e+03,2.561308e+03
1.464672e+03,2.551851e+03
1.467565e+03,2.533936e+03
1.470458e+03,2.538057e+03
1.473350e+03,2.533317e+03
1.476243e+03,2.528887e+03
1.479136e+03,2.527949e+03
1.482028e+03,2.524901e+03
1.484921e+03,2.526536e+03
1.487814e+03,2.526961e+03
1.490707e+03,2.538295e+03
1.493599e+03,2.511698e+03
1.496492e+03,2.519630e+03
1.499385e+03,2.508090e+03
1.502277e+03,2.495890e+03
1.505170e+03,2.500242e+03
1.508063e+03,2.502737e+03
1.510955e+03,2.495302e+03
1.513848e+03,2.501785e+03
1.516741e+03,2.563337e+03
1.519634e+03,2.625820e+03
1.522526e+03,2.696633e+03
1.525419e+03,2.670529e+03
1.528312e+03,2.574265e+03
1.531204e+03,2.507305e+03
1.534097e+03,2.493851e+03
1.536990e+03,2.487943e+03
1.539882e+03,2.477509e+03
1.542775e+03,2.464387e+03
1.545668e+03,2.456609e+03
1.548561e+03,2.452664e+03
1.551453e+03,2.457861e+03
1.554346e+03,2.457171e+03
1.557239e+03,2.438402e+03
1.560131e+03,2.442901e+03
1.563024e+03,2.428927e+03
1.565917e+03,2.436917e+03
1.568809e+03,2.430209e+03
1.571702e+03,2.430558e+03
1.574595e+03,2.408258e+03
1.577488e+03,2.431946e+03
1.580380e+03,2.429181e+03
1.583273e+03,2.414734e+03
1.586166e+03,2.442621e+03
1.589058e+03,2.414925e+03
1.591951e+03,2.398364e+03
1.594844e+03,2.411121e+03
1.597736e+03,2.399576e+03
1.600629e+03,2.403449e+03
1.603522e+03,2.393878e+03
1.606415e+03,2.380594e+03
1.609307e+03,2.382715e+03
1.612200e+03,2.380681e+03
1.615093e+03,2.375981e+03
1.617985e+03,2.398281e+03
1.620878e+03,2.365829e+03
1.623771e+03,2.357548e+03
1.626663e+03,2.354043e+03
1.629556e+03,2.351387e+03
1.632449e+03,2.342927e+03
1.635342e+03,2.336858e+03
1.638234e+03,2.327192e+03
1.641127e+03,2.347046e+03
1.644020e+03,2.327384e+03
1.646912e+03,2.324323e+03
1.649805e+03,2.337738e+03
1.652698e+03,2.322625e+03
1.655590e+03,2.335132e+03
1.658483e+03,2.303938e+03
1.661376e+03,2.310836e+03
1.664269e+03,2.313177e+03
1.667161e+03,2.305238e+03
1.670054e+03,2.298805e+03
1.672947e+03,2.304693e+03
1.675839e+03,2.312492e+03
1.678732e+03,2.298278e+03
1.681625e+03,2.288715e+03
1.684517e+03,2.289862e+03
1.687410e+03,2.294143e+03
1.690303e+03,2.274406e+03
1.693196e+03,2.273233e+03
1.696088e+03,2.284677e+03
1.698981e+03,2.277792e+03
1.701874e+03,2.274407e+03
1.704766e+03,2.269912e+03
1.707659e+03,2.249959e+03
1.710552e+03,2.253861e+03
1.713444e+03,2.241889e+03
1.716337e+03,2.253632e+03
1.719230e+03,2.268777e+03
1.722123e+03,2.237000e+03
1.725015e+03,2.242845e+03
1.727908e+03,2.242914e+03
1.730801e+03,2.229157e+03
1.733693e+03,2.240742e+03
1.736586e+03,2.259385e+03
1.739479e+03,2.241442e+03
1.742371e+03,2.232683e+03
1.745264e+03,2.212432e+03
1.748157e+03,2.218536e+03
1.751050e+03,2.222357e+03
1.753942e+03,2.233296e+03
1.756835e+03,2.222946e+03
1.759728e+03,2.214309e+03
1.762620e+03,2.214606e+03
1.765513e+03,2.207010e+03
1.768406e+03,2.218815e+03
1.771298e+03,2.221519e+03
1.774191e+03,2.205762e+03
1.777084e+03,2.208867e+03
1.779977e+03,2.200550e+03
1.782869e+03,2.177414e+03
1.785762e+03,2.186872e+03
1.788655e+03,2.197393e+03
1.791547e+03,2.179138e+03
1.794440e+03,2.172848e+03
1.797333e+03,2.191177e+03
1.800225e+03,2.170128e+03
1.803118e+03,2.184480e+03
1.806011e+03,2.176271e+03
1.808904e+03,2.162076e+03
1.811796e+03,2.152619e+03
1.814689e+03,2.151008e+03
1.817582e+03,2.151910e+03
1.820474e+03,2.160759e+03
1.823367e+03,2.141647e+03
1.826260e+03,2.134523e+03
1.829152e+03,2.148119e+03
1.832045e+03,2.145952e+03
1.834938e+03,2.131568e+03
1.837831e+03,2.150367e+03
1.840723e+03,2.133056e+03
1.843616e+03,2.132292e+03
1.846509e+03,2.131099e+03
1.849401e+03,2.139769e+03
1.852294e+03,2.120415e+03
1.855187e+03,2.116539e+03
1.858079e+03,2.130252e+03
1.860972e+03,2.107485e+03
1.863865e+03,2.112914e+03
1.866758e+03,2.109580e+03
1.869650e+03,2.087301e+03
1.872543e+03,2.096164e+03
1.875436e+03,2.108999e+03
1.878328e+03,2.104564e+03
1.881221e+03,2.096056e+03
1.884114e+03,2.098636e+03
1.887006e+03,2.103421e+03
1.889899e+03,2.094249e+03
1.892792e+03,2.082109e+03
1.895685e+03,2.055521e+03
1.898577e+03,2.081534e+03
1.901470e+03,2.074252e+03
1.904363e+03,2.068892e+03
1.907255e+03,2.069875e+03
1.910148e+03,2.074947e+03
1.913041e+03,2.062920e+03
1.915933e+03,2.066082e+03
1.918826e+03,2.053424e+03
1.921719e+03,2.017844e+03
1.924612e+03,2.059477e+03
1.927504e+03,2.037343e+03
1.930397e+03,2.041162e+03
1.933290e+03,2.027637e+03
1.936182e+03,2.051241e+03
1.939075e+03,2.038630e+03
1.941968e+03,2.019637e+03
1.944860e+03,2.025490e+03
1.947753e+03,2.007762e+03
1.950646e+03,2.005009e+03
1.953539e+03,2.032394e+03
1.956431e+03,2.005786e+03
1.959324e+03,1.998617e+03
1.962217e+03,2.006979e+03
1.965109e+03,1.982119e+03
1.968002e+03,1.999615e+03
1.970895e+03,2.012980e+03
1.973787e+03,1.990506e+03
1.976680e+03,1.975364e+03
1.979573e+03,1.965783e+03
1.982466e+03,1.965572e+03
1.985358e+03,1.957799e+03
1.988251e+03,1.983295e+03
1.991144e+03,1.958184e+03
1.994036e+03,1.958609e+03
1.996929e+03,1.955826e+03
1.999822e+03,1.959906e+03
2.002714e+03,1.954920e+03
2.005607e+03,1.945091e+03
2.008500e+03,1.950638e+03
2.011393e+03,1.934707e+03
2.014285e+03,1.942188e+03
2.017178e+03,1.930909e+03
2.020071e+03,1.935779e+03
2.022963e+03,1.914574e+03
2.025856e+03,1.924407e+03
2.028749e+03,1.916456e+03
2.031641e+03,1.937277e+03
2.034534e+03,1.917348e+03
2.037427e+03,1.893665e+03
2.040320e+03,1.898791e+03
2.043212e+03,1.917014e+03
2.046105e+03,1.894023e+03
2.048998e+03,1.876553e+03
2.051890e+03,1.885897e+03
2.054783e+03,1.885378e+03
2.057676e+03,1.884171e+03
2.060568e+03,1.879952e+03
2.063461e+03,1.885881e+03
2.066354e+03,1.874716e+03
2.069247e+03,1.857608e+03
2.072139e+03,1.848060e+03
2.075032e+03,1.855318e+03
2.077925e+03,1.868113e+03
2.080817e+03,1.854215e+03
2.083710e+03,1.835276e+03
2.086603e+03,1.827516e+03
2.089496e+03,1.834586e+03
2.092388e+03,1.827085e+03
2.095281e+03,1.837375e+03
2.098174e+03,1.829515e+03
2.101066e+03,1.828253e+03
2.103959e+03,1.808581e+03
2.106852e+03,1.824267e+03
2.109744e+03,1.830816e+03
2.112637e+03,1.799414e+03
2.115530e+03,1.810681e+03
2.118422e+03,1.798760e+03
2.121315e+03,1.812123e+03
2.124208e+03,1.801670e+03
2.127101e+03,1.782399e+03
2.129993e+03,1.797118e+03
2.132886e+03,1.772677e+03
2.135779e+03,1.775914e+03
2.138671e+03,1.770362e+03
2.141564e+03,1.781383e+03
2.144457e+03,1.769891e+03
2.147350e+03,1.755434e+03
2.150242e+03,1.746432e+03
2.153135e+03,1.761072e+03
2.156028e+03,1.747262e+03
2.158920e+03,1.746962e+03
2.161813e+03,1.734661e+03
2.164706e+03,1.728254e+03
2.167598e+03,1.743607e+03
2.170491e+03,1.731198e+03
2.173384e+03,1.712013e+03
2.176277e+03,1.721224e+03
2.179169e+03,1.691632e+03
2.182062e+03,1.705981e+03
2.184955e+03,1.707707e+03
2.187847e+03,1.714376e+03
2.190740e+03,1.672905e+03
2.193633e+03,1.709954e+03
2.196525e+03,1.688457e+03
2.199418e+03,1.683714e+03
2.202311e+03,1.680493e+03
2.205204e+03,1.701831e+03
2.208096e+03,1.673160e+03
2.210989e+03,1.653499e+03
2.213882e+03,1.665710e+03
2.216774e+03,1.664816e+03
2.219667e+03,1.657152e+03
2.222560e+03,1.635541e+03
2.225452e+03,1.631001e+03
2.228345e+03,1.654351e+03
2.231238e+03,1.644064e+03
2.234131e+03,1.631585e+03
2.237023e+03,1.635449e+03
2.239916e+03,1.613112e+03
2.242809e+03,1.621153e+03
2.245701e+03,1.608235e+03
2.248594e+03,1.629518e+03
2.251487e+03,1.624333e+03
2.254379e+03,1.613159e+03
2.257272e+03,1.591520e+03
2.260165e+03,1.604262e+03
2.263058e+03,1.613188e+03
2.265950e+03,1.592259e+03
2.268843e+03,1.586324e+03
2.271736e+03,1.577584e+03
2.274628e+03,1.584775e+03
2.277521e+03,1.568712e+03
2.280414e+03,1.570788e+03
2.283306e+03,1.571093e+03
2.286199e+03,1.552056e+03
2.289092e+03,1.550172e+03
2.291985e+03,1.545271e+03
2.294877e+03,1.555954e+03
2.297770e+03,1.522753e+03
2.300663e+03,1.549509e+03
2.303555e+03,1.522257e+03
2.306448e+03,1.522102e+03
2.309341e+03,1.522628e+03
2.312233e+03,1.522080e+03
2.315126e+03,1.526508e+03
2.318019e+03,1.475826e+03
2.320912e+03,1.507900e+03
2.323804e+03,1.504410e+03
2.326697e+03,1.504964e+03
2.329590e+03,1.515625e+03
2.332482e+03,1.489171e+03
2.335375e+03,1.484027e+03
2.338268e+03,1.478678e+03
2.341160e+03,1.466796e+03
2.344053e+03,1.478700e+03
2.346946e+03,1.473687e+03
2.349839e+03,1.470759e+03
2.352731e+03,1.456456e+03
2.355624e+03,1.458538e+03
2.358517e+03,1.454804e+03
2.361409e+03,1.448396e+03
2.364302e+03,1.437075e+03
2.367195e+03,1.448578e+03
2.370087e+03,1.435979e+03
2.372980e+03,1.416406e+03
2.375873e+03,1.425027e+03
2.378766e+03,1.433422e+03
2.381658e+03,1.425272e+03
2.384551e+03,1.416869e+03
2.387444e+03,1.414482e+03
2.390336e+03,1.418045e+03
2.393229e+03,1.394164e+03
2.396122e+03,1.402452e+03
2.399014e+03,1.385880e+03
2.401907e+03,1.392820e+03
2.404800e+03,1.394951e+03
2.407693e+03,1.401379e+03
2.410585e+03,1.369488e+03
2.413478e+03,1.375917e+03
2.416371e+03,1.359077e+03
2.419263e+03,1.372262e+03
2.422156e+03,1.380785e+03
2.425049e+03,1.353386e+03
2.427941e+03,1.346109e+03
2.430834e+03,1.351739e+03
2.433727e+03,1.356341e+03
2.436620e+03,1.356490e+03
2.439512e+03,1.336018e+03
2.442405e+03,1.344599e+03
2.445298e+03,1.328233e+03
2.448190e+03,1.331747e+03
2.451083e+03,1.318208e+03
2.453976e+03,1.341445e+03
2.456868e+03,1.325722e+03
2.459761e+03,1.310757e+03
2.462654e+03,1.305722e+03
2.465547e+03,1.295193e+03
2.468439e+03,1.300903e+03
2.471332e+03,1.313213e+03
2.474225e+03,1.298580e+03
2.477117e+03,1.302880e+03
2.480010e+03,1.302734e+03
2.482903e+03,1.297168e+03
2.485795e+03,1.286721e+03
2.488688e+03,1.282786e+03
2.491581e+03,1.276731e+03
2.494474e+03,1.280131e+03
2.497366e+03,1.273869e+03
2.500259e+03,1.289776e+03
2.503152e+03,1.280084e+03
2.506044e+03,1.263581e+03
2.508937e+03,1.253391e+03
2.511830e+03,1.258732e+03
2.514722e+03,1.252878e+03
2.517615e+03,1.253272e+03
2.520508e+03,1.248042e+03
2.523401e+03,1.246625e+03
2.526293e+03,1.261527e+03
2.529186e+03,1.252888e+03
2.532079e+03,1.230755e+03
2.534971e+03,1.241420e+03
2.537864e+03,1.226906e+03
2.540757e+03,1.215143e+03
2.543649e+03,1.215751e+03
2.546542e+03,1.237088e+03
2.549435e+03,1.226806e+03
2.552328e+03,1.233399e+03
2.555220e+03,1.230236e+03
2.558113e+03,1.230235e+03
2.561006e+03,1.225154e+03
2.563898e+03,1.205172e+03
2.566791e+03,1.220724e+03
2.569684e+03,1.214950e+03
2.572576e+03,1.192639e+03
2.575469e+03,1.193983e+03
2.578362e+03,1.173181e+03
2.581255e+03,1.192223e+03
2.584147e+03,1.179599e+03
2.587040e+03,1.171940e+03
2.589933e+03,1.174440e+03
2.592825e+03,1.157147e+03
2.595718e+03,1.199615e+03
2.598611e+03,1.179901e+03
2.601503e+03,1.162876e+03
2.604396e+03,1.166115e+03
2.607289e+03,1.151293e+03
2.610182e+03,1.153374e+03
2.613074e+03,1.151814e+03
2.615967e+03,1.157484e+03
2.618860e+03,1.152103e+03
2.621752e+03,1.146744e+03
2.624645e+03,1.157855e+03
2.627538e+03,1.148527e+03
2.630430e+03,1.136338e+03
2.633323e+03,1.150728e+03
2.636216e+03,1.128922e+03
2.639109e+03,1.123593e+03
2.642001e+03,1.139632e+03
2.644894e+03,1.122952e+03
2.647787e+03,1.143500e+03
2.650679e+03,1.138413e+03
2.653572e+03,1.110539e+03
2.656465e+03,1.118144e+03
2.659357e+03,1.103004e+03
2.662250e+03,1.121480e+03
2.665143e+03,1.123594e+03
2.668036e+03,1.113926e+03
2.670928e+03,1.119115e+03
2.673821e+03,1.103839e+03
2.676714e+03,1.100103e+03
2.679606e+03,1.110573e+03
2.682499e+03,1.092225e+03
2.685392e+03,1.102910e+03
2.688284e+03,1.091705e+03
2.691177e+03,1.095260e+03
2.694070e+03,1.087484e+03
2.696963e+03,1.077617e+03
2.699855e+03,1.084138e+03
2.702748e+03,1.096190e+03
2.705641e+03,1.097108e+03
2.708533e+03,1.067422e+03
2.711426e+03,1.082279e+03
2.714319e+03,1.074477e+03
2.717211e+03,1.086752e+03
2.720104e+03,1.076672e+03
2.722997e+03,1.073344e+03
2.725890e+03,1.069371e+03
2.728782e+03,1.060949e+03
2.731675e+03,1.077892e+03
2.734568e+03,1.083572e+03
2.737460e+03,1.048969e+03
2.740353e+03,1.063692e+03
2.743246e+03,1.064616e+03
2.746138e+03,1.067789e+03
2.749031e+03,1.042562e+03
2.751924e+03,1.049133e+03
2.754817e+03,1.057441e+03
2.757709e+03,1.035634e+03
2.760602e+03,1.075867e+03
2.763495e+03,1.052519e+03
2.766387e+03,1.020292e+03
2.769280e+03,1.068834e+03
2.772173e+03,1.055616e+03
2.775065e+03,1.046698e+03
2.777958e+03,1.032405e+03
2.780851e+03,1.027921e+03
2.783744e+03,1.050050e+03
2.786636e+03,1.038789e+03
2.789529e+03,1.024082e+03
2.792422e+03,1.039735e+03
2.795314e+03,1.033059e+03
2.798207e+03,1.038436e+03
2.801100e+03,1.020496e+03
2.803992e+03,1.040145e+03
2.806885e+03,1.022106e+03
2.809778e+03,1.021510e+03
2.812671e+03,1.012824e+03
2.815563e+03,1.035909e+03
2.818456e+03,1.027564e+03
2.821349e+03,1.018996e+03
2.824241e+03,1.008001e+03
2.827134e+03,1.028098e+03
2.830027e+03,1.018976e+03
2.832919e+03,1.015444e+03
2.835812e+03,1.013305e+03
2.838705e+03,1.014333e+03
2.841598e+03,1.017446e+03
2.844490e+03,1.015979e+03
2.847383e+03,1.026269e+03
2.850276e+03,1.017796e+03
2.853168e+03,1.005042e+03
2.856061e+03,1.024307e+03
2.858954e+03,1.003954e+03
2.861846e+03,1.020131e+03
2.864739e+03,9.999141e+02
2.867632e+03,1.045764e+03
2.870525e+03,1.004850e+03
2.873417e+03,1.011929e+03
2.876310e+03,1.027490e+03
2.879203e+03,1.013150e+03
2.882095e+03,1.021990e+03
2.884988e+03,1.026325e+03
2.887881e+03,1.023138e+03
2.890773e+03,9.816969e+02
2.893666e+03,1.050161e+03
2.896559e+03,1.019267e+03
2.899452e+03,1.000920e+03
2.902344e+03,1.010593e+03
2.905237e+03,1.009388e+03
2.908130e+03,1.022366e+03
2.911022e+03,9.866190e+02
2.913915e+03,1.028904e+03
2.916808e+03,1.019285e+03
2.919700e+03,1.004081e+03
2.922593e+03,1.001954e+03
2.925486e+03,9.834017e+02
2.928379e+03,1.009769e+03
2.931271e+03,1.028499e+03
2.934164e+03,1.006464e+03
2.937057e+03,9.682914e+02
2.939949e+03,9.982758e+02
2.942842e+03,9.848738e+02
2.945735e+03,9.918334e+02
2.948627e+03,9.861594e+02
2.951520e+03,9.945247e+02
2.954413e+03,1.021941e+03
2.957306e+03,1.045784e+03
2.960198e+03,9.967841e+02
2.963091e+03,1.002780e+03
2.965984e+03,9.965037e+02
2.968876e+03,1.022520e+03
2.971769e+03,9.756874e+02
2.974662e+03,9.819658e+02
2.977554e+03,9.876668e+02
2.980447e+03,9.853222e+02
2.983340e+03,9.809330e+02
2.986233e+03,9.848683e+02
2.989125e+03,9.759369e+02
2.992018e+03,9.907387e+02
2.994911e+03,9.600804e+02
2.997803e+03,9.632953e+02
3.000696e+03,9.793436e+02
3.003589e+03,9.754290e+02
3.006481e+03,9.589273e+02
3.009374e+03,9.879290e+02
3.012267e+03,9.680906e+02
3.015160e+03,9.857745e+02
3.018052e+03,9.547383e+02
3.020945e+03,9.839456e+02
3.023838e+03,9.534777e+02
3.026730e+03,9.464440e+02
3.029623e+03,9.890269e+02
3.032516e+03,9.520801e+02
3.035408e+03,9.951448e+02
3.038301e+03,9.621758e+02
3.041194e+03,9.721855e+02
3.044087e+03,9.958174e+02
3.046979e+03,9.657912e+02
3.049872e+03,9.672590e+02
3.052765e+03,9.869656e+02
3.055657e+03,9.712631e+02
3.058550e+03,9.804450e+02
3.061443e+03,9.598625e+02
3.064335e+03,9.479366e+02
3.067228e+03,9.980605e+02
3.070121e+03,9.708035e+02
3.073014e+03,9.938060e+02
3.075906e+03,9.519944e+02
3.078799e+03,9.604628e+02
3.081692e+03,9.866379e+02
3.084584e+03,9.574024e+02
3.087477e+03,9.877095e+02
3.090370e+03,1.005418e+03
3.093262e+03,9.753350e+02
3.096155e+03,9.605757e+02
3.099048e+03,9.553393e+02
3.101941e+03,9.868106e+02
3.104833e+03,9.543958e+02
3.107726e+03,9.370726e+02
3.110619e+03,9.668333e+02
3.113511e+03,1.005862e+03
3.116404e+03,9.772656e+02
3.119297e+03,9.942399e+02
3.122189e+03,1.000126e+03
3.125082e+03,9.669971e+02
3.127975e+03,9.759662e+02
3.130868e+03,9.841439e+02
3.133760e+03,9.715549e+02
3.136653e+03,1.004282e+03
3.139546e+03,9.871127e+02
3.142438e+03,9.821658e+02
3.145331e+03,9.653351e+02
3.148224e+03,9.790245e+02
3.151116e+03,9.981768e+02
3.154009e+03,1.003303e+03
3.156902e+03,9.775992e+02
3.159795e+03,9.772693e+02
3.162687e+03,9.832090e+02
3.165580e+03,9.947056e+02
3.168473e+03,9.812159e+02
3.171365e+03,9.465343e+02
3.174258e+03,9.808021e+02
3.177151e+03,1.021438e+03
3.180043e+03,9.566161e+02
3.182936e+03,1.012523e+03
3.185829e+03,9.746562e+02
3.188722e+03,1.029712e+03
3.191614e+03,1.038334e+03
3.194507e+03,9.660882e+02
3.197400e+03,1.013031e+03
3.200292e+03,1.018050e+03
3.203185e+03,0.000000e+00
3.206078e+03,0.000000e+00
3.208970e+03,0.000000e+00
3.211863e+03,0.000000e+00
3.214756e+03,0.000000e+00
3.217649e+03,0.000000e+00
3.220541e+03,0.000000e+00
3.223434e+03,0.000000e+00
3.226327e+03,0.000000e+00
3.229219e+03,0.000000e+00
3.232112e+03,0.000000e+00
3.235005e+03,0.000000e+00
3.237897e+03,0.000000e+00
3.240790e+03,0.000000e+00
3.243683e+03,0.000000e+00
3.246576e+03,0.000000e+00
3.249468e+03,0.000000e+00
3.252361e+03,0.000000e+00
3.255254e+03,0.000000e+00
3.258146e+03,0.000000e+00
3.261039e+03,0.000000e+00
3.263932e+03,0.000000e+00
3.266824e+03,0.000000e+00
3.269717e+03,0.000000e+00
3.272610e+03,0.000000e+00
3.275503e+03,0.000000e+00
3.278395e+03,0.000000e+00
3.281288e+03,0.000000e+00
3.284181e+03,0.000000e+00
3.287073e+03,0.000000e+00
3.289966e+03,0.000000e+00
3.292859e+03,0.000000e+00
3.295751e+03,0.000000e+00
3.298644e+03,0.000000e+00
3.301537e+03,0.000000e+00
3.304430e+03,0.000000e+00
3.307322e+03,0.000000e+00
3.310215e+03,0.000000e+00
3.313108e+03,0.000000e+00
3.316000e+03,0.000000e+00
3.318893e+03,0.000000e+00
3.321786e+03,0.000000e+00
3.324678e+03,0.000000e+00
3.327571e+03,0.000000e+00
3.330464e+03,0.000000e+00
3.333357e+03,0.000000e+00
3.336249e+03,0.000000e+00
3.339142e+03,0.000000e+00
3.342035e+03,0.000000e+00
3.344927e+03,0.000000e+00
3.347820e+03,0.000000e+00
3.350713e+03,0.000000e+00
3.353605e+03,0.000000e+00
3.356498e+03,0.000000e+00
3.359391e+03,0.000000e+00
3.362284e+03,0.000000e+00
3.365176e+03,0.000000e+00
3.368069e+03,0.000000e+00
3.370962e+03,0.000000e+00
3.373854e+03,0.000000e+00
3.376747e+03,0.000000e+00
3.379640e+03,0.000000e+00
3.382532e+03,0.000000e+00
3.385425e+03,0.000000e+00
3.388318e+03,0.000000e+00
3.391211e+03,0.000000e+00
3.394103e+03,0.000000e+00
3.396996e+03,0.000000e+00
3.399889e+03,0.000000e+00
3.402781e+03,0.000000e+00
3.405674e+03,0.000000e+00
3.408567e+03,0.000000e+00
3.411459e+03,0.000000e+00
3.414352e+03,0.000000e+00
3.417245e+03,0.000000e+00
3.420138e+03,0.000000e+00
3.423030e+03,0.000000e+00
3.425923e+03,0.000000e+00
3.428816e+03,0.000000e+00
3.431708e+03,0.000000e+00
3.434601e+03,0.000000e+00
3.437494e+03,0.000000e+00
3.440386e+03,0.000000e+00
3.443279e+03,0.000000e+00
3.446172e+03,0.000000e+00
3.449065e+03,0.000000e+00
3.451957e+03,0.000000e+00
3.454850e+03,0.000000e+00
3.457743e+03,0.000000e+00
3.460635e+03,0.000000e+00
3.463528e+03,0.000000e+00
3.466421e+03,0.000000e+00
3.469313e+03,0.000000e+00
3.472206e+03,0.000000e+00
3.475099e+03,0.000000e+00
3.477992e+03,0.000000e+00
3.480884e+03,0.000000e+00
3.483777e+03,0.000000e+00
3.486670e+03,0.000000e+00
3.489563e+03,0.000000e+00
3.492455e+03,0.000000e+00
3.495348e+03,0.000000e+00
3.498240e+03,0.000000e+00
3.500169e+03,0.000000e+00