File: RAMAN_data/13112023_r1/blue fibre2.CSV
9.931763e+01,0.000000e+00
1.022103e+02,0.000000e+00
1.051030e+02,0.000000e+00
1.079957e+02,0.000000e+00
1.108884e+02,0.000000e+00
1.137811e+02,0.000000e+00
1.166738e+02,0.000000e+00
1.195665e+02,0.000000e+00
1.224592e+02,0.000000e+00
1.253519e+02,0.000000e+00
1.282446e+02,0.000000e+00
1.311373e+02,0.000000e+00
1.340300e+02,0.000000e+00
1.369227e+02,0.000000e+00
1.398154e+02,0.000000e+00
1.427081e+02,0.000000e+00
1.456008e+02,0.000000e+00
1.484935e+02,0.000000e+00
1.513862e+02,0.000000e+00
1.542789e+02,0.000000e+00
1.571716e+02,0.000000e+00
1.600643e+02,0.000000e+00
1.629570e+02,0.000000e+00
1.658497e+02,0.000000e+00
1.687424e+02,0.000000e+00
1.716351e+02,0.000000e+00
1.745278e+02,0.000000e+00
1.774205e+02,0.000000e+00
1.803132e+02,0.000000e+00
1.832059e+02,0.000000e+00
1.860986e+02,0.000000e+00
1.889913e+02,0.000000e+00
1.918840e+02,0.000000e+00
1.947767e+02,0.000000e+00
1.976694e+02,0.000000e+00
2.005621e+02,1.047981e+04
2.034548e+02,1.052034e+04
2.063475e+02,1.054905e+04
2.092402e+02,1.055023e+04
2.121329e+02,1.055114e+04
2.150256e+02,1.057994e+04
2.179183e+02,1.060919e+04
2.208110e+02,1.066058e+04
2.237037e+02,1.067718e+04
2.265964e+02,1.068749e+04
2.294892e+02,1.071674e+04
2.323819e+02,1.076485e+04
2.352746e+02,1.080180e+04
2.381673e+02,1.083688e+04
2.410600e+02,1.083374e+04
2.439527e+02,1.085114e+04
2.468454e+02,1.088743e+04
2.497381e+02,1.092293e+04
2.526308e+02,1.095972e+04
2.555235e+02,1.097477e+04
2.584161e+02,1.097703e+04
2.613088e+02,1.102015e+04
2.642015e+02,1.107444e+04
2.670942e+02,1.108804e+04
2.699869e+02,1.109620e+04
2.728796e+02,1.108008e+04
2.757723e+02,1.110038e+04
2.786650e+02,1.112165e+04
2.815577e+02,1.112872e+04
2.844504e+02,1.112197e+04
2.873431e+02,1.113097e+04
2.902358e+02,1.110997e+04
2.931285e+02,1.111966e+04
2.960212e+02,1.112855e+04
2.989139e+02,1.112784e+04
3.018066e+02,1.112731e+04
3.046993e+02,1.114510e+04
3.075920e+02,1.114450e+04
3.104847e+02,1.118134e+04
3.133774e+02,1.114329e+04
3.162701e+02,1.112827e+04
3.191628e+02,1.108787e+04
3.220555e+02,1.108871e+04
3.249482e+02,1.108266e+04
3.278409e+02,1.105377e+04
3.307336e+02,1.102316e+04
3.336263e+02,1.100884e+04
3.365190e+02,1.100695e+04
3.394117e+02,1.098245e+04
3.423044e+02,1.097172e+04
3.451971e+02,1.095673e+04
3.480898e+02,1.097386e+04
3.509825e+02,1.089668e+04
3.538752e+02,1.091268e+04
3.567680e+02,1.091148e+04
3.596607e+02,1.088974e+04
3.625534e+02,1.089302e+04
3.654461e+02,1.083586e+04
3.683388e+02,1.082381e+04
3.712315e+02,1.081177e+04
3.741242e+02,1.080674e+04
3.770169e+02,1.082351e+04
3.799096e+02,1.079674e+04
3.828023e+02,1.078664e+04
3.856950e+02,1.075504e+04
3.885877e+02,1.074956e+04
3.914804e+02,1.077000e+04
3.943731e+02,1.073560e+04
3.972658e+02,1.073057e+04
4.001585e+02,1.069048e+04
4.030512e+02,1.070867e+04
4.059439e+02,1.070582e+04
4.088366e+02,1.067489e+04
4.117293e+02,1.064715e+04
4.146220e+02,1.063990e+04
4.175147e+02,1.065578e+04
4.204074e+02,1.063540e+04
4.233001e+02,1.062127e+04
4.261928e+02,1.059824e+04
4.290855e+02,1.059218e+04
4.319782e+02,1.059735e+04
4.348709e+02,1.059305e+04
4.377636e+02,1.061342e+04
4.406563e+02,1.053912e+04
4.435490e+02,1.048461e+04
4.464417e+02,1.052370e+04
4.493344e+02,1.047515e+04
4.522271e+02,1.044784e+04
4.551198e+02,1.044130e+04
4.580125e+02,1.035654e+04
4.609052e+02,1.033595e+04
4.637979e+02,1.035228e+04
4.666906e+02,1.028604e+04
4.695833e+02,1.026067e+04
4.724760e+02,1.022225e+04
4.753687e+02,1.021942e+04
4.782614e+02,1.025652e+04
4.811541e+02,1.024858e+04
4.840468e+02,1.020277e+04
4.869395e+02,1.016996e+04
4.898322e+02,1.012431e+04
4.927249e+02,1.008196e+04
4.956176e+02,1.006784e+04
4.985103e+02,1.005551e+04
5.014030e+02,1.003675e+04
5.042957e+02,9.998392e+03
5.071884e+02,9.937985e+03
5.100811e+02,9.910417e+03
5.129738e+02,9.899412e+03
5.158665e+02,9.887142e+03
5.187592e+02,9.860060e+03
5.216519e+02,9.823750e+03
5.245446e+02,9.792300e+03
5.274373e+02,9.784721e+03
5.303300e+02,9.753420e+03
5.332227e+02,9.714584e+03
5.361154e+02,9.702784e+03
5.390081e+02,9.626369e+03
5.419008e+02,9.630019e+03
5.447935e+02,9.613411e+03
5.476862e+02,9.603479e+03
5.505789e+02,9.564471e+03
5.534716e+02,9.509712e+03
5.563643e+02,9.494024e+03
5.592570e+02,9.458534e+03
5.621497e+02,9.464927e+03
5.650424e+02,9.439728e+03
5.679351e+02,9.384311e+03
5.708278e+02,9.354015e+03
5.737205e+02,9.358796e+03
5.766132e+02,9.332292e+03
5.795059e+02,9.280907e+03
5.823986e+02,9.278093e+03
5.852913e+02,9.269641e+03
5.881840e+02,9.225243e+03
5.910767e+02,9.241037e+03
5.939694e+02,9.193411e+03
5.968621e+02,9.171456e+03
5.997548e+02,9.136837e+03
6.026475e+02,9.140880e+03
6.055402e+02,9.091420e+03
6.084329e+02,9.076715e+03
6.113256e+02,9.080897e+03
6.142183e+02,9.030521e+03
6.171110e+02,8.995891e+03
6.200037e+02,8.995167e+03
6.228964e+02,8.964900e+03
6.257891e+02,8.973419e+03
6.286818e+02,8.939325e+03
6.315745e+02,8.897811e+03
6.344672e+02,8.880034e+03
6.373599e+02,8.815296e+03
6.402526e+02,8.836007e+03
6.431453e+02,8.812333e+03
6.460380e+02,8.796717e+03
6.489307e+02,8.781493e+03
6.518234e+02,8.768699e+03
6.547161e+02,8.750441e+03
6.576088e+02,8.715537e+03
6.605015e+02,8.702671e+03
6.633942e+02,8.692240e+03
6.662869e+02,8.673494e+03
6.691796e+02,8.684527e+03
6.720723e+02,8.641006e+03
6.749650e+02,8.624123e+03
6.778577e+02,8.587511e+03
6.807504e+02,8.589119e+03
6.836431e+02,8.587283e+03
6.865358e+02,8.541712e+03
6.894285e+02,8.513746e+03
6.923212e+02,8.517855e+03
6.952139e+02,8.485306e+03
6.981066e+02,8.493225e+03
7.009993e+02,8.477492e+03
7.038920e+02,8.438493e+03
7.067847e+02,8.419113e+03
7.096774e+02,8.404818e+03
7.125701e+02,8.403255e+03
7.154628e+02,8.359843e+03
7.183555e+02,8.351146e+03
7.212482e+02,8.351429e+03
7.241409e+02,8.323745e+03
7.270336e+02,8.273691e+03
7.299263e+02,8.295557e+03
7.328190e+02,8.252906e+03
7.357117e+02,8.247380e+03
7.386044e+02,8.267404e+03
7.414971e+02,8.227851e+03
7.443898e+02,8.235813e+03
7.472825e+02,8.227465e+03
7.501752e+02,8.194576e+03
7.530679e+02,8.180940e+03
7.559606e+02,8.187128e+03
7.588533e+02,8.190628e+03
7.617460e+02,8.153806e+03
7.646387e+02,8.113408e+03
7.675314e+02,8.112367e+03
7.704241e+02,8.087510e+03
7.733168e+02,8.059697e+03
7.762095e+02,8.065684e+03
7.791022e+02,8.069520e+03
7.819949e+02,8.015447e+03
7.848876e+02,8.014671e+03
7.877803e+02,8.017829e+03
7.906730e+02,7.996011e+03
7.935657e+02,7.974464e+03
7.964584e+02,7.949314e+03
7.993511e+02,7.951411e+03
8.022438e+02,7.912962e+03
8.051365e+02,7.899670e+03
8.080292e+02,7.924862e+03
8.109219e+02,7.892377e+03
8.138146e+02,7.845372e+03
8.167073e+02,7.825985e+03
8.196000e+02,7.844615e+03
8.224927e+02,7.813915e+03
8.253854e+02,7.771778e+03
8.282781e+02,7.781326e+03
8.311708e+02,7.801036e+03
8.340635e+02,7.753763e+03
8.369562e+02,7.732583e+03
8.398489e+02,7.721435e+03
8.427416e+02,7.693345e+03
8.456343e+02,7.686872e+03
8.485270e+02,7.673626e+03
8.514197e+02,7.681200e+03
8.543124e+02,7.697958e+03
8.572051e+02,7.662791e+03
8.600978e+02,7.591024e+03
8.629905e+02,7.618383e+03
8.658832e+02,7.596174e+03
8.687759e+02,7.604095e+03
8.716686e+02,7.591277e+03
8.745613e+02,7.561735e+03
8.774540e+02,7.531584e+03
8.803467e+02,7.530387e+03
8.832394e+02,7.529189e+03
8.861321e+02,7.499809e+03
8.890248e+02,7.510835e+03
8.919175e+02,7.483732e+03
8.948102e+02,7.434945e+03
8.977029e+02,7.441254e+03
9.005956e+02,7.429889e+03
9.034883e+02,7.406694e+03
9.063810e+02,7.395675e+03
9.092737e+02,7.362947e+03
9.121664e+02,7.353658e+03
9.150591e+02,7.343904e+03
9.179518e+02,7.330597e+03
9.208445e+02,7.281283e+03
9.237372e+02,7.256750e+03
9.266299e+02,7.249768e+03
9.295226e+02,7.240187e+03
9.324153e+02,7.251435e+03
9.353080e+02,7.234654e+03
9.382007e+02,7.187206e+03
9.410934e+02,7.156718e+03
9.439861e+02,7.161369e+03
9.468788e+02,7.168820e+03
9.497715e+02,7.140034e+03
9.526642e+02,7.109499e+03
9.555569e+02,7.126335e+03
9.584496e+02,7.091247e+03
9.613423e+02,7.098911e+03
9.642350e+02,7.078719e+03
9.671277e+02,7.035078e+03
9.700204e+02,7.043404e+03
9.729131e+02,6.995174e+03
9.758058e+02,7.023545e+03
9.786985e+02,7.023257e+03
9.815912e+02,6.955695e+03
9.844839e+02,6.959416e+03
9.873766e+02,6.924097e+03
9.902693e+02,6.929315e+03
9.931620e+02,6.915521e+03
9.960547e+02,6.939180e+03
9.989474e+02,6.887124e+03
1.001840e+03,6.862359e+03
1.004733e+03,6.860640e+03
1.007626e+03,6.850127e+03
1.010518e+03,6.826755e+03
1.013411e+03,6.819805e+03
1.016304e+03,6.783841e+03
1.019196e+03,6.768972e+03
1.022089e+03,6.777729e+03
1.024982e+03,6.761310e+03
1.027875e+03,6.720152e+03
1.030767e+03,6.717180e+03
1.033660e+03,6.689150e+03
1.036552e+03,6.661736e+03
1.039445e+03,6.706344e+03
1.042338e+03,6.651381e+03
1.045231e+03,6.630812e+03
1.048123e+03,6.607521e+03
1.051016e+03,6.581080e+03
1.053909e+03,6.598104e+03
1.056802e+03,6.573756e+03
1.059694e+03,6.562736e+03
1.062587e+03,6.523047e+03
1.065479e+03,6.509488e+03
1.068372e+03,6.495145e+03
1.071265e+03,6.483310e+03
1.074158e+03,6.506843e+03
1.077050e+03,6.453619e+03
1.079943e+03,6.420485e+03
1.082836e+03,6.431994e+03
1.085729e+03,6.427662e+03
1.088621e+03,6.433138e+03
1.091514e+03,6.390810e+03
1.094406e+03,6.354711e+03
1.097299e+03,6.354025e+03
1.100192e+03,6.352673e+03
1.103085e+03,6.327888e+03
1.105977e+03,6.300990e+03
1.108870e+03,6.283278e+03
1.111763e+03,6.254580e+03
1.114656e+03,6.251854e+03
1.117548e+03,6.250762e+03
1.120441e+03,6.230097e+03
1.123334e+03,6.216899e+03
1.126226e+03,6.181210e+03
1.129119e+03,6.175174e+03
1.132012e+03,6.176892e+03
1.134904e+03,6.133126e+03
1.137797e+03,6.104958e+03
1.140690e+03,6.089241e+03
1.143583e+03,6.077231e+03
1.146475e+03,6.058444e+03
1.149368e+03,6.042445e+03
1.152261e+03,6.046115e+03
1.155153e+03,6.034661e+03
1.158046e+03,5.995112e+03
1.160939e+03,5.964625e+03
1.163831e+03,5.991284e+03
1.166724e+03,5.987859e+03
1.169617e+03,5.941553e+03
1.172510e+03,5.921635e+03
1.175402e+03,5.919047e+03
1.178295e+03,5.919474e+03
1.181188e+03,5.912783e+03
1.184080e+03,5.877148e+03
1.186973e+03,5.865699e+03
1.189866e+03,5.851539e+03
1.192758e+03,5.830295e+03
1.195651e+03,5.823619e+03
1.198544e+03,5.828700e+03
1.201437e+03,5.774467e+03
1.204329e+03,5.784239e+03
1.207222e+03,5.754729e+03
1.210115e+03,5.765969e+03
1.213007e+03,5.764932e+03
1.215900e+03,5.739586e+03
1.218793e+03,5.714372e+03
1.221685e+03,5.724250e+03
1.224578e+03,5.723691e+03
1.227471e+03,5.697044e+03
1.230364e+03,5.685103e+03
1.233256e+03,5.664125e+03
1.236149e+03,5.620648e+03
1.239042e+03,5.628257e+03
1.241934e+03,5.638063e+03
1.244827e+03,5.624096e+03
1.247720e+03,5.582154e+03
1.250612e+03,5.563399e+03
1.253505e+03,5.560282e+03
1.256398e+03,5.533217e+03
1.259291e+03,5.515700e+03
1.262183e+03,5.496203e+03
1.265076e+03,5.492252e+03
1.267969e+03,5.479790e+03
1.270861e+03,5.466950e+03
1.273754e+03,5.464338e+03
1.276647e+03,5.451124e+03
1.279539e+03,5.415382e+03
1.282432e+03,5.384386e+03
1.285325e+03,5.389459e+03
1.288218e+03,5.370666e+03
1.291110e+03,5.356157e+03
1.294003e+03,5.324368e+03
1.296896e+03,5.340553e+03
1.299788e+03,5.333560e+03
1.302681e+03,5.333407e+03
1.305574e+03,5.333619e+03
1.308466e+03,5.324952e+03
1.311359e+03,5.320237e+03
1.314252e+03,5.304885e+03
1.317145e+03,5.303553e+03
1.320037e+03,5.292354e+03
1.322930e+03,5.284750e+03
1.325823e+03,5.265096e+03
1.328715e+03,5.253737e+03
1.331608e+03,5.254099e+03
1.334501e+03,5.240448e+03
1.337393e+03,5.218531e+03
1.340286e+03,5.203110e+03
1.343179e+03,5.179367e+03
1.346072e+03,5.170680e+03
1.348964e+03,5.168780e+03
1.351857e+03,5.178466e+03
1.354750e+03,5.153925e+03
1.357642e+03,5.128852e+03
1.360535e+03,5.095200e+03
1.363428e+03,5.089909e+03
1.366320e+03,5.092055e+03
1.369213e+03,5.081091e+03
1.372106e+03,5.054947e+03
1.374999e+03,5.030315e+03
1.377891e+03,5.005854e+03
1.380784e+03,5.001504e+03
1.383677e+03,4.982411e+03
1.386569e+03,4.960800e+03
1.389462e+03,4.943548e+03
1.392355e+03,4.947731e+03
1.395247e+03,4.935978e+03
1.398140e+03,4.950974e+03
1.401033e+03,4.904979e+03
1.403926e+03,4.924201e+03
1.406818e+03,4.887240e+03
1.409711e+03,4.862618e+03
1.412604e+03,4.870575e+03
1.415496e+03,4.874302e+03
1.418389e+03,4.826693e+03
1.421282e+03,4.815253e+03
1.424174e+03,4.817921e+03
1.427067e+03,4.797224e+03
1.429960e+03,4.782691e+03
1.432853e+03,4.785370e+03
1.435745e+03,4.775833e+03
1.438638e+03,4.758756e+03
1.441531e+03,4.739487e+03
1.444423e+03,4.720218e+03
1.447316e+03,4.722288e+03
1.450209e+03,4.700654e+03
1.453101e+03,4.684833e+03
1.455994e+03,4.688203e+03
1.458887e+03,4.673520e+03
1.461780e+03,4.655284e+03
1.464672e+03,4.664665e+03
1.467565e+03,4.641302e+03
1.470458e+03,4.606694e+03
1.473350e+03,4.607239e+03
1.476243e+03,4.594481e+03
1.479136e+03,4.595686e+03
1.482028e+03,4.578331e+03
1.484921e+03,4.566581e+03
1.487814e+03,4.562405e+03
1.490707e+03,4.545708e+03
1.493599e+03,4.542310e+03
1.496492e+03,4.512707e+03
1.499385e+03,4.511783e+03
1.502277e+03,4.507174e+03
1.505170e+03,4.477944e+03
1.508063e+03,4.489132e+03
1.510955e+03,4.480959e+03
1.513848e+03,4.459921e+03
1.516741e+03,4.471856e+03
1.519634e+03,4.418046e+03
1.522526e+03,4.429805e+03
1.525419e+03,4.419158e+03
1.528312e+03,4.395453e+03
1.531204e+03,4.378289e+03
1.534097e+03,4.392695e+03
1.536990e+03,4.383456e+03
1.539882e+03,4.374229e+03
1.542775e+03,4.354804e+03
1.545668e+03,4.336274e+03
1.548561e+03,4.347049e+03
1.551453e+03,4.322349e+03
1.554346e+03,4.340219e+03
1.557239e+03,4.322220e+03
1.560131e+03,4.327152e+03
1.563024e+03,4.304871e+03
1.565917e+03,4.295307e+03
1.568809e+03,4.293899e+03
1.571702e+03,4.295986e+03
1.574595e+03,4.266311e+03
1.577488e+03,4.254686e+03
1.580380e+03,4.242219e+03
1.583273e+03,4.258426e+03
1.586166e+03,4.238936e+03
1.589058e+03,4.221274e+03
1.591951e+03,4.220449e+03
1.594844e+03,4.216963e+03
1.597736e+03,4.203952e+03
1.600629e+03,4.200886e+03
1.603522e+03,4.185688e+03
1.606415e+03,4.167042e+03
1.609307e+03,4.163324e+03
1.612200e+03,4.147087e+03
1.615093e+03,4.142150e+03
1.617985e+03,4.134795e+03
1.620878e+03,4.104694e+03
1.623771e+03,4.094161e+03
1.626663e+03,4.102803e+03
1.629556e+03,4.096400e+03
1.632449e+03,4.083611e+03
1.635342e+03,4.071873e+03
1.638234e+03,4.069612e+03
1.641127e+03,4.060842e+03
1.644020e+03,4.030736e+03
1.646912e+03,4.017093e+03
1.649805e+03,4.000070e+03
1.652698e+03,3.993166e+03
1.655590e+03,3.979696e+03
1.658483e+03,3.981321e+03
1.661376e+03,3.953867e+03
1.664269e+03,3.951239e+03
1.667161e+03,3.959238e+03
1.670054e+03,3.942712e+03
1.672947e+03,3.922276e+03
1.675839e+03,3.918605e+03
1.678732e+03,3.912805e+03
1.681625e+03,3.901962e+03
1.684517e+03,3.881866e+03
1.687410e+03,3.871947e+03
1.690303e+03,3.869136e+03
1.693196e+03,3.878714e+03
1.696088e+03,3.861063e+03
1.698981e+03,3.824837e+03
1.701874e+03,3.816238e+03
1.704766e+03,3.837449e+03
1.707659e+03,3.820853e+03
1.710552e+03,3.806987e+03
1.713444e+03,3.796693e+03
1.716337e+03,3.769491e+03
1.719230e+03,3.770300e+03
1.722123e+03,3.764192e+03
1.725015e+03,3.775790e+03
1.727908e+03,3.728530e+03
1.730801e+03,3.738354e+03
1.733693e+03,3.720480e+03
1.736586e+03,3.726068e+03
1.739479e+03,3.709592e+03
1.742371e+03,3.677208e+03
1.745264e+03,3.702094e+03
1.748157e+03,3.659698e+03
1.751050e+03,3.668785e+03
1.753942e+03,3.654666e+03
1.756835e+03,3.647801e+03
1.759728e+03,3.635598e+03
1.762620e+03,3.627686e+03
1.765513e+03,3.618953e+03
1.768406e+03,3.613386e+03
1.771298e+03,3.622072e+03
1.774191e+03,3.611928e+03
1.777084e+03,3.574747e+03
1.779977e+03,3.602459e+03
1.782869e+03,3.587845e+03
1.785762e+03,3.567878e+03
1.788655e+03,3.583454e+03
1.791547e+03,3.550807e+03
1.794440e+03,3.537934e+03
1.797333e+03,3.559657e+03
1.800225e+03,3.530530e+03
1.803118e+03,3.513281e+03
1.806011e+03,3.507344e+03
1.808904e+03,3.483305e+03
1.811796e+03,3.504823e+03
1.814689e+03,3.493680e+03
1.817582e+03,3.501985e+03
1.820474e+03,3.451710e+03
1.823367e+03,3.444847e+03
1.826260e+03,3.455926e+03
1.829152e+03,3.436177e+03
1.832045e+03,3.434278e+03
1.834938e+03,3.424071e+03
1.837831e+03,3.402386e+03
1.840723e+03,3.407420e+03
1.843616e+03,3.405936e+03
1.846509e+03,3.394164e+03
1.849401e+03,3.390351e+03
1.852294e+03,3.361387e+03
1.855187e+03,3.377151e+03
1.858079e+03,3.377804e+03
1.860972e+03,3.342180e+03
1.863865e+03,3.334690e+03
1.866758e+03,3.325638e+03
1.869650e+03,3.307940e+03
1.872543e+03,3.281590e+03
1.875436e+03,3.302015e+03
1.878328e+03,3.285074e+03
1.881221e+03,3.272327e+03
1.884114e+03,3.257305e+03
1.887006e+03,3.272887e+03
1.889899e+03,3.235615e+03
1.892792e+03,3.250694e+03
1.895685e+03,3.244540e+03
1.898577e+03,3.225953e+03
1.901470e+03,3.231836e+03
1.904363e+03,3.228821e+03
1.907255e+03,3.197548e+03
1.910148e+03,3.192489e+03
1.913041e+03,3.171664e+03
1.915933e+03,3.186677e+03
1.918826e+03,3.186438e+03
1.921719e+03,3.182203e+03
1.924612e+03,3.169406e+03
1.927504e+03,3.165176e+03
1.930397e+03,3.127599e+03
1.933290e+03,3.143672e+03
1.936182e+03,3.125408e+03
1.939075e+03,3.139646e+03
1.941968e+03,3.092915e+03
1.944860e+03,3.097431e+03
1.947753e+03,3.100864e+03
1.950646e+03,3.094302e+03
1.953539e+03,3.070676e+03
1.956431e+03,3.085517e+03
1.959324e+03,3.059673e+03
1.962217e+03,3.059404e+03
1.965109e+03,3.048644e+03
1.968002e+03,3.065714e+03
1.970895e+03,3.043099e+03
1.973787e+03,3.040278e+03
1.976680e+03,3.033922e+03
1.979573e+03,2.999940e+03
1.982466e+03,3.027536e+03
1.985358e+03,3.012157e+03
1.988251e+03,3.000312e+03
1.991144e+03,2.996319e+03
1.994036e+03,2.970286e+03
1.996929e+03,2.984592e+03
1.999822e+03,2.969010e+03
2.002714e+03,2.951087e+03
2.005607e+03,2.950840e+03
2.008500e+03,2.946729e+03
2.011393e+03,2.932067e+03
2.014285e+03,2.921890e+03
2.017178e+03,2.900079e+03
2.020071e+03,2.892246e+03
2.022963e+03,2.920876e+03
2.025856e+03,2.884729e+03
2.028749e+03,2.870412e+03
2.031641e+03,2.858825e+03
2.034534e+03,2.842626e+03
2.037427e+03,2.852377e+03
2.040320e+03,2.882153e+03
2.043212e+03,2.847007e+03
2.046105e+03,2.861212e+03
2.048998e+03,2.829320e+03
2.051890e+03,2.813151e+03
2.054783e+03,2.805659e+03
2.057676e+03,2.809320e+03
2.060568e+03,2.809558e+03
2.063461e+03,2.794317e+03
2.066354e+03,2.805583e+03
2.069247e+03,2.781411e+03
2.072139e+03,2.747429e+03
2.075032e+03,2.764215e+03
2.077925e+03,2.768429e+03
2.080817e+03,2.747992e+03
2.083710e+03,2.725697e+03
2.086603e+03,2.725989e+03
2.089496e+03,2.719062e+03
2.092388e+03,2.692828e+03
2.095281e+03,2.713479e+03
2.098174e+03,2.723111e+03
2.101066e+03,2.689125e+03
2.103959e+03,2.684594e+03
2.106852e+03,2.675396e+03
2.109744e+03,2.698506e+03
2.112637e+03,2.674893e+03
2.115530e+03,2.643240e+03
2.118422e+03,2.652157e+03
2.121315e+03,2.647439e+03
2.124208e+03,2.643891e+03
2.127101e+03,2.632621e+03
2.129993e+03,2.625131e+03
2.132886e+03,2.612778e+03
2.135779e+03,2.613554e+03
2.138671e+03,2.611393e+03
2.141564e+03,2.590957e+03
2.144457e+03,2.602207e+03
2.147350e+03,2.566758e+03
2.150242e+03,2.565681e+03
2.153135e+03,2.566408e+03
2.156028e+03,2.549026e+03
2.158920e+03,2.556061e+03
2.161813e+03,2.547710e+03
2.164706e+03,2.569713e+03
2.167598e+03,2.518637e+03
2.170491e+03,2.539317e+03
2.173384e+03,2.524040e+03
2.176277e+03,2.513425e+03
2.179169e+03,2.488172e+03
2.182062e+03,2.512174e+03
2.184955e+03,2.481822e+03
2.187847e+03,2.485688e+03
2.190740e+03,2.450325e+03
2.193633e+03,2.475199e+03
2.196525e+03,2.455280e+03
2.199418e+03,2.472341e+03
2.202311e+03,2.437808e+03
2.205204e+03,2.451671e+03
2.208096e+03,2.437252e+03
2.210989e+03,2.392353e+03
2.213882e+03,2.428139e+03
2.216774e+03,2.442096e+03
2.219667e+03,2.402608e+03
2.222560e+03,2.403999e+03
2.225452e+03,2.375300e+03
2.228345e+03,2.388430e+03
2.231238e+03,2.391145e+03
2.234131e+03,2.381666e+03
2.237023e+03,2.365442e+03
2.239916e+03,2.332857e+03
2.242809e+03,2.339828e+03
2.245701e+03,2.356776e+03
2.248594e+03,2.336156e+03
2.251487e+03,2.348516e+03
2.254379e+03,2.325922e+03
2.257272e+03,2.316500e+03
2.260165e+03,2.301186e+03
2.263058e+03,2.322552e+03
2.265950e+03,2.310802e+03
2.268843e+03,2.277020e+03
2.271736e+03,2.287958e+03
2.274628e+03,2.290795e+03
2.277521e+03,2.273888e+03
2.280414e+03,2.276935e+03
2.283306e+03,2.274000e+03
2.286199e+03,2.263778e+03
2.289092e+03,2.240501e+03
2.291985e+03,2.235241e+03
2.294877e+03,2.244370e+03
2.297770e+03,2.252638e+03
2.300663e+03,2.236940e+03
2.303555e+03,2.218491e+03
2.306448e+03,2.212889e+03
2.309341e+03,2.201980e+03
2.312233e+03,2.189677e+03
2.315126e+03,2.203427e+03
2.318019e+03,2.157727e+03
2.320912e+03,2.177485e+03
2.323804e+03,2.193153e+03
2.326697e+03,2.172020e+03
2.329590e+03,2.183167e+03
2.332482e+03,2.149370e+03
2.335375e+03,2.157545e+03
2.338268e+03,2.137077e+03
2.341160e+03,2.124064e+03
2.344053e+03,2.145463e+03
2.346946e+03,2.142514e+03
2.349839e+03,2.128115e+03
2.352731e+03,2.095504e+03
2.355624e+03,2.098257e+03
2.358517e+03,2.103470e+03
2.361409e+03,2.115917e+03
2.364302e+03,2.085513e+03
2.367195e+03,2.094453e+03
2.370087e+03,2.083367e+03
2.372980e+03,2.091819e+03
2.375873e+03,2.054991e+03
2.378766e+03,2.059833e+03
2.381658e+03,2.052031e+03
2.384551e+03,2.061520e+03
2.387444e+03,2.081101e+03
2.390336e+03,2.054229e+03
2.393229e+03,2.046203e+03
2.396122e+03,2.045744e+03
2.399014e+03,2.041135e+03
2.401907e+03,2.021048e+03
2.404800e+03,2.026042e+03
2.407693e+03,2.025903e+03
2.410585e+03,2.020044e+03
2.413478e+03,2.009766e+03
2.416371e+03,1.998380e+03
2.419263e+03,1.992897e+03
2.422156e+03,1.995524e+03
2.425049e+03,1.975130e+03
2.427941e+03,1.956602e+03
2.430834e+03,1.981051e+03
2.433727e+03,1.967194e+03
2.436620e+03,1.962113e+03
2.439512e+03,1.940292e+03
2.442405e+03,1.946994e+03
2.445298e+03,1.942118e+03
2.448190e+03,1.939854e+03
2.451083e+03,1.961799e+03
2.453976e+03,1.938543e+03
2.456868e+03,1.935125e+03
2.459761e+03,1.910011e+03
2.462654e+03,1.920425e+03
2.465547e+03,1.926441e+03
2.468439e+03,1.920052e+03
2.471332e+03,1.908191e+03
2.474225e+03,1.906351e+03
2.477117e+03,1.887672e+03
2.480010e+03,1.908644e+03
2.482903e+03,1.915904e+03
2.485795e+03,1.893341e+03
2.488688e+03,1.888698e+03
2.491581e+03,1.862415e+03
2.494474e+03,1.857839e+03
2.497366e+03,1.886961e+03
2.500259e+03,1.857177e+03
2.503152e+03,1.852623e+03
2.506044e+03,1.852401e+03
2.508937e+03,1.837478e+03
2.511830e+03,1.830725e+03
2.514722e+03,1.805026e+03
2.517615e+03,1.829021e+03
2.520508e+03,1.830607e+03
2.523401e+03,1.823008e+03
2.526293e+03,1.783243e+03
2.529186e+03,1.830100e+03
2.532079e+03,1.819065e+03
2.534971e+03,1.807989e+03
2.537864e+03,1.818354e+03
2.540757e+03,1.793289e+03
2.543649e+03,1.791953e+03
2.546542e+03,1.808320e+03
2.549435e+03,1.789057e+03
2.552328e+03,1.789974e+03
2.555220e+03,1.789820e+03
2.558113e+03,1.790313e+03
2.561006e+03,1.775313e+03
2.563898e+03,1.788479e+03
2.566791e+03,1.774887e+03
2.569684e+03,1.776130e+03
2.572576e+03,1.746812e+03
2.575469e+03,1.768367e+03
2.578362e+03,1.761218e+03
2.581255e+03,1.755621e+03
2.584147e+03,1.744855e+03
2.587040e+03,1.748089e+03
2.589933e+03,1.754851e+03
2.592825e+03,1.735670e+03
2.595718e+03,1.741332e+03
2.598611e+03,1.731319e+03
2.601503e+03,1.715549e+03
2.604396e+03,1.724202e+03
2.607289e+03,1.726542e+03
2.610182e+03,1.703526e+03
2.613074e+03,1.714214e+03
2.615967e+03,1.709852e+03
2.618860e+03,1.703179e+03
2.621752e+03,1.675824e+03
2.624645e+03,1.720127e+03
2.627538e+03,1.713878e+03
2.630430e+03,1.672012e+03
2.633323e+03,1.689677e+03
2.636216e+03,1.695242e+03
2.639109e+03,1.688073e+03
2.642001e+03,1.683890e+03
2.644894e+03,1.718950e+03
2.647787e+03,1.684817e+03
2.650679e+03,1.686653e+03
2.653572e+03,1.657795e+03
2.656465e+03,1.672362e+03
2.659357e+03,1.639753e+03
2.662250e+03,1.662537e+03
2.665143e+03,1.657412e+03
2.668036e+03,1.656545e+03
2.670928e+03,1.645661e+03
2.673821e+03,1.662410e+03
2.676714e+03,1.613777e+03
2.679606e+03,1.623406e+03
2.682499e+03,1.635137e+03
2.685392e+03,1.625839e+03
2.688284e+03,1.631270e+03
2.691177e+03,1.605299e+03
2.694070e+03,1.629236e+03
2.696963e+03,1.615696e+03
2.699855e+03,1.635389e+03
2.702748e+03,1.612183e+03
2.705641e+03,1.626112e+03
2.708533e+03,1.616677e+03
2.711426e+03,1.619888e+03
2.714319e+03,1.608209e+03
2.717211e+03,1.590153e+03
2.720104e+03,1.595379e+03
2.722997e+03,1.599379e+03
2.725890e+03,1.596667e+03
2.728782e+03,1.597936e+03
2.731675e+03,1.574925e+03
2.734568e+03,1.594587e+03
2.737460e+03,1.590755e+03
2.740353e+03,1.572699e+03
2.743246e+03,1.574334e+03
2.746138e+03,1.571424e+03
2.749031e+03,1.585564e+03
2.751924e+03,1.575786e+03
2.754817e+03,1.559508e+03
2.757709e+03,1.558144e+03
2.760602e+03,1.545652e+03
2.763495e+03,1.562412e+03
2.766387e+03,1.561053e+03
2.769280e+03,1.566087e+03
2.772173e+03,1.578026e+03
2.775065e+03,1.539032e+03
2.777958e+03,1.540818e+03
2.780851e+03,1.532869e+03
2.783744e+03,1.528306e+03
2.786636e+03,1.519175e+03
2.789529e+03,1.544392e+03
2.792422e+03,1.556434e+03
2.795314e+03,1.523630e+03
2.798207e+03,1.523798e+03
2.801100e+03,1.536767e+03
2.803992e+03,1.529428e+03
2.806885e+03,1.545303e+03
2.809778e+03,1.538071e+03
2.812671e+03,1.532438e+03
2.815563e+03,1.537661e+03
2.818456e+03,1.486863e+03
2.821349e+03,1.497500e+03
2.824241e+03,1.486083e+03
2.827134e+03,1.503095e+03
2.830027e+03,1.528663e+03
2.832919e+03,1.513241e+03
2.835812e+03,1.506110e+03
2.838705e+03,1.525374e+03
2.841598e+03,1.497418e+03
2.844490e+03,1.478108e+03
2.847383e+03,1.470931e+03
2.850276e+03,1.477932e+03
2.853168e+03,1.504648e+03
2.856061e+03,1.495726e+03
2.858954e+03,1.482052e+03
2.861846e+03,1.488318e+03
2.864739e+03,1.489361e+03
2.867632e+03,1.485250e+03
2.870525e+03,1.476797e+03
2.873417e+03,1.488559e+03
2.876310e+03,1.456357e+03
2.879203e+03,1.478008e+03
2.882095e+03,1.476582e+03
2.884988e+03,1.477930e+03
2.887881e+03,1.492211e+03
2.890773e+03,1.470114e+03
2.893666e+03,1.488231e+03
2.896559e+03,1.486199e+03
2.899452e+03,1.446554e+03
2.902344e+03,1.468994e+03
2.905237e+03,1.452574e+03
2.908130e+03,1.435926e+03
2.911022e+03,1.465030e+03
2.913915e+03,1.468685e+03
2.916808e+03,1.485525e+03
2.919700e+03,1.454333e+03
2.922593e+03,1.458364e+03
2.925486e+03,1.440802e+03
2.928379e+03,1.439336e+03
2.931271e+03,1.419001e+03
2.934164e+03,1.446269e+03
2.937057e+03,1.437862e+03
2.939949e+03,1.430522e+03
2.942842e+03,1.413234e+03
2.945735e+03,1.446794e+03
2.948627e+03,1.436415e+03
2.951520e+03,1.428707e+03
2.954413e+03,1.409357e+03
2.957306e+03,1.429616e+03
2.960198e+03,1.427129e+03
2.963091e+03,1.435209e+03
2.965984e+03,1.408652e+03
2.968876e+03,1.385183e+03
2.971769e+03,1.399461e+03
2.974662e+03,1.408645e+03
2.977554e+03,1.427446e+03
2.980447e+03,1.420961e+03
2.983340e+03,1.433820e+03
2.986233e+03,1.432260e+03
2.989125e+03,1.370697e+03
2.992018e+03,1.434271e+03
2.994911e+03,1.399614e+03
2.997803e+03,1.421262e+03
3.000696e+03,1.398941e+03
3.003589e+03,1.400940e+03
3.006481e+03,1.401265e+03
3.009374e+03,1.402510e+03
3.012267e+03,1.403344e+03
3.015160e+03,1.401092e+03
3.018052e+03,1.386347e+03
3.020945e+03,1.371129e+03
3.023838e+03,1.418272e+03
3.026730e+03,1.341248e+03
3.029623e+03,1.416293e+03
3.032516e+03,1.355983e+03
3.035408e+03,1.379032e+03
3.038301e+03,1.403826e+03
3.041194e+03,1.358943e+03
3.044087e+03,1.379453e+03
3.046979e+03,1.386380e+03
3.049872e+03,1.377379e+03
3.052765e+03,1.378388e+03
3.055657e+03,1.397331e+03
3.058550e+03,1.366524e+03
3.061443e+03,1.419578e+03
3.064335e+03,1.378561e+03
3.067228e+03,1.389436e+03
3.070121e+03,1.397709e+03
3.073014e+03,1.363510e+03
3.075906e+03,1.385590e+03
3.078799e+03,1.366871e+03
3.081692e+03,1.367585e+03
3.084584e+03,1.383586e+03
3.087477e+03,1.381910e+03
3.090370e+03,1.377694e+03
3.093262e+03,1.410743e+03
3.096155e+03,1.373368e+03
3.099048e+03,1.342115e+03
3.101941e+03,1.382928e+03
3.104833e+03,1.379896e+03
3.107726e+03,1.383383e+03
3.110619e+03,1.334982e+03
3.113511e+03,1.386184e+03
3.116404e+03,1.371175e+03
3.119297e+03,1.369521e+03
3.122189e+03,1.346578e+03
3.125082e+03,1.381744e+03
3.127975e+03,1.370861e+03
3.130868e+03,1.388139e+03
3.133760e+03,1.395724e+03
3.136653e+03,1.387901e+03
3.139546e+03,1.400656e+03
3.142438e+03,1.374556e+03
3.145331e+03,1.359419e+03
3.148224e+03,1.355571e+03
3.151116e+03,1.389870e+03
3.154009e+03,1.415397e+03
3.156902e+03,1.343018e+03
3.159795e+03,1.406759e+03
3.162687e+03,1.395378e+03
3.165580e+03,1.375055e+03
3.168473e+03,1.400181e+03
3.171365e+03,1.351136e+03
3.174258e+03,1.414033e+03
3.177151e+03,1.431403e+03
3.180043e+03,1.357536e+03
3.182936e+03,1.436285e+03
3.185829e+03,1.377944e+03
3.188722e+03,1.443195e+03
3.191614e+03,1.384995e+03
3.194507e+03,1.409595e+03
3.197400e+03,1.424742e+03
3.200292e+03,1.417518e+03
3.203185e+03,0.000000e+00
3.206078e+03,0.000000e+00
3.208970e+03,0.000000e+00
3.211863e+03,0.000000e+00
3.214756e+03,0.000000e+00
3.217649e+03,0.000000e+00
3.220541e+03,0.000000e+00
3.223434e+03,0.000000e+00
3.226327e+03,0.000000e+00
3.229219e+03,0.000000e+00
3.232112e+03,0.000000e+00
3.235005e+03,0.000000e+00
3.237897e+03,0.000000e+00
3.240790e+03,0.000000e+00
3.243683e+03,0.000000e+00
3.246576e+03,0.000000e+00
3.249468e+03,0.000000e+00
3.252361e+03,0.000000e+00
3.255254e+03,0.000000e+00
3.258146e+03,0.000000e+00
3.261039e+03,0.000000e+00
3.263932e+03,0.000000e+00
3.266824e+03,0.000000e+00
3.269717e+03,0.000000e+00
3.272610e+03,0.000000e+00
3.275503e+03,0.000000e+00
3.278395e+03,0.000000e+00
3.281288e+03,0.000000e+00
3.284181e+03,0.000000e+00
3.287073e+03,0.000000e+00
3.289966e+03,0.000000e+00
3.292859e+03,0.000000e+00
3.295751e+03,0.000000e+00
3.298644e+03,0.000000e+00
3.301537e+03,0.000000e+00
3.304430e+03,0.000000e+00
3.307322e+03,0.000000e+00
3.310215e+03,0.000000e+00
3.313108e+03,0.000000e+00
3.316000e+03,0.000000e+00
3.318893e+03,0.000000e+00
3.321786e+03,0.000000e+00
3.324678e+03,0.000000e+00
3.327571e+03,0.000000e+00
3.330464e+03,0.000000e+00
3.333357e+03,0.000000e+00
3.336249e+03,0.000000e+00
3.339142e+03,0.000000e+00
3.342035e+03,0.000000e+00
3.344927e+03,0.000000e+00
3.347820e+03,0.000000e+00
3.350713e+03,0.000000e+00
3.353605e+03,0.000000e+00
3.356498e+03,0.000000e+00
3.359391e+03,0.000000e+00
3.362284e+03,0.000000e+00
3.365176e+03,0.000000e+00
3.368069e+03,0.000000e+00
3.370962e+03,0.000000e+00
3.373854e+03,0.000000e+00
3.376747e+03,0.000000e+00
3.379640e+03,0.000000e+00
3.382532e+03,0.000000e+00
3.385425e+03,0.000000e+00
3.388318e+03,0.000000e+00
3.391211e+03,0.000000e+00
3.394103e+03,0.000000e+00
3.396996e+03,0.000000e+00
3.399889e+03,0.000000e+00
3.402781e+03,0.000000e+00
3.405674e+03,0.000000e+00
3.408567e+03,0.000000e+00
3.411459e+03,0.000000e+00
3.414352e+03,0.000000e+00
3.417245e+03,0.000000e+00
3.420138e+03,0.000000e+00
3.423030e+03,0.000000e+00
3.425923e+03,0.000000e+00
3.428816e+03,0.000000e+00
3.431708e+03,0.000000e+00
3.434601e+03,0.000000e+00
3.437494e+03,0.000000e+00
3.440386e+03,0.000000e+00
3.443279e+03,0.000000e+00
3.446172e+03,0.000000e+00
3.449065e+03,0.000000e+00
3.451957e+03,0.000000e+00
3.454850e+03,0.000000e+00
3.457743e+03,0.000000e+00
3.460635e+03,0.000000e+00
3.463528e+03,0.000000e+00
3.466421e+03,0.000000e+00
3.469313e+03,0.000000e+00
3.472206e+03,0.000000e+00
3.475099e+03,0.000000e+00
3.477992e+03,0.000000e+00
3.480884e+03,0.000000e+00
3.483777e+03,0.000000e+00
3.486670e+03,0.000000e+00
3.489563e+03,0.000000e+00
3.492455e+03,0.000000e+00
3.495348e+03,0.000000e+00
3.498240e+03,0.000000e+00
3.500169e+03,0.000000e+00