File: RAMAN_data/13112023_r1/red fibre3.CSV
9.931763e+01,0.000000e+00
1.022103e+02,0.000000e+00
1.051030e+02,0.000000e+00
1.079957e+02,0.000000e+00
1.108884e+02,0.000000e+00
1.137811e+02,0.000000e+00
1.166738e+02,0.000000e+00
1.195665e+02,0.000000e+00
1.224592e+02,0.000000e+00
1.253519e+02,0.000000e+00
1.282446e+02,0.000000e+00
1.311373e+02,0.000000e+00
1.340300e+02,0.000000e+00
1.369227e+02,0.000000e+00
1.398154e+02,0.000000e+00
1.427081e+02,0.000000e+00
1.456008e+02,0.000000e+00
1.484935e+02,0.000000e+00
1.513862e+02,0.000000e+00
1.542789e+02,0.000000e+00
1.571716e+02,0.000000e+00
1.600643e+02,0.000000e+00
1.629570e+02,0.000000e+00
1.658497e+02,0.000000e+00
1.687424e+02,0.000000e+00
1.716351e+02,0.000000e+00
1.745278e+02,0.000000e+00
1.774205e+02,0.000000e+00
1.803132e+02,0.000000e+00
1.832059e+02,0.000000e+00
1.860986e+02,0.000000e+00
1.889913e+02,0.000000e+00
1.918840e+02,0.000000e+00
1.947767e+02,0.000000e+00
1.976694e+02,0.000000e+00
2.005621e+02,7.282299e+03
2.034548e+02,7.339019e+03
2.063475e+02,7.368305e+03
2.092402e+02,7.323517e+03
2.121329e+02,7.361620e+03
2.150256e+02,7.382544e+03
2.179183e+02,7.382305e+03
2.208110e+02,7.399708e+03
2.237037e+02,7.401128e+03
2.265964e+02,7.404124e+03
2.294892e+02,7.427247e+03
2.323819e+02,7.464710e+03
2.352746e+02,7.464125e+03
2.381673e+02,7.475529e+03
2.410600e+02,7.444251e+03
2.439527e+02,7.480958e+03
2.468454e+02,7.502069e+03
2.497381e+02,7.511201e+03
2.526308e+02,7.519727e+03
2.555235e+02,7.543335e+03
2.584161e+02,7.515883e+03
2.613088e+02,7.543571e+03
2.642015e+02,7.589612e+03
2.670942e+02,7.593830e+03
2.699869e+02,7.606378e+03
2.728796e+02,7.600930e+03
2.757723e+02,7.628320e+03
2.786650e+02,7.636916e+03
2.815577e+02,7.644584e+03
2.844504e+02,7.653750e+03
2.873431e+02,7.662757e+03
2.902358e+02,7.659852e+03
2.931285e+02,7.673792e+03
2.960212e+02,7.689245e+03
2.989139e+02,7.679521e+03
3.018066e+02,7.697034e+03
3.046993e+02,7.694400e+03
3.075920e+02,7.713623e+03
3.104847e+02,7.727419e+03
3.133774e+02,7.723720e+03
3.162701e+02,7.748271e+03
3.191628e+02,7.752224e+03
3.220555e+02,7.739777e+03
3.249482e+02,7.770322e+03
3.278409e+02,7.796356e+03
3.307336e+02,7.779671e+03
3.336263e+02,7.796986e+03
3.365190e+02,7.765129e+03
3.394117e+02,7.790339e+03
3.423044e+02,7.806178e+03
3.451971e+02,7.799511e+03
3.480898e+02,7.821644e+03
3.509825e+02,7.786712e+03
3.538752e+02,7.809498e+03
3.567680e+02,7.834211e+03
3.596607e+02,7.821775e+03
3.625534e+02,7.828078e+03
3.654461e+02,7.815388e+03
3.683388e+02,7.828056e+03
3.712315e+02,7.850742e+03
3.741242e+02,7.860919e+03
3.770169e+02,7.848148e+03
3.799096e+02,7.865185e+03
3.828023e+02,7.862214e+03
3.856950e+02,7.870564e+03
3.885877e+02,7.846595e+03
3.914804e+02,7.867114e+03
3.943731e+02,7.840772e+03
3.972658e+02,7.845408e+03
4.001585e+02,7.852151e+03
4.030512e+02,7.864930e+03
4.059439e+02,7.859217e+03
4.088366e+02,7.849117e+03
4.117293e+02,7.836366e+03
4.146220e+02,7.835501e+03
4.175147e+02,7.867334e+03
4.204074e+02,7.853815e+03
4.233001e+02,7.846137e+03
4.261928e+02,7.852194e+03
4.290855e+02,7.871955e+03
4.319782e+02,7.877204e+03
4.348709e+02,7.869925e+03
4.377636e+02,7.869233e+03
4.406563e+02,7.863160e+03
4.435490e+02,7.858873e+03
4.464417e+02,7.856663e+03
4.493344e+02,7.899653e+03
4.522271e+02,7.871377e+03
4.551198e+02,7.862116e+03
4.580125e+02,7.846802e+03
4.609052e+02,7.846057e+03
4.637979e+02,7.867032e+03
4.666906e+02,7.845869e+03
4.695833e+02,7.853269e+03
4.724760e+02,7.871123e+03
4.753687e+02,7.844937e+03
4.782614e+02,7.805219e+03
4.811541e+02,7.836018e+03
4.840468e+02,7.864616e+03
4.869395e+02,7.846995e+03
4.898322e+02,7.839853e+03
4.927249e+02,7.827274e+03
4.956176e+02,7.791491e+03
4.985103e+02,7.855788e+03
5.014030e+02,7.805843e+03
5.042957e+02,7.815821e+03
5.071884e+02,7.812075e+03
5.100811e+02,7.826133e+03
5.129738e+02,7.815368e+03
5.158665e+02,7.822838e+03
5.187592e+02,7.846619e+03
5.216519e+02,7.813118e+03
5.245446e+02,7.800088e+03
5.274373e+02,7.821921e+03
5.303300e+02,7.801866e+03
5.332227e+02,7.779326e+03
5.361154e+02,7.788276e+03
5.390081e+02,7.778858e+03
5.419008e+02,7.791693e+03
5.447935e+02,7.798548e+03
5.476862e+02,7.808819e+03
5.505789e+02,7.777206e+03
5.534716e+02,7.765803e+03
5.563643e+02,7.759202e+03
5.592570e+02,7.749516e+03
5.621497e+02,7.767531e+03
5.650424e+02,7.770103e+03
5.679351e+02,7.765150e+03
5.708278e+02,7.744588e+03
5.737205e+02,7.737727e+03
5.766132e+02,7.740184e+03
5.795059e+02,7.734266e+03
5.823986e+02,7.717529e+03
5.852913e+02,7.729050e+03
5.881840e+02,7.709510e+03
5.910767e+02,7.721271e+03
5.939694e+02,7.730378e+03
5.968621e+02,7.741047e+03
5.997548e+02,7.694452e+03
6.026475e+02,7.731690e+03
6.055402e+02,7.695368e+03
6.084329e+02,7.702391e+03
6.113256e+02,7.689812e+03
6.142183e+02,7.679327e+03
6.171110e+02,7.675761e+03
6.200037e+02,7.658992e+03
6.228964e+02,7.668607e+03
6.257891e+02,7.687894e+03
6.286818e+02,7.670736e+03
6.315745e+02,7.673560e+03
6.344672e+02,7.658562e+03
6.373599e+02,7.640245e+03
6.402526e+02,7.617917e+03
6.431453e+02,7.620859e+03
6.460380e+02,7.629733e+03
6.489307e+02,7.607167e+03
6.518234e+02,7.600292e+03
6.547161e+02,7.617378e+03
6.576088e+02,7.586992e+03
6.605015e+02,7.566771e+03
6.633942e+02,7.564775e+03
6.662869e+02,7.557922e+03
6.691796e+02,7.559134e+03
6.720723e+02,7.589381e+03
6.749650e+02,7.542268e+03
6.778577e+02,7.523872e+03
6.807504e+02,7.526254e+03
6.836431e+02,7.566811e+03
6.865358e+02,7.526854e+03
6.894285e+02,7.536394e+03
6.923212e+02,7.499528e+03
6.952139e+02,7.493112e+03
6.981066e+02,7.515462e+03
7.009993e+02,7.464791e+03
7.038920e+02,7.455174e+03
7.067847e+02,7.468217e+03
7.096774e+02,7.424665e+03
7.125701e+02,7.451713e+03
7.154628e+02,7.450316e+03
7.183555e+02,7.469851e+03
7.212482e+02,7.433790e+03
7.241409e+02,7.442972e+03
7.270336e+02,7.424047e+03
7.299263e+02,7.425415e+03
7.328190e+02,7.385798e+03
7.357117e+02,7.389916e+03
7.386044e+02,7.383889e+03
7.414971e+02,7.402199e+03
7.443898e+02,7.377369e+03
7.472825e+02,7.375192e+03
7.501752e+02,7.309298e+03
7.530679e+02,7.334078e+03
7.559606e+02,7.336330e+03
7.588533e+02,7.360558e+03
7.617460e+02,7.338620e+03
7.646387e+02,7.301528e+03
7.675314e+02,7.304792e+03
7.704241e+02,7.284229e+03
7.733168e+02,7.265446e+03
7.762095e+02,7.274558e+03
7.791022e+02,7.277661e+03
7.819949e+02,7.237581e+03
7.848876e+02,7.222807e+03
7.877803e+02,7.232571e+03
7.906730e+02,7.226224e+03
7.935657e+02,7.250585e+03
7.964584e+02,7.204859e+03
7.993511e+02,7.185401e+03
8.022438e+02,7.179851e+03
8.051365e+02,7.189595e+03
8.080292e+02,7.177604e+03
8.109219e+02,7.161795e+03
8.138146e+02,7.182196e+03
8.167073e+02,7.158247e+03
8.196000e+02,7.140553e+03
8.224927e+02,7.150291e+03
8.253854e+02,7.150021e+03
8.282781e+02,7.132704e+03
8.311708e+02,7.103667e+03
8.340635e+02,7.096855e+03
8.369562e+02,7.121334e+03
8.398489e+02,7.112725e+03
8.427416e+02,7.086110e+03
8.456343e+02,7.066732e+03
8.485270e+02,7.058625e+03
8.514197e+02,7.057107e+03
8.543124e+02,7.060883e+03
8.572051e+02,7.058837e+03
8.600978e+02,7.029523e+03
8.629905e+02,7.011439e+03
8.658832e+02,7.013194e+03
8.687759e+02,6.990131e+03
8.716686e+02,7.017282e+03
8.745613e+02,6.996445e+03
8.774540e+02,6.978444e+03
8.803467e+02,6.979598e+03
8.832394e+02,6.985910e+03
8.861321e+02,6.960723e+03
8.890248e+02,6.965281e+03
8.919175e+02,6.949369e+03
8.948102e+02,6.941085e+03
8.977029e+02,6.931268e+03
9.005956e+02,6.893266e+03
9.034883e+02,6.880008e+03
9.063810e+02,6.884148e+03
9.092737e+02,6.871002e+03
9.121664e+02,6.884893e+03
9.150591e+02,6.865820e+03
9.179518e+02,6.875222e+03
9.208445e+02,6.847583e+03
9.237372e+02,6.828866e+03
9.266299e+02,6.815653e+03
9.295226e+02,6.797835e+03
9.324153e+02,6.783740e+03
9.353080e+02,6.805181e+03
9.382007e+02,6.765305e+03
9.410934e+02,6.753013e+03
9.439861e+02,6.773627e+03
9.468788e+02,6.779112e+03
9.497715e+02,6.775428e+03
9.526642e+02,6.725312e+03
9.555569e+02,6.696196e+03
9.584496e+02,6.700272e+03
9.613423e+02,6.715001e+03
9.642350e+02,6.703498e+03
9.671277e+02,6.680506e+03
9.700204e+02,6.665847e+03
9.729131e+02,6.659929e+03
9.758058e+02,6.659195e+03
9.786985e+02,6.670545e+03
9.815912e+02,6.647260e+03
9.844839e+02,6.619404e+03
9.873766e+02,6.614687e+03
9.902693e+02,6.607362e+03
9.931620e+02,6.628626e+03
9.960547e+02,6.606008e+03
9.989474e+02,6.597684e+03
1.001840e+03,6.578896e+03
1.004733e+03,6.568918e+03
1.007626e+03,6.571253e+03
1.010518e+03,6.574295e+03
1.013411e+03,6.548239e+03
1.016304e+03,6.516758e+03
1.019196e+03,6.516451e+03
1.022089e+03,6.523967e+03
1.024982e+03,6.534045e+03
1.027875e+03,6.523412e+03
1.030767e+03,6.497514e+03
1.033660e+03,6.475452e+03
1.036552e+03,6.489733e+03
1.039445e+03,6.492577e+03
1.042338e+03,6.482047e+03
1.045231e+03,6.465972e+03
1.048123e+03,6.463113e+03
1.051016e+03,6.452960e+03
1.053909e+03,6.444657e+03
1.056802e+03,6.428646e+03
1.059694e+03,6.406655e+03
1.062587e+03,6.405425e+03
1.065479e+03,6.414310e+03
1.068372e+03,6.424353e+03
1.071265e+03,6.408901e+03
1.074158e+03,6.387392e+03
1.077050e+03,6.350204e+03
1.079943e+03,6.371295e+03
1.082836e+03,6.378253e+03
1.085729e+03,6.381509e+03
1.088621e+03,6.418270e+03
1.091514e+03,6.359436e+03
1.094406e+03,6.349273e+03
1.097299e+03,6.326573e+03
1.100192e+03,6.349980e+03
1.103085e+03,6.326197e+03
1.105977e+03,6.301186e+03
1.108870e+03,6.286022e+03
1.111763e+03,6.306219e+03
1.114656e+03,6.300265e+03
1.117548e+03,6.309498e+03
1.120441e+03,6.281606e+03
1.123334e+03,6.253258e+03
1.126226e+03,6.272426e+03
1.129119e+03,6.240523e+03
1.132012e+03,6.229031e+03
1.134904e+03,6.227253e+03
1.137797e+03,6.213756e+03
1.140690e+03,6.209647e+03
1.143583e+03,6.217854e+03
1.146475e+03,6.211410e+03
1.149368e+03,6.190045e+03
1.152261e+03,6.197982e+03
1.155153e+03,6.155329e+03
1.158046e+03,6.171072e+03
1.160939e+03,6.157596e+03
1.163831e+03,6.142935e+03
1.166724e+03,6.149225e+03
1.169617e+03,6.102160e+03
1.172510e+03,6.105555e+03
1.175402e+03,6.081777e+03
1.178295e+03,6.099994e+03
1.181188e+03,6.104148e+03
1.184080e+03,6.097868e+03
1.186973e+03,6.066981e+03
1.189866e+03,6.075947e+03
1.192758e+03,6.081066e+03
1.195651e+03,6.060595e+03
1.198544e+03,6.047504e+03
1.201437e+03,6.043126e+03
1.204329e+03,6.008616e+03
1.207222e+03,6.028521e+03
1.210115e+03,6.034274e+03
1.213007e+03,6.024566e+03
1.215900e+03,6.015047e+03
1.218793e+03,6.014944e+03
1.221685e+03,6.002510e+03
1.224578e+03,6.020179e+03
1.227471e+03,6.001610e+03
1.230364e+03,5.990617e+03
1.233256e+03,5.959524e+03
1.236149e+03,5.947250e+03
1.239042e+03,5.970583e+03
1.241934e+03,5.957567e+03
1.244827e+03,5.922394e+03
1.247720e+03,5.925196e+03
1.250612e+03,5.915930e+03
1.253505e+03,5.915084e+03
1.256398e+03,5.920470e+03
1.259291e+03,5.914783e+03
1.262183e+03,5.900964e+03
1.265076e+03,5.880681e+03
1.267969e+03,5.882639e+03
1.270861e+03,5.905504e+03
1.273754e+03,5.921329e+03
1.276647e+03,5.890104e+03
1.279539e+03,5.870325e+03
1.282432e+03,5.854308e+03
1.285325e+03,5.874053e+03
1.288218e+03,5.866700e+03
1.291110e+03,5.841787e+03
1.294003e+03,5.840833e+03
1.296896e+03,5.814064e+03
1.299788e+03,5.816104e+03
1.302681e+03,5.831390e+03
1.305574e+03,5.827612e+03
1.308466e+03,5.816029e+03
1.311359e+03,5.777947e+03
1.314252e+03,5.770517e+03
1.317145e+03,5.777385e+03
1.320037e+03,5.773201e+03
1.322930e+03,5.777812e+03
1.325823e+03,5.753292e+03
1.328715e+03,5.751897e+03
1.331608e+03,5.748948e+03
1.334501e+03,5.747063e+03
1.337393e+03,5.754011e+03
1.340286e+03,5.739843e+03
1.343179e+03,5.730088e+03
1.346072e+03,5.699629e+03
1.348964e+03,5.726417e+03
1.351857e+03,5.721783e+03
1.354750e+03,5.722787e+03
1.357642e+03,5.696729e+03
1.360535e+03,5.672852e+03
1.363428e+03,5.695954e+03
1.366320e+03,5.680381e+03
1.369213e+03,5.668646e+03
1.372106e+03,5.662500e+03
1.374999e+03,5.654554e+03
1.377891e+03,5.667086e+03
1.380784e+03,5.637758e+03
1.383677e+03,5.638962e+03
1.386569e+03,5.623126e+03
1.389462e+03,5.601966e+03
1.392355e+03,5.590768e+03
1.395247e+03,5.582053e+03
1.398140e+03,5.610285e+03
1.401033e+03,5.593904e+03
1.403926e+03,5.598902e+03
1.406818e+03,5.550650e+03
1.409711e+03,5.572655e+03
1.412604e+03,5.548528e+03
1.415496e+03,5.562854e+03
1.418389e+03,5.536573e+03
1.421282e+03,5.543911e+03
1.424174e+03,5.530341e+03
1.427067e+03,5.538060e+03
1.429960e+03,5.516608e+03
1.432853e+03,5.500847e+03
1.435745e+03,5.489295e+03
1.438638e+03,5.481857e+03
1.441531e+03,5.492901e+03
1.444423e+03,5.492460e+03
1.447316e+03,5.480073e+03
1.450209e+03,5.454361e+03
1.453101e+03,5.427753e+03
1.455994e+03,5.462674e+03
1.458887e+03,5.459837e+03
1.461780e+03,5.453006e+03
1.464672e+03,5.419811e+03
1.467565e+03,5.409382e+03
1.470458e+03,5.404366e+03
1.473350e+03,5.421647e+03
1.476243e+03,5.411675e+03
1.479136e+03,5.407686e+03
1.482028e+03,5.375466e+03
1.484921e+03,5.378786e+03
1.487814e+03,5.384976e+03
1.490707e+03,5.378403e+03
1.493599e+03,5.375846e+03
1.496492e+03,5.365015e+03
1.499385e+03,5.376195e+03
1.502277e+03,5.354070e+03
1.505170e+03,5.360042e+03
1.508063e+03,5.316511e+03
1.510955e+03,5.335669e+03
1.513848e+03,5.329046e+03
1.516741e+03,5.315033e+03
1.519634e+03,5.312392e+03
1.522526e+03,5.300839e+03
1.525419e+03,5.289315e+03
1.528312e+03,5.246374e+03
1.531204e+03,5.268441e+03
1.534097e+03,5.279302e+03
1.536990e+03,5.253502e+03
1.539882e+03,5.254670e+03
1.542775e+03,5.233646e+03
1.545668e+03,5.223408e+03
1.548561e+03,5.219389e+03
1.551453e+03,5.243981e+03
1.554346e+03,5.228531e+03
1.557239e+03,5.232037e+03
1.560131e+03,5.220270e+03
1.563024e+03,5.202545e+03
1.565917e+03,5.192688e+03
1.568809e+03,5.210470e+03
1.571702e+03,5.197066e+03
1.574595e+03,5.180441e+03
1.577488e+03,5.167268e+03
1.580380e+03,5.156594e+03
1.583273e+03,5.154425e+03
1.586166e+03,5.141014e+03
1.589058e+03,5.145709e+03
1.591951e+03,5.136850e+03
1.594844e+03,5.135532e+03
1.597736e+03,5.124587e+03
1.600629e+03,5.132782e+03
1.603522e+03,5.136458e+03
1.606415e+03,5.094619e+03
1.609307e+03,5.077472e+03
1.612200e+03,5.074898e+03
1.615093e+03,5.073672e+03
1.617985e+03,5.085689e+03
1.620878e+03,5.050398e+03
1.623771e+03,5.028608e+03
1.626663e+03,5.043858e+03
1.629556e+03,5.016992e+03
1.632449e+03,5.013837e+03
1.635342e+03,5.014049e+03
1.638234e+03,4.984321e+03
1.641127e+03,4.977925e+03
1.644020e+03,4.961363e+03
1.646912e+03,4.960760e+03
1.649805e+03,4.926676e+03
1.652698e+03,4.949528e+03
1.655590e+03,4.959557e+03
1.658483e+03,4.931848e+03
1.661376e+03,4.907541e+03
1.664269e+03,4.900201e+03
1.667161e+03,4.897837e+03
1.670054e+03,4.885989e+03
1.672947e+03,4.865746e+03
1.675839e+03,4.886208e+03
1.678732e+03,4.887894e+03
1.681625e+03,4.846467e+03
1.684517e+03,4.854939e+03
1.687410e+03,4.863188e+03
1.690303e+03,4.848164e+03
1.693196e+03,4.830176e+03
1.696088e+03,4.823334e+03
1.698981e+03,4.810668e+03
1.701874e+03,4.812353e+03
1.704766e+03,4.797938e+03
1.707659e+03,4.774311e+03
1.710552e+03,4.793823e+03
1.713444e+03,4.770833e+03
1.716337e+03,4.742908e+03
1.719230e+03,4.755772e+03
1.722123e+03,4.779796e+03
1.725015e+03,4.717524e+03
1.727908e+03,4.728445e+03
1.730801e+03,4.716847e+03
1.733693e+03,4.702885e+03
1.736586e+03,4.721267e+03
1.739479e+03,4.706646e+03
1.742371e+03,4.702000e+03
1.745264e+03,4.656296e+03
1.748157e+03,4.649031e+03
1.751050e+03,4.671030e+03
1.753942e+03,4.664064e+03
1.756835e+03,4.641872e+03
1.759728e+03,4.622000e+03
1.762620e+03,4.614882e+03
1.765513e+03,4.620703e+03
1.768406e+03,4.620813e+03
1.771298e+03,4.592383e+03
1.774191e+03,4.603422e+03
1.777084e+03,4.565587e+03
1.779977e+03,4.566922e+03
1.782869e+03,4.548687e+03
1.785762e+03,4.570780e+03
1.788655e+03,4.560007e+03
1.791547e+03,4.507990e+03
1.794440e+03,4.523037e+03
1.797333e+03,4.500959e+03
1.800225e+03,4.507928e+03
1.803118e+03,4.454717e+03
1.806011e+03,4.475303e+03
1.808904e+03,4.458372e+03
1.811796e+03,4.463718e+03
1.814689e+03,4.479242e+03
1.817582e+03,4.445741e+03
1.820474e+03,4.449552e+03
1.823367e+03,4.440868e+03
1.826260e+03,4.447875e+03
1.829152e+03,4.429323e+03
1.832045e+03,4.419955e+03
1.834938e+03,4.413416e+03
1.837831e+03,4.376595e+03
1.840723e+03,4.373828e+03
1.843616e+03,4.355623e+03
1.846509e+03,4.353985e+03
1.849401e+03,4.364833e+03
1.852294e+03,4.334982e+03
1.855187e+03,4.303829e+03
1.858079e+03,4.328464e+03
1.860972e+03,4.306764e+03
1.863865e+03,4.300389e+03
1.866758e+03,4.284350e+03
1.869650e+03,4.289553e+03
1.872543e+03,4.280374e+03
1.875436e+03,4.256625e+03
1.878328e+03,4.261719e+03
1.881221e+03,4.249010e+03
1.884114e+03,4.252458e+03
1.887006e+03,4.224546e+03
1.889899e+03,4.236981e+03
1.892792e+03,4.224427e+03
1.895685e+03,4.191135e+03
1.898577e+03,4.197827e+03
1.901470e+03,4.172539e+03
1.904363e+03,4.185013e+03
1.907255e+03,4.171661e+03
1.910148e+03,4.172258e+03
1.913041e+03,4.135041e+03
1.915933e+03,4.136490e+03
1.918826e+03,4.142210e+03
1.921719e+03,4.094199e+03
1.924612e+03,4.082333e+03
1.927504e+03,4.099283e+03
1.930397e+03,4.083381e+03
1.933290e+03,4.071488e+03
1.936182e+03,4.076217e+03
1.939075e+03,4.055381e+03
1.941968e+03,4.051548e+03
1.944860e+03,4.055269e+03
1.947753e+03,4.012310e+03
1.950646e+03,4.008244e+03
1.953539e+03,4.002456e+03
1.956431e+03,3.997595e+03
1.959324e+03,3.992983e+03
1.962217e+03,3.976342e+03
1.965109e+03,3.985340e+03
1.968002e+03,3.984115e+03
1.970895e+03,3.981213e+03
1.973787e+03,3.933798e+03
1.976680e+03,3.948230e+03
1.979573e+03,3.957134e+03
1.982466e+03,3.919122e+03
1.985358e+03,3.901672e+03
1.988251e+03,3.888601e+03
1.991144e+03,3.896193e+03
1.994036e+03,3.879367e+03
1.996929e+03,3.881271e+03
1.999822e+03,3.863378e+03
2.002714e+03,3.882435e+03
2.005607e+03,3.854196e+03
2.008500e+03,3.829916e+03
2.011393e+03,3.812856e+03
2.014285e+03,3.819054e+03
2.017178e+03,3.842847e+03
2.020071e+03,3.771682e+03
2.022963e+03,3.790362e+03
2.025856e+03,3.754705e+03
2.028749e+03,3.755259e+03
2.031641e+03,3.782048e+03
2.034534e+03,3.754332e+03
2.037427e+03,3.721531e+03
2.040320e+03,3.710191e+03
2.043212e+03,3.706096e+03
2.046105e+03,3.728858e+03
2.048998e+03,3.683148e+03
2.051890e+03,3.689615e+03
2.054783e+03,3.660363e+03
2.057676e+03,3.662839e+03
2.060568e+03,3.674614e+03
2.063461e+03,3.645916e+03
2.066354e+03,3.641907e+03
2.069247e+03,3.614340e+03
2.072139e+03,3.610985e+03
2.075032e+03,3.618043e+03
2.077925e+03,3.619028e+03
2.080817e+03,3.560078e+03
2.083710e+03,3.570176e+03
2.086603e+03,3.561143e+03
2.089496e+03,3.584558e+03
2.092388e+03,3.556737e+03
2.095281e+03,3.548927e+03
2.098174e+03,3.522638e+03
2.101066e+03,3.548724e+03
2.103959e+03,3.491892e+03
2.106852e+03,3.510033e+03
2.109744e+03,3.495240e+03
2.112637e+03,3.476116e+03
2.115530e+03,3.450908e+03
2.118422e+03,3.460735e+03
2.121315e+03,3.473523e+03
2.124208e+03,3.450032e+03
2.127101e+03,3.449565e+03
2.129993e+03,3.451539e+03
2.132886e+03,3.449378e+03
2.135779e+03,3.429633e+03
2.138671e+03,3.397918e+03
2.141564e+03,3.363250e+03
2.144457e+03,3.380791e+03
2.147350e+03,3.365315e+03
2.150242e+03,3.352988e+03
2.153135e+03,3.348224e+03
2.156028e+03,3.344535e+03
2.158920e+03,3.325633e+03
2.161813e+03,3.349579e+03
2.164706e+03,3.317409e+03
2.167598e+03,3.308874e+03
2.170491e+03,3.304469e+03
2.173384e+03,3.296820e+03
2.176277e+03,3.301451e+03
2.179169e+03,3.257359e+03
2.182062e+03,3.253292e+03
2.184955e+03,3.260738e+03
2.187847e+03,3.242132e+03
2.190740e+03,3.244929e+03
2.193633e+03,3.235526e+03
2.196525e+03,3.227254e+03
2.199418e+03,3.217377e+03
2.202311e+03,3.205442e+03
2.205204e+03,3.193898e+03
2.208096e+03,3.186364e+03
2.210989e+03,3.149044e+03
2.213882e+03,3.158629e+03
2.216774e+03,3.172965e+03
2.219667e+03,3.142363e+03
2.222560e+03,3.136348e+03
2.225452e+03,3.127774e+03
2.228345e+03,3.120039e+03
2.231238e+03,3.142223e+03
2.234131e+03,3.119719e+03
2.237023e+03,3.107440e+03
2.239916e+03,3.055203e+03
2.242809e+03,3.085648e+03
2.245701e+03,3.055750e+03
2.248594e+03,3.071921e+03
2.251487e+03,3.058025e+03
2.254379e+03,3.031206e+03
2.257272e+03,3.025487e+03
2.260165e+03,3.024402e+03
2.263058e+03,3.027251e+03
2.265950e+03,3.006456e+03
2.268843e+03,2.992838e+03
2.271736e+03,2.957918e+03
2.274628e+03,2.994314e+03
2.277521e+03,2.972358e+03
2.280414e+03,2.958973e+03
2.283306e+03,2.975575e+03
2.286199e+03,2.918873e+03
2.289092e+03,2.921409e+03
2.291985e+03,2.936602e+03
2.294877e+03,2.941167e+03
2.297770e+03,2.928352e+03
2.300663e+03,2.941400e+03
2.303555e+03,2.895534e+03
2.306448e+03,2.890119e+03
2.309341e+03,2.853633e+03
2.312233e+03,2.862804e+03
2.315126e+03,2.877417e+03
2.318019e+03,2.847306e+03
2.320912e+03,2.861749e+03
2.323804e+03,2.819350e+03
2.326697e+03,2.833095e+03
2.329590e+03,2.851228e+03
2.332482e+03,2.823927e+03
2.335375e+03,2.806989e+03
2.338268e+03,2.782812e+03
2.341160e+03,2.777976e+03
2.344053e+03,2.794831e+03
2.346946e+03,2.791151e+03
2.349839e+03,2.759471e+03
2.352731e+03,2.740910e+03
2.355624e+03,2.736382e+03
2.358517e+03,2.752259e+03
2.361409e+03,2.728314e+03
2.364302e+03,2.713548e+03
2.367195e+03,2.727700e+03
2.370087e+03,2.721445e+03
2.372980e+03,2.689773e+03
2.375873e+03,2.714250e+03
2.378766e+03,2.691234e+03
2.381658e+03,2.658448e+03
2.384551e+03,2.659378e+03
2.387444e+03,2.644171e+03
2.390336e+03,2.678531e+03
2.393229e+03,2.648013e+03
2.396122e+03,2.642135e+03
2.399014e+03,2.639792e+03
2.401907e+03,2.599103e+03
2.404800e+03,2.632513e+03
2.407693e+03,2.611354e+03
2.410585e+03,2.610060e+03
2.413478e+03,2.584592e+03
2.416371e+03,2.568820e+03
2.419263e+03,2.565957e+03
2.422156e+03,2.588583e+03
2.425049e+03,2.571109e+03
2.427941e+03,2.568902e+03
2.430834e+03,2.535409e+03
2.433727e+03,2.553150e+03
2.436620e+03,2.540485e+03
2.439512e+03,2.544367e+03
2.442405e+03,2.535452e+03
2.445298e+03,2.496219e+03
2.448190e+03,2.515443e+03
2.451083e+03,2.514204e+03
2.453976e+03,2.505128e+03
2.456868e+03,2.495525e+03
2.459761e+03,2.464589e+03
2.462654e+03,2.468523e+03
2.465547e+03,2.461055e+03
2.468439e+03,2.441622e+03
2.471332e+03,2.471539e+03
2.474225e+03,2.453160e+03
2.477117e+03,2.427775e+03
2.480010e+03,2.455275e+03
2.482903e+03,2.457205e+03
2.485795e+03,2.453882e+03
2.488688e+03,2.434938e+03
2.491581e+03,2.409656e+03
2.494474e+03,2.411267e+03
2.497366e+03,2.399845e+03
2.500259e+03,2.418637e+03
2.503152e+03,2.390938e+03
2.506044e+03,2.398937e+03
2.508937e+03,2.367065e+03
2.511830e+03,2.393633e+03
2.514722e+03,2.380481e+03
2.517615e+03,2.371768e+03
2.520508e+03,2.358768e+03
2.523401e+03,2.349132e+03
2.526293e+03,2.368649e+03
2.529186e+03,2.346497e+03
2.532079e+03,2.324739e+03
2.534971e+03,2.325054e+03
2.537864e+03,2.311156e+03
2.540757e+03,2.334105e+03
2.543649e+03,2.307510e+03
2.546542e+03,2.312505e+03
2.549435e+03,2.307957e+03
2.552328e+03,2.296784e+03
2.555220e+03,2.317207e+03
2.558113e+03,2.297001e+03
2.561006e+03,2.301108e+03
2.563898e+03,2.276763e+03
2.566791e+03,2.289253e+03
2.569684e+03,2.291300e+03
2.572576e+03,2.244993e+03
2.575469e+03,2.269535e+03
2.578362e+03,2.237023e+03
2.581255e+03,2.236000e+03
2.584147e+03,2.230243e+03
2.587040e+03,2.237266e+03
2.589933e+03,2.245341e+03
2.592825e+03,2.213803e+03
2.595718e+03,2.204044e+03
2.598611e+03,2.201684e+03
2.601503e+03,2.186019e+03
2.604396e+03,2.204717e+03
2.607289e+03,2.169868e+03
2.610182e+03,2.175588e+03
2.613074e+03,2.173523e+03
2.615967e+03,2.157367e+03
2.618860e+03,2.158099e+03
2.621752e+03,2.134672e+03
2.624645e+03,2.177808e+03
2.627538e+03,2.145102e+03
2.630430e+03,2.146394e+03
2.633323e+03,2.136208e+03
2.636216e+03,2.154551e+03
2.639109e+03,2.126491e+03
2.642001e+03,2.131031e+03
2.644894e+03,2.133043e+03
2.647787e+03,2.078824e+03
2.650679e+03,2.106633e+03
2.653572e+03,2.094050e+03
2.656465e+03,2.102882e+03
2.659357e+03,2.096016e+03
2.662250e+03,2.096455e+03
2.665143e+03,2.072255e+03
2.668036e+03,2.088567e+03
2.670928e+03,2.079111e+03
2.673821e+03,2.083150e+03
2.676714e+03,2.062819e+03
2.679606e+03,2.079038e+03
2.682499e+03,2.037010e+03
2.685392e+03,2.058757e+03
2.688284e+03,2.059601e+03
2.691177e+03,2.053351e+03
2.694070e+03,2.024038e+03
2.696963e+03,2.032804e+03
2.699855e+03,2.023226e+03
2.702748e+03,2.043151e+03
2.705641e+03,2.031575e+03
2.708533e+03,1.987966e+03
2.711426e+03,2.026940e+03
2.714319e+03,1.995669e+03
2.717211e+03,2.025862e+03
2.720104e+03,1.992878e+03
2.722997e+03,1.995324e+03
2.725890e+03,1.992409e+03
2.728782e+03,1.999034e+03
2.731675e+03,2.003723e+03
2.734568e+03,1.966748e+03
2.737460e+03,1.967224e+03
2.740353e+03,1.973060e+03
2.743246e+03,1.974019e+03
2.746138e+03,1.960827e+03
2.749031e+03,1.940196e+03
2.751924e+03,1.956086e+03
2.754817e+03,1.971050e+03
2.757709e+03,1.950174e+03
2.760602e+03,1.944783e+03
2.763495e+03,1.920155e+03
2.766387e+03,1.926658e+03
2.769280e+03,1.938389e+03
2.772173e+03,1.925828e+03
2.775065e+03,1.938813e+03
2.777958e+03,1.898079e+03
2.780851e+03,1.910730e+03
2.783744e+03,1.903041e+03
2.786636e+03,1.932407e+03
2.789529e+03,1.911714e+03
2.792422e+03,1.874181e+03
2.795314e+03,1.902756e+03
2.798207e+03,1.887352e+03
2.801100e+03,1.892956e+03
2.803992e+03,1.913314e+03
2.806885e+03,1.869659e+03
2.809778e+03,1.877922e+03
2.812671e+03,1.845358e+03
2.815563e+03,1.879510e+03
2.818456e+03,1.848355e+03
2.821349e+03,1.843132e+03
2.824241e+03,1.858560e+03
2.827134e+03,1.849219e+03
2.830027e+03,1.830461e+03
2.832919e+03,1.853735e+03
2.835812e+03,1.836204e+03
2.838705e+03,1.833457e+03
2.841598e+03,1.801400e+03
2.844490e+03,1.826012e+03
2.847383e+03,1.804332e+03
2.850276e+03,1.823961e+03
2.853168e+03,1.827749e+03
2.856061e+03,1.814896e+03
2.858954e+03,1.855232e+03
2.861846e+03,1.816205e+03
2.864739e+03,1.837356e+03
2.867632e+03,1.807292e+03
2.870525e+03,1.820860e+03
2.873417e+03,1.795412e+03
2.876310e+03,1.814206e+03
2.879203e+03,1.799022e+03
2.882095e+03,1.832630e+03
2.884988e+03,1.772114e+03
2.887881e+03,1.803235e+03
2.890773e+03,1.808768e+03
2.893666e+03,1.787940e+03
2.896559e+03,1.801954e+03
2.899452e+03,1.766279e+03
2.902344e+03,1.781552e+03
2.905237e+03,1.779149e+03
2.908130e+03,1.783620e+03
2.911022e+03,1.761607e+03
2.913915e+03,1.736674e+03
2.916808e+03,1.757383e+03
2.919700e+03,1.758059e+03
2.922593e+03,1.754205e+03
2.925486e+03,1.735164e+03
2.928379e+03,1.741707e+03
2.931271e+03,1.755809e+03
2.934164e+03,1.734622e+03
2.937057e+03,1.750360e+03
2.939949e+03,1.734473e+03
2.942842e+03,1.708008e+03
2.945735e+03,1.718829e+03
2.948627e+03,1.728437e+03
2.951520e+03,1.719316e+03
2.954413e+03,1.698536e+03
2.957306e+03,1.747707e+03
2.960198e+03,1.723238e+03
2.963091e+03,1.681518e+03
2.965984e+03,1.695227e+03
2.968876e+03,1.676825e+03
2.971769e+03,1.661370e+03
2.974662e+03,1.656074e+03
2.977554e+03,1.677657e+03
2.980447e+03,1.670938e+03
2.983340e+03,1.666367e+03
2.986233e+03,1.620192e+03
2.989125e+03,1.684590e+03
2.992018e+03,1.666031e+03
2.994911e+03,1.645641e+03
2.997803e+03,1.672859e+03
3.000696e+03,1.633773e+03
3.003589e+03,1.631659e+03
3.006481e+03,1.625157e+03
3.009374e+03,1.601417e+03
3.012267e+03,1.617724e+03
3.015160e+03,1.653637e+03
3.018052e+03,1.667000e+03
3.020945e+03,1.628115e+03
3.023838e+03,1.636992e+03
3.026730e+03,1.622199e+03
3.029623e+03,1.613828e+03
3.032516e+03,1.611736e+03
3.035408e+03,1.572690e+03
3.038301e+03,1.595305e+03
3.041194e+03,1.603661e+03
3.044087e+03,1.624993e+03
3.046979e+03,1.605829e+03
3.049872e+03,1.598052e+03
3.052765e+03,1.595305e+03
3.055657e+03,1.594975e+03
3.058550e+03,1.624753e+03
3.061443e+03,1.598903e+03
3.064335e+03,1.625528e+03
3.067228e+03,1.572377e+03
3.070121e+03,1.592532e+03
3.073014e+03,1.551115e+03
3.075906e+03,1.636689e+03
3.078799e+03,1.580641e+03
3.081692e+03,1.546069e+03
3.084584e+03,1.543039e+03
3.087477e+03,1.650022e+03
3.090370e+03,1.574474e+03
3.093262e+03,1.579159e+03
3.096155e+03,1.540153e+03
3.099048e+03,1.546884e+03
3.101941e+03,1.581174e+03
3.104833e+03,1.534295e+03
3.107726e+03,1.520775e+03
3.110619e+03,1.621379e+03
3.113511e+03,1.541769e+03
3.116404e+03,1.564345e+03
3.119297e+03,1.593551e+03
3.122189e+03,1.562211e+03
3.125082e+03,1.573832e+03
3.127975e+03,1.562262e+03
3.130868e+03,1.554185e+03
3.133760e+03,1.572916e+03
3.136653e+03,1.541544e+03
3.139546e+03,1.610237e+03
3.142438e+03,1.581688e+03
3.145331e+03,1.513370e+03
3.148224e+03,1.523305e+03
3.151116e+03,1.559109e+03
3.154009e+03,1.531859e+03
3.156902e+03,1.581039e+03
3.159795e+03,1.501536e+03
3.162687e+03,1.555089e+03
3.165580e+03,1.544698e+03
3.168473e+03,1.516458e+03
3.171365e+03,1.479952e+03
3.174258e+03,1.571666e+03
3.177151e+03,1.493422e+03
3.180043e+03,1.540482e+03
3.182936e+03,1.540058e+03
3.185829e+03,1.558002e+03
3.188722e+03,1.566119e+03
3.191614e+03,1.564085e+03
3.194507e+03,1.587749e+03
3.197400e+03,1.557409e+03
3.200292e+03,1.572306e+03
3.203185e+03,0.000000e+00
3.206078e+03,0.000000e+00
3.208970e+03,0.000000e+00
3.211863e+03,0.000000e+00
3.214756e+03,0.000000e+00
3.217649e+03,0.000000e+00
3.220541e+03,0.000000e+00
3.223434e+03,0.000000e+00
3.226327e+03,0.000000e+00
3.229219e+03,0.000000e+00
3.232112e+03,0.000000e+00
3.235005e+03,0.000000e+00
3.237897e+03,0.000000e+00
3.240790e+03,0.000000e+00
3.243683e+03,0.000000e+00
3.246576e+03,0.000000e+00
3.249468e+03,0.000000e+00
3.252361e+03,0.000000e+00
3.255254e+03,0.000000e+00
3.258146e+03,0.000000e+00
3.261039e+03,0.000000e+00
3.263932e+03,0.000000e+00
3.266824e+03,0.000000e+00
3.269717e+03,0.000000e+00
3.272610e+03,0.000000e+00
3.275503e+03,0.000000e+00
3.278395e+03,0.000000e+00
3.281288e+03,0.000000e+00
3.284181e+03,0.000000e+00
3.287073e+03,0.000000e+00
3.289966e+03,0.000000e+00
3.292859e+03,0.000000e+00
3.295751e+03,0.000000e+00
3.298644e+03,0.000000e+00
3.301537e+03,0.000000e+00
3.304430e+03,0.000000e+00
3.307322e+03,0.000000e+00
3.310215e+03,0.000000e+00
3.313108e+03,0.000000e+00
3.316000e+03,0.000000e+00
3.318893e+03,0.000000e+00
3.321786e+03,0.000000e+00
3.324678e+03,0.000000e+00
3.327571e+03,0.000000e+00
3.330464e+03,0.000000e+00
3.333357e+03,0.000000e+00
3.336249e+03,0.000000e+00
3.339142e+03,0.000000e+00
3.342035e+03,0.000000e+00
3.344927e+03,0.000000e+00
3.347820e+03,0.000000e+00
3.350713e+03,0.000000e+00
3.353605e+03,0.000000e+00
3.356498e+03,0.000000e+00
3.359391e+03,0.000000e+00
3.362284e+03,0.000000e+00
3.365176e+03,0.000000e+00
3.368069e+03,0.000000e+00
3.370962e+03,0.000000e+00
3.373854e+03,0.000000e+00
3.376747e+03,0.000000e+00
3.379640e+03,0.000000e+00
3.382532e+03,0.000000e+00
3.385425e+03,0.000000e+00
3.388318e+03,0.000000e+00
3.391211e+03,0.000000e+00
3.394103e+03,0.000000e+00
3.396996e+03,0.000000e+00
3.399889e+03,0.000000e+00
3.402781e+03,0.000000e+00
3.405674e+03,0.000000e+00
3.408567e+03,0.000000e+00
3.411459e+03,0.000000e+00
3.414352e+03,0.000000e+00
3.417245e+03,0.000000e+00
3.420138e+03,0.000000e+00
3.423030e+03,0.000000e+00
3.425923e+03,0.000000e+00
3.428816e+03,0.000000e+00
3.431708e+03,0.000000e+00
3.434601e+03,0.000000e+00
3.437494e+03,0.000000e+00
3.440386e+03,0.000000e+00
3.443279e+03,0.000000e+00
3.446172e+03,0.000000e+00
3.449065e+03,0.000000e+00
3.451957e+03,0.000000e+00
3.454850e+03,0.000000e+00
3.457743e+03,0.000000e+00
3.460635e+03,0.000000e+00
3.463528e+03,0.000000e+00
3.466421e+03,0.000000e+00
3.469313e+03,0.000000e+00
3.472206e+03,0.000000e+00
3.475099e+03,0.000000e+00
3.477992e+03,0.000000e+00
3.480884e+03,0.000000e+00
3.483777e+03,0.000000e+00
3.486670e+03,0.000000e+00
3.489563e+03,0.000000e+00
3.492455e+03,0.000000e+00
3.495348e+03,0.000000e+00
3.498240e+03,0.000000e+00
3.500169e+03,0.000000e+00