File: RAMAN_data/13112023_r1/red fibre1.CSV
9.931763e+01,0.000000e+00
1.022103e+02,0.000000e+00
1.051030e+02,0.000000e+00
1.079957e+02,0.000000e+00
1.108884e+02,0.000000e+00
1.137811e+02,0.000000e+00
1.166738e+02,0.000000e+00
1.195665e+02,0.000000e+00
1.224592e+02,0.000000e+00
1.253519e+02,0.000000e+00
1.282446e+02,0.000000e+00
1.311373e+02,0.000000e+00
1.340300e+02,0.000000e+00
1.369227e+02,0.000000e+00
1.398154e+02,0.000000e+00
1.427081e+02,0.000000e+00
1.456008e+02,0.000000e+00
1.484935e+02,0.000000e+00
1.513862e+02,0.000000e+00
1.542789e+02,0.000000e+00
1.571716e+02,0.000000e+00
1.600643e+02,0.000000e+00
1.629570e+02,0.000000e+00
1.658497e+02,0.000000e+00
1.687424e+02,0.000000e+00
1.716351e+02,0.000000e+00
1.745278e+02,0.000000e+00
1.774205e+02,0.000000e+00
1.803132e+02,0.000000e+00
1.832059e+02,0.000000e+00
1.860986e+02,0.000000e+00
1.889913e+02,0.000000e+00
1.918840e+02,0.000000e+00
1.947767e+02,0.000000e+00
1.976694e+02,0.000000e+00
2.005621e+02,3.470633e+03
2.034548e+02,3.474563e+03
2.063475e+02,3.464853e+03
2.092402e+02,3.453812e+03
2.121329e+02,3.423631e+03
2.150256e+02,3.443390e+03
2.179183e+02,3.425256e+03
2.208110e+02,3.422624e+03
2.237037e+02,3.399989e+03
2.265964e+02,3.384847e+03
2.294892e+02,3.386467e+03
2.323819e+02,3.384280e+03
2.352746e+02,3.378540e+03
2.381673e+02,3.373247e+03
2.410600e+02,3.367731e+03
2.439527e+02,3.353479e+03
2.468454e+02,3.327302e+03
2.497381e+02,3.315494e+03
2.526308e+02,3.311322e+03
2.555235e+02,3.316995e+03
2.584161e+02,3.297186e+03
2.613088e+02,3.306956e+03
2.642015e+02,3.292415e+03
2.670942e+02,3.296652e+03
2.699869e+02,3.296615e+03
2.728796e+02,3.251746e+03
2.757723e+02,3.255409e+03
2.786650e+02,3.250065e+03
2.815577e+02,3.247594e+03
2.844504e+02,3.238765e+03
2.873431e+02,3.221021e+03
2.902358e+02,3.212849e+03
2.931285e+02,3.211737e+03
2.960212e+02,3.206035e+03
2.989139e+02,3.193724e+03
3.018066e+02,3.165774e+03
3.046993e+02,3.172962e+03
3.075920e+02,3.162859e+03
3.104847e+02,3.167508e+03
3.133774e+02,3.158673e+03
3.162701e+02,3.145115e+03
3.191628e+02,3.123301e+03
3.220555e+02,3.123409e+03
3.249482e+02,3.127232e+03
3.278409e+02,3.118507e+03
3.307336e+02,3.088052e+03
3.336263e+02,3.069355e+03
3.365190e+02,3.069651e+03
3.394117e+02,3.070476e+03
3.423044e+02,3.059647e+03
3.451971e+02,3.064992e+03
3.480898e+02,3.053359e+03
3.509825e+02,3.026541e+03
3.538752e+02,3.026564e+03
3.567680e+02,3.027720e+03
3.596607e+02,3.033126e+03
3.625534e+02,3.012490e+03
3.654461e+02,2.990047e+03
3.683388e+02,2.983287e+03
3.712315e+02,3.004140e+03
3.741242e+02,2.974430e+03
3.770169e+02,2.981654e+03
3.799096e+02,2.968988e+03
3.828023e+02,2.959612e+03
3.856950e+02,2.955868e+03
3.885877e+02,2.939705e+03
3.914804e+02,2.939855e+03
3.943731e+02,2.933242e+03
3.972658e+02,2.891134e+03
4.001585e+02,2.889960e+03
4.030512e+02,2.902759e+03
4.059439e+02,2.883266e+03
4.088366e+02,2.882776e+03
4.117293e+02,2.869386e+03
4.146220e+02,2.870523e+03
4.175147e+02,2.859684e+03
4.204074e+02,2.853239e+03
4.233001e+02,2.832296e+03
4.261928e+02,2.824186e+03
4.290855e+02,2.828315e+03
4.319782e+02,2.817415e+03
4.348709e+02,2.810468e+03
4.377636e+02,2.809894e+03
4.406563e+02,2.810656e+03
4.435490e+02,2.778733e+03
4.464417e+02,2.774820e+03
4.493344e+02,2.777697e+03
4.522271e+02,2.761857e+03
4.551198e+02,2.747965e+03
4.580125e+02,2.741148e+03
4.609052e+02,2.740076e+03
4.637979e+02,2.739977e+03
4.666906e+02,2.715772e+03
4.695833e+02,2.704092e+03
4.724760e+02,2.711773e+03
4.753687e+02,2.680702e+03
4.782614e+02,2.686258e+03
4.811541e+02,2.690596e+03
4.840468e+02,2.677895e+03
4.869395e+02,2.670411e+03
4.898322e+02,2.655617e+03
4.927249e+02,2.652490e+03
4.956176e+02,2.656539e+03
4.985103e+02,2.639542e+03
5.014030e+02,2.647778e+03
5.042957e+02,2.633054e+03
5.071884e+02,2.624737e+03
5.100811e+02,2.633660e+03
5.129738e+02,2.617263e+03
5.158665e+02,2.612167e+03
5.187592e+02,2.596578e+03
5.216519e+02,2.588286e+03
5.245446e+02,2.575258e+03
5.274373e+02,2.573584e+03
5.303300e+02,2.574425e+03
5.332227e+02,2.572223e+03
5.361154e+02,2.549020e+03
5.390081e+02,2.533638e+03
5.419008e+02,2.538681e+03
5.447935e+02,2.514597e+03
5.476862e+02,2.516261e+03
5.505789e+02,2.508647e+03
5.534716e+02,2.512541e+03
5.563643e+02,2.508732e+03
5.592570e+02,2.509156e+03
5.621497e+02,2.500209e+03
5.650424e+02,2.480007e+03
5.679351e+02,2.483110e+03
5.708278e+02,2.458807e+03
5.737205e+02,2.469946e+03
5.766132e+02,2.464928e+03
5.795059e+02,2.451242e+03
5.823986e+02,2.447819e+03
5.852913e+02,2.459968e+03
5.881840e+02,2.434855e+03
5.910767e+02,2.441096e+03
5.939694e+02,2.431469e+03
5.968621e+02,2.420133e+03
5.997548e+02,2.416212e+03
6.026475e+02,2.426742e+03
6.055402e+02,2.413656e+03
6.084329e+02,2.401689e+03
6.113256e+02,2.401233e+03
6.142183e+02,2.388686e+03
6.171110e+02,2.385163e+03
6.200037e+02,2.378333e+03
6.228964e+02,2.385026e+03
6.257891e+02,2.374230e+03
6.286818e+02,2.373004e+03
6.315745e+02,2.369458e+03
6.344672e+02,2.354348e+03
6.373599e+02,2.335216e+03
6.402526e+02,2.334278e+03
6.431453e+02,2.331655e+03
6.460380e+02,2.312049e+03
6.489307e+02,2.316866e+03
6.518234e+02,2.318948e+03
6.547161e+02,2.303350e+03
6.576088e+02,2.300996e+03
6.605015e+02,2.294476e+03
6.633942e+02,2.289134e+03
6.662869e+02,2.289241e+03
6.691796e+02,2.286948e+03
6.720723e+02,2.287004e+03
6.749650e+02,2.272954e+03
6.778577e+02,2.261169e+03
6.807504e+02,2.269225e+03
6.836431e+02,2.268469e+03
6.865358e+02,2.243250e+03
6.894285e+02,2.232411e+03
6.923212e+02,2.249522e+03
6.952139e+02,2.224219e+03
6.981066e+02,2.225899e+03
7.009993e+02,2.229464e+03
7.038920e+02,2.221668e+03
7.067847e+02,2.217511e+03
7.096774e+02,2.214109e+03
7.125701e+02,2.192804e+03
7.154628e+02,2.182754e+03
7.183555e+02,2.195450e+03
7.212482e+02,2.185973e+03
7.241409e+02,2.174929e+03
7.270336e+02,2.184879e+03
7.299263e+02,2.170927e+03
7.328190e+02,2.162184e+03
7.357117e+02,2.159640e+03
7.386044e+02,2.152941e+03
7.414971e+02,2.146536e+03
7.443898e+02,2.143171e+03
7.472825e+02,2.143295e+03
7.501752e+02,2.136594e+03
7.530679e+02,2.133088e+03
7.559606e+02,2.127427e+03
7.588533e+02,2.132053e+03
7.617460e+02,2.123599e+03
7.646387e+02,2.108776e+03
7.675314e+02,2.117481e+03
7.704241e+02,2.115255e+03
7.733168e+02,2.103970e+03
7.762095e+02,2.094306e+03
7.791022e+02,2.093822e+03
7.819949e+02,2.081776e+03
7.848876e+02,2.082579e+03
7.877803e+02,2.086016e+03
7.906730e+02,2.093093e+03
7.935657e+02,2.077825e+03
7.964584e+02,2.060760e+03
7.993511e+02,2.065474e+03
8.022438e+02,2.048254e+03
8.051365e+02,2.060373e+03
8.080292e+02,2.069935e+03
8.109219e+02,2.046762e+03
8.138146e+02,2.061616e+03
8.167073e+02,2.042910e+03
8.196000e+02,2.037969e+03
8.224927e+02,2.044058e+03
8.253854e+02,2.046518e+03
8.282781e+02,2.028474e+03
8.311708e+02,2.033318e+03
8.340635e+02,2.016618e+03
8.369562e+02,2.036686e+03
8.398489e+02,2.017009e+03
8.427416e+02,2.028878e+03
8.456343e+02,2.015380e+03
8.485270e+02,2.010119e+03
8.514197e+02,2.009582e+03
8.543124e+02,2.010506e+03
8.572051e+02,2.013523e+03
8.600978e+02,2.004424e+03
8.629905e+02,2.009565e+03
8.658832e+02,2.002163e+03
8.687759e+02,1.983337e+03
8.716686e+02,2.006148e+03
8.745613e+02,2.000186e+03
8.774540e+02,2.003944e+03
8.803467e+02,2.004971e+03
8.832394e+02,1.992991e+03
8.861321e+02,1.993452e+03
8.890248e+02,1.983207e+03
8.919175e+02,1.968505e+03
8.948102e+02,1.958331e+03
8.977029e+02,1.972540e+03
9.005956e+02,1.970990e+03
9.034883e+02,1.955224e+03
9.063810e+02,1.969366e+03
9.092737e+02,1.948124e+03
9.121664e+02,1.961188e+03
9.150591e+02,1.955483e+03
9.179518e+02,1.954112e+03
9.208445e+02,1.943695e+03
9.237372e+02,1.945288e+03
9.266299e+02,1.947337e+03
9.295226e+02,1.948559e+03
9.324153e+02,1.927408e+03
9.353080e+02,1.935089e+03
9.382007e+02,1.927416e+03
9.410934e+02,1.931340e+03
9.439861e+02,1.933514e+03
9.468788e+02,1.940046e+03
9.497715e+02,1.939549e+03
9.526642e+02,1.935429e+03
9.555569e+02,1.917399e+03
9.584496e+02,1.921366e+03
9.613423e+02,1.926295e+03
9.642350e+02,1.925519e+03
9.671277e+02,1.932365e+03
9.700204e+02,1.928611e+03
9.729131e+02,1.899432e+03
9.758058e+02,1.917203e+03
9.786985e+02,1.913526e+03
9.815912e+02,1.918092e+03
9.844839e+02,1.915023e+03
9.873766e+02,1.900300e+03
9.902693e+02,1.913921e+03
9.931620e+02,1.917318e+03
9.960547e+02,1.914849e+03
9.989474e+02,1.919227e+03
1.001840e+03,1.915678e+03
1.004733e+03,1.905499e+03
1.007626e+03,1.917602e+03
1.010518e+03,1.917958e+03
1.013411e+03,1.904482e+03
1.016304e+03,1.893804e+03
1.019196e+03,1.905407e+03
1.022089e+03,1.909807e+03
1.024982e+03,1.908672e+03
1.027875e+03,1.908547e+03
1.030767e+03,1.904361e+03
1.033660e+03,1.907188e+03
1.036552e+03,1.909215e+03
1.039445e+03,1.918449e+03
1.042338e+03,1.909993e+03
1.045231e+03,1.917323e+03
1.048123e+03,1.903205e+03
1.051016e+03,1.915559e+03
1.053909e+03,1.915648e+03
1.056802e+03,1.912047e+03
1.059694e+03,1.923452e+03
1.062587e+03,1.916241e+03
1.065479e+03,1.914721e+03
1.068372e+03,1.919695e+03
1.071265e+03,1.933752e+03
1.074158e+03,1.930773e+03
1.077050e+03,1.923485e+03
1.079943e+03,1.923910e+03
1.082836e+03,1.927718e+03
1.085729e+03,1.935901e+03
1.088621e+03,1.937862e+03
1.091514e+03,1.951142e+03
1.094406e+03,1.940427e+03
1.097299e+03,1.943801e+03
1.100192e+03,1.939080e+03
1.103085e+03,1.938854e+03
1.105977e+03,1.937707e+03
1.108870e+03,1.944227e+03
1.111763e+03,1.942368e+03
1.114656e+03,1.953799e+03
1.117548e+03,1.962690e+03
1.120441e+03,1.967535e+03
1.123334e+03,1.956342e+03
1.126226e+03,1.947856e+03
1.129119e+03,1.960658e+03
1.132012e+03,1.944957e+03
1.134904e+03,1.950411e+03
1.137797e+03,1.935915e+03
1.140690e+03,1.943996e+03
1.143583e+03,1.947433e+03
1.146475e+03,1.946842e+03
1.149368e+03,1.951210e+03
1.152261e+03,1.953009e+03
1.155153e+03,1.950284e+03
1.158046e+03,1.946213e+03
1.160939e+03,1.958495e+03
1.163831e+03,1.967460e+03
1.166724e+03,1.956743e+03
1.169617e+03,1.971659e+03
1.172510e+03,1.962606e+03
1.175402e+03,1.960542e+03
1.178295e+03,1.955804e+03
1.181188e+03,1.962020e+03
1.184080e+03,1.963524e+03
1.186973e+03,1.955835e+03
1.189866e+03,1.956603e+03
1.192758e+03,1.958781e+03
1.195651e+03,1.958094e+03
1.198544e+03,1.953706e+03
1.201437e+03,1.963874e+03
1.204329e+03,1.952551e+03
1.207222e+03,1.950314e+03
1.210115e+03,1.950532e+03
1.213007e+03,1.970099e+03
1.215900e+03,1.959118e+03
1.218793e+03,1.958084e+03
1.221685e+03,1.972346e+03
1.224578e+03,1.985422e+03
1.227471e+03,1.978140e+03
1.230364e+03,1.978050e+03
1.233256e+03,1.975680e+03
1.236149e+03,1.978693e+03
1.239042e+03,1.969410e+03
1.241934e+03,1.983281e+03
1.244827e+03,1.973810e+03
1.247720e+03,1.985535e+03
1.250612e+03,1.992032e+03
1.253505e+03,1.973850e+03
1.256398e+03,1.976243e+03
1.259291e+03,1.986000e+03
1.262183e+03,1.972249e+03
1.265076e+03,1.976552e+03
1.267969e+03,1.980101e+03
1.270861e+03,1.976102e+03
1.273754e+03,1.997059e+03
1.276647e+03,1.987829e+03
1.279539e+03,1.983269e+03
1.282432e+03,1.978419e+03
1.285325e+03,1.977749e+03
1.288218e+03,1.995955e+03
1.291110e+03,1.977344e+03
1.294003e+03,1.991285e+03
1.296896e+03,1.993969e+03
1.299788e+03,1.975854e+03
1.302681e+03,1.974245e+03
1.305574e+03,1.982639e+03
1.308466e+03,1.974147e+03
1.311359e+03,1.970783e+03
1.314252e+03,1.972972e+03
1.317145e+03,1.966703e+03
1.320037e+03,1.985783e+03
1.322930e+03,1.982850e+03
1.325823e+03,1.983725e+03
1.328715e+03,1.991080e+03
1.331608e+03,1.979125e+03
1.334501e+03,1.986939e+03
1.337393e+03,1.988146e+03
1.340286e+03,1.980694e+03
1.343179e+03,1.972410e+03
1.346072e+03,1.964537e+03
1.348964e+03,1.966912e+03
1.351857e+03,1.965196e+03
1.354750e+03,1.949908e+03
1.357642e+03,1.957787e+03
1.360535e+03,1.956158e+03
1.363428e+03,1.952600e+03
1.366320e+03,1.953911e+03
1.369213e+03,1.953764e+03
1.372106e+03,1.942509e+03
1.374999e+03,1.939267e+03
1.377891e+03,1.945841e+03
1.380784e+03,1.945472e+03
1.383677e+03,1.940008e+03
1.386569e+03,1.925026e+03
1.389462e+03,1.920166e+03
1.392355e+03,1.928713e+03
1.395247e+03,1.913902e+03
1.398140e+03,1.908460e+03
1.401033e+03,1.901677e+03
1.403926e+03,1.907236e+03
1.406818e+03,1.907197e+03
1.409711e+03,1.910596e+03
1.412604e+03,1.906028e+03
1.415496e+03,1.889831e+03
1.418389e+03,1.899490e+03
1.421282e+03,1.887727e+03
1.424174e+03,1.882854e+03
1.427067e+03,1.880799e+03
1.429960e+03,1.879650e+03
1.432853e+03,1.870987e+03
1.435745e+03,1.874097e+03
1.438638e+03,1.869352e+03
1.441531e+03,1.866495e+03
1.444423e+03,1.848158e+03
1.447316e+03,1.855985e+03
1.450209e+03,1.846626e+03
1.453101e+03,1.845211e+03
1.455994e+03,1.847798e+03
1.458887e+03,1.849838e+03
1.461780e+03,1.834971e+03
1.464672e+03,1.838739e+03
1.467565e+03,1.817532e+03
1.470458e+03,1.814270e+03
1.473350e+03,1.813192e+03
1.476243e+03,1.808230e+03
1.479136e+03,1.803524e+03
1.482028e+03,1.807881e+03
1.484921e+03,1.794106e+03
1.487814e+03,1.787217e+03
1.490707e+03,1.784233e+03
1.493599e+03,1.795111e+03
1.496492e+03,1.781624e+03
1.499385e+03,1.757473e+03
1.502277e+03,1.768280e+03
1.505170e+03,1.764810e+03
1.508063e+03,1.752865e+03
1.510955e+03,1.747428e+03
1.513848e+03,1.742873e+03
1.516741e+03,1.737798e+03
1.519634e+03,1.742960e+03
1.522526e+03,1.738514e+03
1.525419e+03,1.746544e+03
1.528312e+03,1.719880e+03
1.531204e+03,1.720886e+03
1.534097e+03,1.711073e+03
1.536990e+03,1.716137e+03
1.539882e+03,1.700530e+03
1.542775e+03,1.700435e+03
1.545668e+03,1.681699e+03
1.548561e+03,1.687964e+03
1.551453e+03,1.684689e+03
1.554346e+03,1.695198e+03
1.557239e+03,1.679931e+03
1.560131e+03,1.668263e+03
1.563024e+03,1.670242e+03
1.565917e+03,1.670788e+03
1.568809e+03,1.663728e+03
1.571702e+03,1.658577e+03
1.574595e+03,1.663855e+03
1.577488e+03,1.642784e+03
1.580380e+03,1.643969e+03
1.583273e+03,1.643855e+03
1.586166e+03,1.638468e+03
1.589058e+03,1.623713e+03
1.591951e+03,1.619620e+03
1.594844e+03,1.615839e+03
1.597736e+03,1.610585e+03
1.600629e+03,1.613397e+03
1.603522e+03,1.613623e+03
1.606415e+03,1.609971e+03
1.609307e+03,1.610424e+03
1.612200e+03,1.624424e+03
1.615093e+03,1.601874e+03
1.617985e+03,1.583532e+03
1.620878e+03,1.583369e+03
1.623771e+03,1.553702e+03
1.626663e+03,1.564741e+03
1.629556e+03,1.560985e+03
1.632449e+03,1.548223e+03
1.635342e+03,1.539794e+03
1.638234e+03,1.529630e+03
1.641127e+03,1.517662e+03
1.644020e+03,1.518512e+03
1.646912e+03,1.519734e+03
1.649805e+03,1.511294e+03
1.652698e+03,1.510844e+03
1.655590e+03,1.500893e+03
1.658483e+03,1.489590e+03
1.661376e+03,1.497086e+03
1.664269e+03,1.476895e+03
1.667161e+03,1.481306e+03
1.670054e+03,1.466199e+03
1.672947e+03,1.459844e+03
1.675839e+03,1.450158e+03
1.678732e+03,1.456386e+03
1.681625e+03,1.450934e+03
1.684517e+03,1.434352e+03
1.687410e+03,1.434014e+03
1.690303e+03,1.440299e+03
1.693196e+03,1.445051e+03
1.696088e+03,1.422917e+03
1.698981e+03,1.423359e+03
1.701874e+03,1.426225e+03
1.704766e+03,1.421006e+03
1.707659e+03,1.405364e+03
1.710552e+03,1.404066e+03
1.713444e+03,1.384227e+03
1.716337e+03,1.392761e+03
1.719230e+03,1.391668e+03
1.722123e+03,1.388363e+03
1.725015e+03,1.398445e+03
1.727908e+03,1.382221e+03
1.730801e+03,1.371066e+03
1.733693e+03,1.365150e+03
1.736586e+03,1.360452e+03
1.739479e+03,1.354266e+03
1.742371e+03,1.351142e+03
1.745264e+03,1.342108e+03
1.748157e+03,1.330441e+03
1.751050e+03,1.337641e+03
1.753942e+03,1.321617e+03
1.756835e+03,1.318493e+03
1.759728e+03,1.306796e+03
1.762620e+03,1.299206e+03
1.765513e+03,1.302918e+03
1.768406e+03,1.301504e+03
1.771298e+03,1.305744e+03
1.774191e+03,1.300176e+03
1.777084e+03,1.286884e+03
1.779977e+03,1.274254e+03
1.782869e+03,1.269435e+03
1.785762e+03,1.276875e+03
1.788655e+03,1.265224e+03
1.791547e+03,1.257927e+03
1.794440e+03,1.253187e+03
1.797333e+03,1.253711e+03
1.800225e+03,1.254963e+03
1.803118e+03,1.236833e+03
1.806011e+03,1.230792e+03
1.808904e+03,1.233584e+03
1.811796e+03,1.222025e+03
1.814689e+03,1.222849e+03
1.817582e+03,1.222395e+03
1.820474e+03,1.211225e+03
1.823367e+03,1.195991e+03
1.826260e+03,1.200510e+03
1.829152e+03,1.197867e+03
1.832045e+03,1.192417e+03
1.834938e+03,1.194485e+03
1.837831e+03,1.168698e+03
1.840723e+03,1.167127e+03
1.843616e+03,1.175665e+03
1.846509e+03,1.178404e+03
1.849401e+03,1.170228e+03
1.852294e+03,1.167985e+03
1.855187e+03,1.150674e+03
1.858079e+03,1.151594e+03
1.860972e+03,1.147235e+03
1.863865e+03,1.151904e+03
1.866758e+03,1.140452e+03
1.869650e+03,1.151917e+03
1.872543e+03,1.134919e+03
1.875436e+03,1.116530e+03
1.878328e+03,1.121201e+03
1.881221e+03,1.107714e+03
1.884114e+03,1.097534e+03
1.887006e+03,1.106083e+03
1.889899e+03,1.087885e+03
1.892792e+03,1.091920e+03
1.895685e+03,1.090962e+03
1.898577e+03,1.097068e+03
1.901470e+03,1.086321e+03
1.904363e+03,1.091615e+03
1.907255e+03,1.080209e+03
1.910148e+03,1.079550e+03
1.913041e+03,1.068784e+03
1.915933e+03,1.065194e+03
1.918826e+03,1.057865e+03
1.921719e+03,1.059289e+03
1.924612e+03,1.058431e+03
1.927504e+03,1.055655e+03
1.930397e+03,1.050907e+03
1.933290e+03,1.030231e+03
1.936182e+03,1.049126e+03
1.939075e+03,1.027127e+03
1.941968e+03,1.018286e+03
1.944860e+03,1.025089e+03
1.947753e+03,1.021034e+03
1.950646e+03,1.009919e+03
1.953539e+03,1.003039e+03
1.956431e+03,1.003679e+03
1.959324e+03,9.985935e+02
1.962217e+03,9.968959e+02
1.965109e+03,1.002479e+03
1.968002e+03,9.851257e+02
1.970895e+03,9.979046e+02
1.973787e+03,9.756568e+02
1.976680e+03,9.908556e+02
1.979573e+03,9.748336e+02
1.982466e+03,9.771388e+02
1.985358e+03,9.785533e+02
1.988251e+03,9.643556e+02
1.991144e+03,9.530547e+02
1.994036e+03,9.566868e+02
1.996929e+03,9.747858e+02
1.999822e+03,9.585261e+02
2.002714e+03,9.520043e+02
2.005607e+03,9.478771e+02
2.008500e+03,9.369040e+02
2.011393e+03,9.382916e+02
2.014285e+03,9.464453e+02
2.017178e+03,9.342697e+02
2.020071e+03,9.227221e+02
2.022963e+03,9.213488e+02
2.025856e+03,9.115201e+02
2.028749e+03,9.161265e+02
2.031641e+03,9.179507e+02
2.034534e+03,9.220854e+02
2.037427e+03,9.016223e+02
2.040320e+03,8.979825e+02
2.043212e+03,9.140969e+02
2.046105e+03,8.974773e+02
2.048998e+03,9.072012e+02
2.051890e+03,8.815203e+02
2.054783e+03,8.890394e+02
2.057676e+03,8.854257e+02
2.060568e+03,8.725908e+02
2.063461e+03,8.821146e+02
2.066354e+03,8.695250e+02
2.069247e+03,8.649921e+02
2.072139e+03,8.703881e+02
2.075032e+03,8.686469e+02
2.077925e+03,8.598471e+02
2.080817e+03,8.607211e+02
2.083710e+03,8.551381e+02
2.086603e+03,8.458687e+02
2.089496e+03,8.543848e+02
2.092388e+03,8.445950e+02
2.095281e+03,8.451491e+02
2.098174e+03,8.455603e+02
2.101066e+03,8.377922e+02
2.103959e+03,8.397891e+02
2.106852e+03,8.416039e+02
2.109744e+03,8.369142e+02
2.112637e+03,8.233821e+02
2.115530e+03,8.238332e+02
2.118422e+03,8.125172e+02
2.121315e+03,8.227078e+02
2.124208e+03,8.191212e+02
2.127101e+03,8.157818e+02
2.129993e+03,8.165174e+02
2.132886e+03,8.106571e+02
2.135779e+03,8.019708e+02
2.138671e+03,7.963250e+02
2.141564e+03,8.014290e+02
2.144457e+03,8.050423e+02
2.147350e+03,7.936634e+02
2.150242e+03,7.918615e+02
2.153135e+03,7.891321e+02
2.156028e+03,7.745639e+02
2.158920e+03,7.705197e+02
2.161813e+03,7.747891e+02
2.164706e+03,7.842625e+02
2.167598e+03,7.746624e+02
2.170491e+03,7.564830e+02
2.173384e+03,7.641528e+02
2.176277e+03,7.750377e+02
2.179169e+03,7.562742e+02
2.182062e+03,7.566027e+02
2.184955e+03,7.599510e+02
2.187847e+03,7.539128e+02
2.190740e+03,7.555273e+02
2.193633e+03,7.406613e+02
2.196525e+03,7.484340e+02
2.199418e+03,7.416049e+02
2.202311e+03,7.400980e+02
2.205204e+03,7.460211e+02
2.208096e+03,7.428217e+02
2.210989e+03,7.329867e+02
2.213882e+03,7.256614e+02
2.216774e+03,7.348248e+02
2.219667e+03,7.306498e+02
2.222560e+03,7.149766e+02
2.225452e+03,7.215726e+02
2.228345e+03,7.268289e+02
2.231238e+03,7.233686e+02
2.234131e+03,7.131534e+02
2.237023e+03,7.102894e+02
2.239916e+03,7.108647e+02
2.242809e+03,7.048278e+02
2.245701e+03,7.092794e+02
2.248594e+03,7.010079e+02
2.251487e+03,7.045842e+02
2.254379e+03,6.950672e+02
2.257272e+03,6.884597e+02
2.260165e+03,6.801359e+02
2.263058e+03,6.932672e+02
2.265950e+03,6.881583e+02
2.268843e+03,6.859520e+02
2.271736e+03,6.840681e+02
2.274628e+03,6.943029e+02
2.277521e+03,6.799503e+02
2.280414e+03,6.762553e+02
2.283306e+03,6.879369e+02
2.286199e+03,6.774184e+02
2.289092e+03,6.663121e+02
2.291985e+03,6.733989e+02
2.294877e+03,6.734752e+02
2.297770e+03,6.704274e+02
2.300663e+03,6.701449e+02
2.303555e+03,6.666435e+02
2.306448e+03,6.709782e+02
2.309341e+03,6.633806e+02
2.312233e+03,6.696935e+02
2.315126e+03,6.537825e+02
2.318019e+03,6.467987e+02
2.320912e+03,6.581569e+02
2.323804e+03,6.370873e+02
2.326697e+03,6.543558e+02
2.329590e+03,6.400831e+02
2.332482e+03,6.432204e+02
2.335375e+03,6.434620e+02
2.338268e+03,6.467374e+02
2.341160e+03,6.367258e+02
2.344053e+03,6.356849e+02
2.346946e+03,6.368319e+02
2.349839e+03,6.362686e+02
2.352731e+03,6.358162e+02
2.355624e+03,6.325851e+02
2.358517e+03,6.435518e+02
2.361409e+03,6.381105e+02
2.364302e+03,6.287116e+02
2.367195e+03,6.264502e+02
2.370087e+03,6.397709e+02
2.372980e+03,6.234435e+02
2.375873e+03,6.286570e+02
2.378766e+03,6.177461e+02
2.381658e+03,6.216059e+02
2.384551e+03,6.163397e+02
2.387444e+03,6.203950e+02
2.390336e+03,6.214529e+02
2.393229e+03,6.240644e+02
2.396122e+03,6.199806e+02
2.399014e+03,6.041884e+02
2.401907e+03,6.119189e+02
2.404800e+03,6.057082e+02
2.407693e+03,6.118654e+02
2.410585e+03,6.054553e+02
2.413478e+03,6.004249e+02
2.416371e+03,6.019891e+02
2.419263e+03,6.027365e+02
2.422156e+03,6.036839e+02
2.425049e+03,6.164520e+02
2.427941e+03,5.963264e+02
2.430834e+03,6.018339e+02
2.433727e+03,5.961672e+02
2.436620e+03,5.952957e+02
2.439512e+03,5.887144e+02
2.442405e+03,5.875967e+02
2.445298e+03,5.987646e+02
2.448190e+03,5.834864e+02
2.451083e+03,5.787984e+02
2.453976e+03,5.881356e+02
2.456868e+03,5.870307e+02
2.459761e+03,5.829005e+02
2.462654e+03,5.813369e+02
2.465547e+03,5.781995e+02
2.468439e+03,5.722401e+02
2.471332e+03,5.864310e+02
2.474225e+03,5.827784e+02
2.477117e+03,5.785586e+02
2.480010e+03,5.749550e+02
2.482903e+03,5.809151e+02
2.485795e+03,5.761237e+02
2.488688e+03,5.802114e+02
2.491581e+03,5.787106e+02
2.494474e+03,5.706542e+02
2.497366e+03,5.836348e+02
2.500259e+03,5.658801e+02
2.503152e+03,5.632328e+02
2.506044e+03,5.633187e+02
2.508937e+03,5.657674e+02
2.511830e+03,5.670731e+02
2.514722e+03,5.681364e+02
2.517615e+03,5.618288e+02
2.520508e+03,5.594069e+02
2.523401e+03,5.554666e+02
2.526293e+03,5.609996e+02
2.529186e+03,5.581707e+02
2.532079e+03,5.660959e+02
2.534971e+03,5.619493e+02
2.537864e+03,5.593162e+02
2.540757e+03,5.619950e+02
2.543649e+03,5.506442e+02
2.546542e+03,5.680615e+02
2.549435e+03,5.498849e+02
2.552328e+03,5.505173e+02
2.555220e+03,5.595544e+02
2.558113e+03,5.609357e+02
2.561006e+03,5.579695e+02
2.563898e+03,5.579744e+02
2.566791e+03,5.569453e+02
2.569684e+03,5.423915e+02
2.572576e+03,5.364781e+02
2.575469e+03,5.530990e+02
2.578362e+03,5.458292e+02
2.581255e+03,5.373141e+02
2.584147e+03,5.385291e+02
2.587040e+03,5.315847e+02
2.589933e+03,5.450657e+02
2.592825e+03,5.391697e+02
2.595718e+03,5.366050e+02
2.598611e+03,5.334213e+02
2.601503e+03,5.400762e+02
2.604396e+03,5.416140e+02
2.607289e+03,5.337933e+02
2.610182e+03,5.351853e+02
2.613074e+03,5.322701e+02
2.615967e+03,5.341586e+02
2.618860e+03,5.305212e+02
2.621752e+03,5.390899e+02
2.624645e+03,5.329406e+02
2.627538e+03,5.320792e+02
2.630430e+03,5.404628e+02
2.633323e+03,5.158901e+02
2.636216e+03,5.210691e+02
2.639109e+03,5.251863e+02
2.642001e+03,5.307203e+02
2.644894e+03,5.036270e+02
2.647787e+03,5.287279e+02
2.650679e+03,5.237865e+02
2.653572e+03,5.196332e+02
2.656465e+03,5.213456e+02
2.659357e+03,5.204245e+02
2.662250e+03,5.143735e+02
2.665143e+03,5.221467e+02
2.668036e+03,5.171571e+02
2.670928e+03,5.154030e+02
2.673821e+03,5.127460e+02
2.676714e+03,5.146467e+02
2.679606e+03,5.156484e+02
2.682499e+03,5.036507e+02
2.685392e+03,5.181883e+02
2.688284e+03,5.069197e+02
2.691177e+03,4.835732e+02
2.694070e+03,5.023720e+02
2.696963e+03,5.077276e+02
2.699855e+03,5.013506e+02
2.702748e+03,5.055763e+02
2.705641e+03,5.071434e+02
2.708533e+03,4.996889e+02
2.711426e+03,4.988989e+02
2.714319e+03,4.882375e+02
2.717211e+03,5.024067e+02
2.720104e+03,4.989468e+02
2.722997e+03,4.897210e+02
2.725890e+03,4.900039e+02
2.728782e+03,5.084260e+02
2.731675e+03,4.875464e+02
2.734568e+03,4.992916e+02
2.737460e+03,4.996646e+02
2.740353e+03,4.767311e+02
2.743246e+03,5.006879e+02
2.746138e+03,4.773686e+02
2.749031e+03,4.836848e+02
2.751924e+03,4.826269e+02
2.754817e+03,4.807426e+02
2.757709e+03,4.816295e+02
2.760602e+03,4.765430e+02
2.763495e+03,4.841481e+02
2.766387e+03,4.748466e+02
2.769280e+03,4.782736e+02
2.772173e+03,4.744159e+02
2.775065e+03,4.680653e+02
2.777958e+03,4.629884e+02
2.780851e+03,4.828427e+02
2.783744e+03,4.529991e+02
2.786636e+03,4.734936e+02
2.789529e+03,4.724720e+02
2.792422e+03,4.805213e+02
2.795314e+03,4.719414e+02
2.798207e+03,4.746917e+02
2.801100e+03,4.746156e+02
2.803992e+03,4.809073e+02
2.806885e+03,4.623402e+02
2.809778e+03,4.655361e+02
2.812671e+03,4.518548e+02
2.815563e+03,4.710675e+02
2.818456e+03,4.605461e+02
2.821349e+03,4.520834e+02
2.824241e+03,4.536831e+02
2.827134e+03,4.458174e+02
2.830027e+03,4.677032e+02
2.832919e+03,4.644258e+02
2.835812e+03,4.643869e+02
2.838705e+03,4.681042e+02
2.841598e+03,4.447912e+02
2.844490e+03,4.519619e+02
2.847383e+03,4.572798e+02
2.850276e+03,4.399486e+02
2.853168e+03,4.546137e+02
2.856061e+03,4.541944e+02
2.858954e+03,4.490096e+02
2.861846e+03,4.519663e+02
2.864739e+03,4.495136e+02
2.867632e+03,4.569456e+02
2.870525e+03,4.446884e+02
2.873417e+03,4.592210e+02
2.876310e+03,4.553934e+02
2.879203e+03,4.571932e+02
2.882095e+03,4.480109e+02
2.884988e+03,4.558675e+02
2.887881e+03,4.627950e+02
2.890773e+03,4.410431e+02
2.893666e+03,4.656267e+02
2.896559e+03,4.593574e+02
2.899452e+03,4.471317e+02
2.902344e+03,4.537371e+02
2.905237e+03,4.322739e+02
2.908130e+03,4.361153e+02
2.911022e+03,4.249200e+02
2.913915e+03,4.501077e+02
2.916808e+03,4.339153e+02
2.919700e+03,4.357846e+02
2.922593e+03,4.439619e+02
2.925486e+03,4.324962e+02
2.928379e+03,4.177750e+02
2.931271e+03,4.277208e+02
2.934164e+03,4.297982e+02
2.937057e+03,4.282552e+02
2.939949e+03,4.247701e+02
2.942842e+03,4.430552e+02
2.945735e+03,4.269911e+02
2.948627e+03,4.415829e+02
2.951520e+03,4.257257e+02
2.954413e+03,4.332140e+02
2.957306e+03,4.755612e+02
2.960198e+03,4.371832e+02
2.963091e+03,4.218949e+02
2.965984e+03,4.115397e+02
2.968876e+03,4.238093e+02
2.971769e+03,4.270591e+02
2.974662e+03,3.954458e+02
2.977554e+03,4.263689e+02
2.980447e+03,4.117537e+02
2.983340e+03,4.062383e+02
2.986233e+03,3.977103e+02
2.989125e+03,4.174493e+02
2.992018e+03,3.946070e+02
2.994911e+03,4.038765e+02
2.997803e+03,4.159553e+02
3.000696e+03,3.847158e+02
3.003589e+03,3.997311e+02
3.006481e+03,3.752765e+02
3.009374e+03,4.122711e+02
3.012267e+03,4.043735e+02
3.015160e+03,3.994589e+02
3.018052e+03,4.120453e+02
3.020945e+03,4.075551e+02
3.023838e+03,4.105230e+02
3.026730e+03,3.935182e+02
3.029623e+03,4.058055e+02
3.032516e+03,3.981767e+02
3.035408e+03,4.034122e+02
3.038301e+03,3.953385e+02
3.041194e+03,3.967416e+02
3.044087e+03,3.806007e+02
3.046979e+03,3.986601e+02
3.049872e+03,3.858805e+02
3.052765e+03,3.894712e+02
3.055657e+03,3.961938e+02
3.058550e+03,3.960066e+02
3.061443e+03,3.911817e+02
3.064335e+03,3.998272e+02
3.067228e+03,3.817468e+02
3.070121e+03,3.939258e+02
3.073014e+03,3.784367e+02
3.075906e+03,4.007953e+02
3.078799e+03,3.963841e+02
3.081692e+03,3.741757e+02
3.084584e+03,3.934258e+02
3.087477e+03,3.830606e+02
3.090370e+03,4.190576e+02
3.093262e+03,3.924632e+02
3.096155e+03,3.634536e+02
3.099048e+03,3.953078e+02
3.101941e+03,3.983925e+02
3.104833e+03,3.796285e+02
3.107726e+03,3.542696e+02
3.110619e+03,3.618837e+02
3.113511e+03,3.778495e+02
3.116404e+03,3.775796e+02
3.119297e+03,3.793472e+02
3.122189e+03,3.917633e+02
3.125082e+03,3.779507e+02
3.127975e+03,3.979079e+02
3.130868e+03,4.050239e+02
3.133760e+03,3.672298e+02
3.136653e+03,3.911851e+02
3.139546e+03,3.980670e+02
3.142438e+03,4.191200e+02
3.145331e+03,3.798247e+02
3.148224e+03,3.697564e+02
3.151116e+03,4.070947e+02
3.154009e+03,3.578368e+02
3.156902e+03,3.784695e+02
3.159795e+03,4.094056e+02
3.162687e+03,4.202164e+02
3.165580e+03,3.988183e+02
3.168473e+03,3.870595e+02
3.171365e+03,3.687956e+02
3.174258e+03,3.931834e+02
3.177151e+03,3.888698e+02
3.180043e+03,3.528876e+02
3.182936e+03,4.071348e+02
3.185829e+03,3.849451e+02
3.188722e+03,3.504254e+02
3.191614e+03,3.903647e+02
3.194507e+03,3.524831e+02
3.197400e+03,3.975195e+02
3.200292e+03,4.174872e+02
3.203185e+03,0.000000e+00
3.206078e+03,0.000000e+00
3.208970e+03,0.000000e+00
3.211863e+03,0.000000e+00
3.214756e+03,0.000000e+00
3.217649e+03,0.000000e+00
3.220541e+03,0.000000e+00
3.223434e+03,0.000000e+00
3.226327e+03,0.000000e+00
3.229219e+03,0.000000e+00
3.232112e+03,0.000000e+00
3.235005e+03,0.000000e+00
3.237897e+03,0.000000e+00
3.240790e+03,0.000000e+00
3.243683e+03,0.000000e+00
3.246576e+03,0.000000e+00
3.249468e+03,0.000000e+00
3.252361e+03,0.000000e+00
3.255254e+03,0.000000e+00
3.258146e+03,0.000000e+00
3.261039e+03,0.000000e+00
3.263932e+03,0.000000e+00
3.266824e+03,0.000000e+00
3.269717e+03,0.000000e+00
3.272610e+03,0.000000e+00
3.275503e+03,0.000000e+00
3.278395e+03,0.000000e+00
3.281288e+03,0.000000e+00
3.284181e+03,0.000000e+00
3.287073e+03,0.000000e+00
3.289966e+03,0.000000e+00
3.292859e+03,0.000000e+00
3.295751e+03,0.000000e+00
3.298644e+03,0.000000e+00
3.301537e+03,0.000000e+00
3.304430e+03,0.000000e+00
3.307322e+03,0.000000e+00
3.310215e+03,0.000000e+00
3.313108e+03,0.000000e+00
3.316000e+03,0.000000e+00
3.318893e+03,0.000000e+00
3.321786e+03,0.000000e+00
3.324678e+03,0.000000e+00
3.327571e+03,0.000000e+00
3.330464e+03,0.000000e+00
3.333357e+03,0.000000e+00
3.336249e+03,0.000000e+00
3.339142e+03,0.000000e+00
3.342035e+03,0.000000e+00
3.344927e+03,0.000000e+00
3.347820e+03,0.000000e+00
3.350713e+03,0.000000e+00
3.353605e+03,0.000000e+00
3.356498e+03,0.000000e+00
3.359391e+03,0.000000e+00
3.362284e+03,0.000000e+00
3.365176e+03,0.000000e+00
3.368069e+03,0.000000e+00
3.370962e+03,0.000000e+00
3.373854e+03,0.000000e+00
3.376747e+03,0.000000e+00
3.379640e+03,0.000000e+00
3.382532e+03,0.000000e+00
3.385425e+03,0.000000e+00
3.388318e+03,0.000000e+00
3.391211e+03,0.000000e+00
3.394103e+03,0.000000e+00
3.396996e+03,0.000000e+00
3.399889e+03,0.000000e+00
3.402781e+03,0.000000e+00
3.405674e+03,0.000000e+00
3.408567e+03,0.000000e+00
3.411459e+03,0.000000e+00
3.414352e+03,0.000000e+00
3.417245e+03,0.000000e+00
3.420138e+03,0.000000e+00
3.423030e+03,0.000000e+00
3.425923e+03,0.000000e+00
3.428816e+03,0.000000e+00
3.431708e+03,0.000000e+00
3.434601e+03,0.000000e+00
3.437494e+03,0.000000e+00
3.440386e+03,0.000000e+00
3.443279e+03,0.000000e+00
3.446172e+03,0.000000e+00
3.449065e+03,0.000000e+00
3.451957e+03,0.000000e+00
3.454850e+03,0.000000e+00
3.457743e+03,0.000000e+00
3.460635e+03,0.000000e+00
3.463528e+03,0.000000e+00
3.466421e+03,0.000000e+00
3.469313e+03,0.000000e+00
3.472206e+03,0.000000e+00
3.475099e+03,0.000000e+00
3.477992e+03,0.000000e+00
3.480884e+03,0.000000e+00
3.483777e+03,0.000000e+00
3.486670e+03,0.000000e+00
3.489563e+03,0.000000e+00
3.492455e+03,0.000000e+00
3.495348e+03,0.000000e+00
3.498240e+03,0.000000e+00
3.500169e+03,0.000000e+00