File: RAMAN_data/13112023_r1/red fibre2.CSV
9.931763e+01,0.000000e+00
1.022103e+02,0.000000e+00
1.051030e+02,0.000000e+00
1.079957e+02,0.000000e+00
1.108884e+02,0.000000e+00
1.137811e+02,0.000000e+00
1.166738e+02,0.000000e+00
1.195665e+02,0.000000e+00
1.224592e+02,0.000000e+00
1.253519e+02,0.000000e+00
1.282446e+02,0.000000e+00
1.311373e+02,0.000000e+00
1.340300e+02,0.000000e+00
1.369227e+02,0.000000e+00
1.398154e+02,0.000000e+00
1.427081e+02,0.000000e+00
1.456008e+02,0.000000e+00
1.484935e+02,0.000000e+00
1.513862e+02,0.000000e+00
1.542789e+02,0.000000e+00
1.571716e+02,0.000000e+00
1.600643e+02,0.000000e+00
1.629570e+02,0.000000e+00
1.658497e+02,0.000000e+00
1.687424e+02,0.000000e+00
1.716351e+02,0.000000e+00
1.745278e+02,0.000000e+00
1.774205e+02,0.000000e+00
1.803132e+02,0.000000e+00
1.832059e+02,0.000000e+00
1.860986e+02,0.000000e+00
1.889913e+02,0.000000e+00
1.918840e+02,0.000000e+00
1.947767e+02,0.000000e+00
1.976694e+02,0.000000e+00
2.005621e+02,8.601184e+03
2.034548e+02,8.583709e+03
2.063475e+02,8.528584e+03
2.092402e+02,8.515684e+03
2.121329e+02,8.473259e+03
2.150256e+02,8.442895e+03
2.179183e+02,8.393450e+03
2.208110e+02,8.370231e+03
2.237037e+02,8.326873e+03
2.265964e+02,8.273327e+03
2.294892e+02,8.209796e+03
2.323819e+02,8.183397e+03
2.352746e+02,8.148253e+03
2.381673e+02,8.130778e+03
2.410600e+02,8.080487e+03
2.439527e+02,8.015490e+03
2.468454e+02,8.026553e+03
2.497381e+02,7.989312e+03
2.526308e+02,7.952729e+03
2.555235e+02,7.916447e+03
2.584161e+02,7.837921e+03
2.613088e+02,7.811399e+03
2.642015e+02,7.806079e+03
2.670942e+02,7.793822e+03
2.699869e+02,7.733482e+03
2.728796e+02,7.691279e+03
2.757723e+02,7.650153e+03
2.786650e+02,7.652767e+03
2.815577e+02,7.595858e+03
2.844504e+02,7.570020e+03
2.873431e+02,7.534250e+03
2.902358e+02,7.476868e+03
2.931285e+02,7.446835e+03
2.960212e+02,7.415455e+03
2.989139e+02,7.375289e+03
3.018066e+02,7.331792e+03
3.046993e+02,7.289363e+03
3.075920e+02,7.271255e+03
3.104847e+02,7.244609e+03
3.133774e+02,7.224289e+03
3.162701e+02,7.193421e+03
3.191628e+02,7.115037e+03
3.220555e+02,7.093028e+03
3.249482e+02,7.071578e+03
3.278409e+02,7.049212e+03
3.307336e+02,7.042630e+03
3.336263e+02,6.991432e+03
3.365190e+02,6.925736e+03
3.394117e+02,6.920477e+03
3.423044e+02,6.886547e+03
3.451971e+02,6.876148e+03
3.480898e+02,6.837594e+03
3.509825e+02,6.774928e+03
3.538752e+02,6.745368e+03
3.567680e+02,6.714553e+03
3.596607e+02,6.707835e+03
3.625534e+02,6.688725e+03
3.654461e+02,6.618712e+03
3.683388e+02,6.587540e+03
3.712315e+02,6.575946e+03
3.741242e+02,6.551317e+03
3.770169e+02,6.524920e+03
3.799096e+02,6.502438e+03
3.828023e+02,6.456577e+03
3.856950e+02,6.433216e+03
3.885877e+02,6.407937e+03
3.914804e+02,6.385812e+03
3.943731e+02,6.335188e+03
3.972658e+02,6.292712e+03
4.001585e+02,6.253088e+03
4.030512e+02,6.255506e+03
4.059439e+02,6.222830e+03
4.088366e+02,6.201964e+03
4.117293e+02,6.178751e+03
4.146220e+02,6.150375e+03
4.175147e+02,6.110788e+03
4.204074e+02,6.104805e+03
4.233001e+02,6.059407e+03
4.261928e+02,6.045303e+03
4.290855e+02,5.989110e+03
4.319782e+02,5.954744e+03
4.348709e+02,5.950566e+03
4.377636e+02,5.938172e+03
4.406563e+02,5.906639e+03
4.435490e+02,5.873448e+03
4.464417e+02,5.850056e+03
4.493344e+02,5.848224e+03
4.522271e+02,5.816092e+03
4.551198e+02,5.779715e+03
4.580125e+02,5.745148e+03
4.609052e+02,5.727484e+03
4.637979e+02,5.699570e+03
4.666906e+02,5.681063e+03
4.695833e+02,5.645409e+03
4.724760e+02,5.620801e+03
4.753687e+02,5.623708e+03
4.782614e+02,5.580866e+03
4.811541e+02,5.567333e+03
4.840468e+02,5.545645e+03
4.869395e+02,5.521364e+03
4.898322e+02,5.502980e+03
4.927249e+02,5.467722e+03
4.956176e+02,5.455438e+03
4.985103e+02,5.439002e+03
5.014030e+02,5.413828e+03
5.042957e+02,5.405679e+03
5.071884e+02,5.399165e+03
5.100811e+02,5.384429e+03
5.129738e+02,5.356541e+03
5.158665e+02,5.329416e+03
5.187592e+02,5.266619e+03
5.216519e+02,5.253333e+03
5.245446e+02,5.224994e+03
5.274373e+02,5.222134e+03
5.303300e+02,5.182746e+03
5.332227e+02,5.150383e+03
5.361154e+02,5.142944e+03
5.390081e+02,5.136911e+03
5.419008e+02,5.101306e+03
5.447935e+02,5.073989e+03
5.476862e+02,5.054607e+03
5.505789e+02,5.047062e+03
5.534716e+02,5.014217e+03
5.563643e+02,4.999876e+03
5.592570e+02,4.967437e+03
5.621497e+02,4.973735e+03
5.650424e+02,4.946601e+03
5.679351e+02,4.915960e+03
5.708278e+02,4.888305e+03
5.737205e+02,4.878695e+03
5.766132e+02,4.881744e+03
5.795059e+02,4.860552e+03
5.823986e+02,4.818150e+03
5.852913e+02,4.785388e+03
5.881840e+02,4.780150e+03
5.910767e+02,4.775092e+03
5.939694e+02,4.747200e+03
5.968621e+02,4.719365e+03
5.997548e+02,4.713889e+03
6.026475e+02,4.683772e+03
6.055402e+02,4.677080e+03
6.084329e+02,4.648756e+03
6.113256e+02,4.633885e+03
6.142183e+02,4.617314e+03
6.171110e+02,4.582212e+03
6.200037e+02,4.582135e+03
6.228964e+02,4.560651e+03
6.257891e+02,4.544747e+03
6.286818e+02,4.543700e+03
6.315745e+02,4.530732e+03
6.344672e+02,4.499456e+03
6.373599e+02,4.476535e+03
6.402526e+02,4.423120e+03
6.431453e+02,4.456337e+03
6.460380e+02,4.405352e+03
6.489307e+02,4.401107e+03
6.518234e+02,4.400690e+03
6.547161e+02,4.369900e+03
6.576088e+02,4.376657e+03
6.605015e+02,4.324074e+03
6.633942e+02,4.311107e+03
6.662869e+02,4.300171e+03
6.691796e+02,4.310739e+03
6.720723e+02,4.290374e+03
6.749650e+02,4.264892e+03
6.778577e+02,4.245471e+03
6.807504e+02,4.248154e+03
6.836431e+02,4.242109e+03
6.865358e+02,4.215816e+03
6.894285e+02,4.196967e+03
6.923212e+02,4.153288e+03
6.952139e+02,4.165576e+03
6.981066e+02,4.160400e+03
7.009993e+02,4.140565e+03
7.038920e+02,4.116593e+03
7.067847e+02,4.097540e+03
7.096774e+02,4.086895e+03
7.125701e+02,4.081353e+03
7.154628e+02,4.054732e+03
7.183555e+02,4.057897e+03
7.212482e+02,4.035955e+03
7.241409e+02,4.030007e+03
7.270336e+02,3.992486e+03
7.299263e+02,3.994442e+03
7.328190e+02,3.983036e+03
7.357117e+02,3.959927e+03
7.386044e+02,3.947660e+03
7.414971e+02,3.956593e+03
7.443898e+02,3.933872e+03
7.472825e+02,3.915809e+03
7.501752e+02,3.910052e+03
7.530679e+02,3.883792e+03
7.559606e+02,3.878926e+03
7.588533e+02,3.891180e+03
7.617460e+02,3.857082e+03
7.646387e+02,3.842509e+03
7.675314e+02,3.840243e+03
7.704241e+02,3.816630e+03
7.733168e+02,3.812890e+03
7.762095e+02,3.814191e+03
7.791022e+02,3.811543e+03
7.819949e+02,3.778035e+03
7.848876e+02,3.768860e+03
7.877803e+02,3.757051e+03
7.906730e+02,3.780605e+03
7.935657e+02,3.772232e+03
7.964584e+02,3.727125e+03
7.993511e+02,3.723058e+03
8.022438e+02,3.709820e+03
8.051365e+02,3.705776e+03
8.080292e+02,3.718599e+03
8.109219e+02,3.708123e+03
8.138146e+02,3.687923e+03
8.167073e+02,3.688830e+03
8.196000e+02,3.682942e+03
8.224927e+02,3.663347e+03
8.253854e+02,3.655018e+03
8.282781e+02,3.640752e+03
8.311708e+02,3.621081e+03
8.340635e+02,3.626583e+03
8.369562e+02,3.624498e+03
8.398489e+02,3.607308e+03
8.427416e+02,3.617121e+03
8.456343e+02,3.612602e+03
8.485270e+02,3.588886e+03
8.514197e+02,3.582640e+03
8.543124e+02,3.591301e+03
8.572051e+02,3.582878e+03
8.600978e+02,3.574498e+03
8.629905e+02,3.555220e+03
8.658832e+02,3.548732e+03
8.687759e+02,3.550296e+03
8.716686e+02,3.541834e+03
8.745613e+02,3.526079e+03
8.774540e+02,3.537873e+03
8.803467e+02,3.525228e+03
8.832394e+02,3.537376e+03
8.861321e+02,3.542742e+03
8.890248e+02,3.510487e+03
8.919175e+02,3.514270e+03
8.948102e+02,3.485635e+03
8.977029e+02,3.495045e+03
9.005956e+02,3.496604e+03
9.034883e+02,3.491194e+03
9.063810e+02,3.477892e+03
9.092737e+02,3.482356e+03
9.121664e+02,3.484893e+03
9.150591e+02,3.460744e+03
9.179518e+02,3.470804e+03
9.208445e+02,3.467336e+03
9.237372e+02,3.461854e+03
9.266299e+02,3.463608e+03
9.295226e+02,3.474647e+03
9.324153e+02,3.442113e+03
9.353080e+02,3.434716e+03
9.382007e+02,3.430665e+03
9.410934e+02,3.439709e+03
9.439861e+02,3.433097e+03
9.468788e+02,3.440793e+03
9.497715e+02,3.440090e+03
9.526642e+02,3.426537e+03
9.555569e+02,3.430885e+03
9.584496e+02,3.412302e+03
9.613423e+02,3.421349e+03
9.642350e+02,3.423025e+03
9.671277e+02,3.433215e+03
9.700204e+02,3.417563e+03
9.729131e+02,3.429396e+03
9.758058e+02,3.420137e+03
9.786985e+02,3.438182e+03
9.815912e+02,3.422290e+03
9.844839e+02,3.406524e+03
9.873766e+02,3.411909e+03
9.902693e+02,3.416288e+03
9.931620e+02,3.422321e+03
9.960547e+02,3.432827e+03
9.989474e+02,3.430909e+03
1.001840e+03,3.428018e+03
1.004733e+03,3.406285e+03
1.007626e+03,3.422193e+03
1.010518e+03,3.439288e+03
1.013411e+03,3.422425e+03
1.016304e+03,3.405959e+03
1.019196e+03,3.426784e+03
1.022089e+03,3.438575e+03
1.024982e+03,3.433959e+03
1.027875e+03,3.422617e+03
1.030767e+03,3.435904e+03
1.033660e+03,3.419780e+03
1.036552e+03,3.438460e+03
1.039445e+03,3.435134e+03
1.042338e+03,3.441756e+03
1.045231e+03,3.445406e+03
1.048123e+03,3.420299e+03
1.051016e+03,3.440571e+03
1.053909e+03,3.465079e+03
1.056802e+03,3.471715e+03
1.059694e+03,3.464181e+03
1.062587e+03,3.465996e+03
1.065479e+03,3.481426e+03
1.068372e+03,3.496108e+03
1.071265e+03,3.488846e+03
1.074158e+03,3.515338e+03
1.077050e+03,3.501703e+03
1.079943e+03,3.499807e+03
1.082836e+03,3.524446e+03
1.085729e+03,3.514747e+03
1.088621e+03,3.537087e+03
1.091514e+03,3.543265e+03
1.094406e+03,3.546215e+03
1.097299e+03,3.559679e+03
1.100192e+03,3.555960e+03
1.103085e+03,3.565970e+03
1.105977e+03,3.574803e+03
1.108870e+03,3.554485e+03
1.111763e+03,3.564155e+03
1.114656e+03,3.586376e+03
1.117548e+03,3.614227e+03
1.120441e+03,3.628909e+03
1.123334e+03,3.620770e+03
1.126226e+03,3.622282e+03
1.129119e+03,3.616827e+03
1.132012e+03,3.630748e+03
1.134904e+03,3.630337e+03
1.137797e+03,3.633144e+03
1.140690e+03,3.628899e+03
1.143583e+03,3.634965e+03
1.146475e+03,3.640839e+03
1.149368e+03,3.644383e+03
1.152261e+03,3.673022e+03
1.155153e+03,3.661145e+03
1.158046e+03,3.667339e+03
1.160939e+03,3.676285e+03
1.163831e+03,3.698236e+03
1.166724e+03,3.725449e+03
1.169617e+03,3.705307e+03
1.172510e+03,3.719112e+03
1.175402e+03,3.723597e+03
1.178295e+03,3.723775e+03
1.181188e+03,3.724562e+03
1.184080e+03,3.723008e+03
1.186973e+03,3.728461e+03
1.189866e+03,3.732167e+03
1.192758e+03,3.741188e+03
1.195651e+03,3.753464e+03
1.198544e+03,3.741590e+03
1.201437e+03,3.762187e+03
1.204329e+03,3.760094e+03
1.207222e+03,3.755459e+03
1.210115e+03,3.771031e+03
1.213007e+03,3.769244e+03
1.215900e+03,3.767442e+03
1.218793e+03,3.792101e+03
1.221685e+03,3.807835e+03
1.224578e+03,3.805347e+03
1.227471e+03,3.821352e+03
1.230364e+03,3.819606e+03
1.233256e+03,3.799244e+03
1.236149e+03,3.821497e+03
1.239042e+03,3.840107e+03
1.241934e+03,3.853249e+03
1.244827e+03,3.840795e+03
1.247720e+03,3.838771e+03
1.250612e+03,3.844073e+03
1.253505e+03,3.851153e+03
1.256398e+03,3.875738e+03
1.259291e+03,3.867217e+03
1.262183e+03,3.855122e+03
1.265076e+03,3.856603e+03
1.267969e+03,3.867622e+03
1.270861e+03,3.880270e+03
1.273754e+03,3.895498e+03
1.276647e+03,3.900890e+03
1.279539e+03,3.877531e+03
1.282432e+03,3.886804e+03
1.285325e+03,3.908737e+03
1.288218e+03,3.921574e+03
1.291110e+03,3.902394e+03
1.294003e+03,3.902108e+03
1.296896e+03,3.887043e+03
1.299788e+03,3.892927e+03
1.302681e+03,3.908471e+03
1.305574e+03,3.904362e+03
1.308466e+03,3.908272e+03
1.311359e+03,3.900628e+03
1.314252e+03,3.900813e+03
1.317145e+03,3.922608e+03
1.320037e+03,3.913038e+03
1.322930e+03,3.928364e+03
1.325823e+03,3.923007e+03
1.328715e+03,3.936313e+03
1.331608e+03,3.918579e+03
1.334501e+03,3.923419e+03
1.337393e+03,3.907946e+03
1.340286e+03,3.892633e+03
1.343179e+03,3.909218e+03
1.346072e+03,3.890098e+03
1.348964e+03,3.899674e+03
1.351857e+03,3.877504e+03
1.354750e+03,3.878897e+03
1.357642e+03,3.890380e+03
1.360535e+03,3.868647e+03
1.363428e+03,3.869382e+03
1.366320e+03,3.877906e+03
1.369213e+03,3.869060e+03
1.372106e+03,3.875333e+03
1.374999e+03,3.852804e+03
1.377891e+03,3.839740e+03
1.380784e+03,3.848903e+03
1.383677e+03,3.831556e+03
1.386569e+03,3.834560e+03
1.389462e+03,3.811442e+03
1.392355e+03,3.807234e+03
1.395247e+03,3.822512e+03
1.398140e+03,3.807983e+03
1.401033e+03,3.811811e+03
1.403926e+03,3.783771e+03
1.406818e+03,3.790563e+03
1.409711e+03,3.778948e+03
1.412604e+03,3.784880e+03
1.415496e+03,3.768813e+03
1.418389e+03,3.761347e+03
1.421282e+03,3.747885e+03
1.424174e+03,3.757994e+03
1.427067e+03,3.743742e+03
1.429960e+03,3.722284e+03
1.432853e+03,3.738997e+03
1.435745e+03,3.722946e+03
1.438638e+03,3.708799e+03
1.441531e+03,3.685907e+03
1.444423e+03,3.713129e+03
1.447316e+03,3.680703e+03
1.450209e+03,3.669032e+03
1.453101e+03,3.657067e+03
1.455994e+03,3.661796e+03
1.458887e+03,3.642313e+03
1.461780e+03,3.638356e+03
1.464672e+03,3.617339e+03
1.467565e+03,3.607531e+03
1.470458e+03,3.596732e+03
1.473350e+03,3.597169e+03
1.476243e+03,3.592746e+03
1.479136e+03,3.574635e+03
1.482028e+03,3.565632e+03
1.484921e+03,3.537875e+03
1.487814e+03,3.526940e+03
1.490707e+03,3.529898e+03
1.493599e+03,3.509656e+03
1.496492e+03,3.492263e+03
1.499385e+03,3.471855e+03
1.502277e+03,3.476921e+03
1.505170e+03,3.480063e+03
1.508063e+03,3.463905e+03
1.510955e+03,3.441207e+03
1.513848e+03,3.410560e+03
1.516741e+03,3.409172e+03
1.519634e+03,3.418961e+03
1.522526e+03,3.394659e+03
1.525419e+03,3.373136e+03
1.528312e+03,3.364602e+03
1.531204e+03,3.338924e+03
1.534097e+03,3.337190e+03
1.536990e+03,3.327144e+03
1.539882e+03,3.320801e+03
1.542775e+03,3.315246e+03
1.545668e+03,3.277905e+03
1.548561e+03,3.274267e+03
1.551453e+03,3.274900e+03
1.554346e+03,3.246714e+03
1.557239e+03,3.232267e+03
1.560131e+03,3.227716e+03
1.563024e+03,3.207554e+03
1.565917e+03,3.202551e+03
1.568809e+03,3.186704e+03
1.571702e+03,3.189215e+03
1.574595e+03,3.172216e+03
1.577488e+03,3.161770e+03
1.580380e+03,3.154172e+03
1.583273e+03,3.138148e+03
1.586166e+03,3.115224e+03
1.589058e+03,3.090905e+03
1.591951e+03,3.071458e+03
1.594844e+03,3.067718e+03
1.597736e+03,3.061263e+03
1.600629e+03,3.047736e+03
1.603522e+03,3.023978e+03
1.606415e+03,3.026684e+03
1.609307e+03,3.046598e+03
1.612200e+03,3.031614e+03
1.615093e+03,3.011451e+03
1.617985e+03,2.990292e+03
1.620878e+03,2.965161e+03
1.623771e+03,2.932137e+03
1.626663e+03,2.918682e+03
1.629556e+03,2.900645e+03
1.632449e+03,2.886210e+03
1.635342e+03,2.862503e+03
1.638234e+03,2.865773e+03
1.641127e+03,2.849026e+03
1.644020e+03,2.846780e+03
1.646912e+03,2.823043e+03
1.649805e+03,2.807548e+03
1.652698e+03,2.784626e+03
1.655590e+03,2.789210e+03
1.658483e+03,2.763227e+03
1.661376e+03,2.743649e+03
1.664269e+03,2.720155e+03
1.667161e+03,2.728920e+03
1.670054e+03,2.724812e+03
1.672947e+03,2.706782e+03
1.675839e+03,2.694980e+03
1.678732e+03,2.689510e+03
1.681625e+03,2.660055e+03
1.684517e+03,2.634194e+03
1.687410e+03,2.641831e+03
1.690303e+03,2.604356e+03
1.693196e+03,2.602033e+03
1.696088e+03,2.587095e+03
1.698981e+03,2.561806e+03
1.701874e+03,2.569051e+03
1.704766e+03,2.548653e+03
1.707659e+03,2.537330e+03
1.710552e+03,2.526244e+03
1.713444e+03,2.518089e+03
1.716337e+03,2.517608e+03
1.719230e+03,2.507367e+03
1.722123e+03,2.504467e+03
1.725015e+03,2.499963e+03
1.727908e+03,2.476427e+03
1.730801e+03,2.460846e+03
1.733693e+03,2.455137e+03
1.736586e+03,2.453436e+03
1.739479e+03,2.405607e+03
1.742371e+03,2.396899e+03
1.745264e+03,2.375440e+03
1.748157e+03,2.368970e+03
1.751050e+03,2.379401e+03
1.753942e+03,2.344287e+03
1.756835e+03,2.348207e+03
1.759728e+03,2.332353e+03
1.762620e+03,2.308351e+03
1.765513e+03,2.322684e+03
1.768406e+03,2.277750e+03
1.771298e+03,2.285711e+03
1.774191e+03,2.259380e+03
1.777084e+03,2.266609e+03
1.779977e+03,2.257878e+03
1.782869e+03,2.243618e+03
1.785762e+03,2.223661e+03
1.788655e+03,2.224979e+03
1.791547e+03,2.204411e+03
1.794440e+03,2.193298e+03
1.797333e+03,2.207148e+03
1.800225e+03,2.179425e+03
1.803118e+03,2.156694e+03
1.806011e+03,2.140543e+03
1.808904e+03,2.135127e+03
1.811796e+03,2.137144e+03
1.814689e+03,2.139068e+03
1.817582e+03,2.125855e+03
1.820474e+03,2.100026e+03
1.823367e+03,2.092300e+03
1.826260e+03,2.081288e+03
1.829152e+03,2.060168e+03
1.832045e+03,2.077205e+03
1.834938e+03,2.063778e+03
1.837831e+03,2.033231e+03
1.840723e+03,2.032498e+03
1.843616e+03,2.029630e+03
1.846509e+03,2.006983e+03
1.849401e+03,2.012413e+03
1.852294e+03,1.988274e+03
1.855187e+03,1.984281e+03
1.858079e+03,1.977851e+03
1.860972e+03,1.959599e+03
1.863865e+03,1.959616e+03
1.866758e+03,1.944281e+03
1.869650e+03,1.917527e+03
1.872543e+03,1.929160e+03
1.875436e+03,1.920039e+03
1.878328e+03,1.906107e+03
1.881221e+03,1.901516e+03
1.884114e+03,1.866646e+03
1.887006e+03,1.881912e+03
1.889899e+03,1.872793e+03
1.892792e+03,1.869365e+03
1.895685e+03,1.851849e+03
1.898577e+03,1.860381e+03
1.901470e+03,1.852185e+03
1.904363e+03,1.844338e+03
1.907255e+03,1.833380e+03
1.910148e+03,1.835448e+03
1.913041e+03,1.810084e+03
1.915933e+03,1.793574e+03
1.918826e+03,1.789912e+03
1.921719e+03,1.785236e+03
1.924612e+03,1.770432e+03
1.927504e+03,1.759366e+03
1.930397e+03,1.747031e+03
1.933290e+03,1.740733e+03
1.936182e+03,1.753127e+03
1.939075e+03,1.729323e+03
1.941968e+03,1.713667e+03
1.944860e+03,1.716514e+03
1.947753e+03,1.703070e+03
1.950646e+03,1.695626e+03
1.953539e+03,1.691632e+03
1.956431e+03,1.674132e+03
1.959324e+03,1.667654e+03
1.962217e+03,1.669414e+03
1.965109e+03,1.650560e+03
1.968002e+03,1.651304e+03
1.970895e+03,1.633775e+03
1.973787e+03,1.630334e+03
1.976680e+03,1.634716e+03
1.979573e+03,1.625613e+03
1.982466e+03,1.604665e+03
1.985358e+03,1.605673e+03
1.988251e+03,1.598705e+03
1.991144e+03,1.579579e+03
1.994036e+03,1.573787e+03
1.996929e+03,1.552045e+03
1.999822e+03,1.567868e+03
2.002714e+03,1.542562e+03
2.005607e+03,1.550853e+03
2.008500e+03,1.540113e+03
2.011393e+03,1.529981e+03
2.014285e+03,1.523162e+03
2.017178e+03,1.523180e+03
2.020071e+03,1.497729e+03
2.022963e+03,1.508289e+03
2.025856e+03,1.497796e+03
2.028749e+03,1.489194e+03
2.031641e+03,1.488527e+03
2.034534e+03,1.480818e+03
2.037427e+03,1.469386e+03
2.040320e+03,1.463812e+03
2.043212e+03,1.439543e+03
2.046105e+03,1.457717e+03
2.048998e+03,1.441794e+03
2.051890e+03,1.432166e+03
2.054783e+03,1.416815e+03
2.057676e+03,1.427455e+03
2.060568e+03,1.420794e+03
2.063461e+03,1.414975e+03
2.066354e+03,1.421772e+03
2.069247e+03,1.387844e+03
2.072139e+03,1.393213e+03
2.075032e+03,1.380987e+03
2.077925e+03,1.384241e+03
2.080817e+03,1.351480e+03
2.083710e+03,1.365718e+03
2.086603e+03,1.346346e+03
2.089496e+03,1.356457e+03
2.092388e+03,1.356870e+03
2.095281e+03,1.348948e+03
2.098174e+03,1.335571e+03
2.101066e+03,1.335519e+03
2.103959e+03,1.328474e+03
2.106852e+03,1.313373e+03
2.109744e+03,1.313323e+03
2.112637e+03,1.299113e+03
2.115530e+03,1.308924e+03
2.118422e+03,1.282987e+03
2.121315e+03,1.302179e+03
2.124208e+03,1.288625e+03
2.127101e+03,1.281320e+03
2.129993e+03,1.274984e+03
2.132886e+03,1.260829e+03
2.135779e+03,1.258500e+03
2.138671e+03,1.262663e+03
2.141564e+03,1.251870e+03
2.144457e+03,1.239305e+03
2.147350e+03,1.235713e+03
2.150242e+03,1.244546e+03
2.153135e+03,1.232517e+03
2.156028e+03,1.227634e+03
2.158920e+03,1.223210e+03
2.161813e+03,1.216527e+03
2.164706e+03,1.205971e+03
2.167598e+03,1.206782e+03
2.170491e+03,1.201847e+03
2.173384e+03,1.201759e+03
2.176277e+03,1.210452e+03
2.179169e+03,1.184396e+03
2.182062e+03,1.180634e+03
2.184955e+03,1.181125e+03
2.187847e+03,1.164362e+03
2.190740e+03,1.169286e+03
2.193633e+03,1.170854e+03
2.196525e+03,1.158985e+03
2.199418e+03,1.145372e+03
2.202311e+03,1.156781e+03
2.205204e+03,1.150468e+03
2.208096e+03,1.143346e+03
2.210989e+03,1.125123e+03
2.213882e+03,1.136969e+03
2.216774e+03,1.149688e+03
2.219667e+03,1.133610e+03
2.222560e+03,1.125955e+03
2.225452e+03,1.116568e+03
2.228345e+03,1.124571e+03
2.231238e+03,1.098166e+03
2.234131e+03,1.112617e+03
2.237023e+03,1.098561e+03
2.239916e+03,1.090927e+03
2.242809e+03,1.083389e+03
2.245701e+03,1.104349e+03
2.248594e+03,1.081619e+03
2.251487e+03,1.073758e+03
2.254379e+03,1.075759e+03
2.257272e+03,1.066003e+03
2.260165e+03,1.062194e+03
2.263058e+03,1.046921e+03
2.265950e+03,1.070436e+03
2.268843e+03,1.045737e+03
2.271736e+03,1.048919e+03
2.274628e+03,1.040716e+03
2.277521e+03,1.052243e+03
2.280414e+03,1.040132e+03
2.283306e+03,1.038740e+03
2.286199e+03,1.029426e+03
2.289092e+03,1.026512e+03
2.291985e+03,1.033637e+03
2.294877e+03,1.032720e+03
2.297770e+03,1.027349e+03
2.300663e+03,1.027588e+03
2.303555e+03,1.012203e+03
2.306448e+03,1.009479e+03
2.309341e+03,1.019975e+03
2.312233e+03,1.017359e+03
2.315126e+03,1.006636e+03
2.318019e+03,1.004324e+03
2.320912e+03,1.012814e+03
2.323804e+03,1.002856e+03
2.326697e+03,9.970357e+02
2.329590e+03,1.001377e+03
2.332482e+03,9.812693e+02
2.335375e+03,9.923436e+02
2.338268e+03,9.887480e+02
2.341160e+03,9.755263e+02
2.344053e+03,9.760382e+02
2.346946e+03,9.891116e+02
2.349839e+03,9.768690e+02
2.352731e+03,9.739027e+02
2.355624e+03,9.736755e+02
2.358517e+03,9.682325e+02
2.361409e+03,9.811339e+02
2.364302e+03,9.536732e+02
2.367195e+03,9.573522e+02
2.370087e+03,9.682131e+02
2.372980e+03,9.591718e+02
2.375873e+03,9.606406e+02
2.378766e+03,9.464337e+02
2.381658e+03,9.463359e+02
2.384551e+03,9.392398e+02
2.387444e+03,9.408126e+02
2.390336e+03,9.391295e+02
2.393229e+03,9.542695e+02
2.396122e+03,9.382634e+02
2.399014e+03,9.389343e+02
2.401907e+03,9.337115e+02
2.404800e+03,9.361967e+02
2.407693e+03,9.431116e+02
2.410585e+03,9.304673e+02
2.413478e+03,9.201857e+02
2.416371e+03,9.258098e+02
2.419263e+03,9.228011e+02
2.422156e+03,9.224960e+02
2.425049e+03,9.105921e+02
2.427941e+03,9.165671e+02
2.430834e+03,9.202727e+02
2.433727e+03,9.114913e+02
2.436620e+03,9.008676e+02
2.439512e+03,9.047049e+02
2.442405e+03,9.061418e+02
2.445298e+03,9.121900e+02
2.448190e+03,9.145656e+02
2.451083e+03,9.014332e+02
2.453976e+03,9.075057e+02
2.456868e+03,9.038251e+02
2.459761e+03,8.995855e+02
2.462654e+03,9.021355e+02
2.465547e+03,8.955396e+02
2.468439e+03,9.040159e+02
2.471332e+03,8.907070e+02
2.474225e+03,8.946809e+02
2.477117e+03,8.948365e+02
2.480010e+03,8.862286e+02
2.482903e+03,8.901135e+02
2.485795e+03,8.776089e+02
2.488688e+03,9.024372e+02
2.491581e+03,8.766523e+02
2.494474e+03,8.794008e+02
2.497366e+03,8.825596e+02
2.500259e+03,8.765280e+02
2.503152e+03,8.729120e+02
2.506044e+03,8.830286e+02
2.508937e+03,8.763864e+02
2.511830e+03,8.873756e+02
2.514722e+03,8.783364e+02
2.517615e+03,8.771251e+02
2.520508e+03,8.687810e+02
2.523401e+03,8.584876e+02
2.526293e+03,8.787022e+02
2.529186e+03,8.599767e+02
2.532079e+03,8.604521e+02
2.534971e+03,8.725588e+02
2.537864e+03,8.622836e+02
2.540757e+03,8.419755e+02
2.543649e+03,8.608898e+02
2.546542e+03,8.549111e+02
2.549435e+03,8.697919e+02
2.552328e+03,8.782436e+02
2.555220e+03,8.610266e+02
2.558113e+03,8.515598e+02
2.561006e+03,8.667521e+02
2.563898e+03,8.569729e+02
2.566791e+03,8.717802e+02
2.569684e+03,8.545745e+02
2.572576e+03,8.420595e+02
2.575469e+03,8.597457e+02
2.578362e+03,8.549494e+02
2.581255e+03,8.513752e+02
2.584147e+03,8.373757e+02
2.587040e+03,8.253558e+02
2.589933e+03,8.543407e+02
2.592825e+03,8.581628e+02
2.595718e+03,8.438795e+02
2.598611e+03,8.439192e+02
2.601503e+03,8.300717e+02
2.604396e+03,8.351631e+02
2.607289e+03,8.283774e+02
2.610182e+03,8.274457e+02
2.613074e+03,8.312787e+02
2.615967e+03,8.298244e+02
2.618860e+03,8.398210e+02
2.621752e+03,8.346148e+02
2.624645e+03,8.396842e+02
2.627538e+03,8.323771e+02
2.630430e+03,8.287792e+02
2.633323e+03,8.293713e+02
2.636216e+03,8.260422e+02
2.639109e+03,8.336713e+02
2.642001e+03,8.193602e+02
2.644894e+03,8.044343e+02
2.647787e+03,8.443240e+02
2.650679e+03,8.154726e+02
2.653572e+03,8.040225e+02
2.656465e+03,8.225966e+02
2.659357e+03,8.129897e+02
2.662250e+03,8.076436e+02
2.665143e+03,8.189993e+02
2.668036e+03,8.217803e+02
2.670928e+03,8.089449e+02
2.673821e+03,8.057830e+02
2.676714e+03,8.127991e+02
2.679606e+03,8.082435e+02
2.682499e+03,8.045961e+02
2.685392e+03,7.792969e+02
2.688284e+03,8.016447e+02
2.691177e+03,8.015255e+02
2.694070e+03,8.013660e+02
2.696963e+03,7.997141e+02
2.699855e+03,7.981573e+02
2.702748e+03,8.084869e+02
2.705641e+03,7.879700e+02
2.708533e+03,8.088878e+02
2.711426e+03,7.947346e+02
2.714319e+03,7.952570e+02
2.717211e+03,7.868498e+02
2.720104e+03,7.917147e+02
2.722997e+03,7.798391e+02
2.725890e+03,7.967333e+02
2.728782e+03,7.808272e+02
2.731675e+03,7.764027e+02
2.734568e+03,7.790762e+02
2.737460e+03,7.763878e+02
2.740353e+03,7.594747e+02
2.743246e+03,7.818800e+02
2.746138e+03,7.616808e+02
2.749031e+03,8.026207e+02
2.751924e+03,7.786868e+02
2.754817e+03,7.632506e+02
2.757709e+03,7.593978e+02
2.760602e+03,7.702636e+02
2.763495e+03,7.715340e+02
2.766387e+03,7.694940e+02
2.769280e+03,7.698017e+02
2.772173e+03,7.601077e+02
2.775065e+03,7.599664e+02
2.777958e+03,7.586631e+02
2.780851e+03,7.619932e+02
2.783744e+03,7.538161e+02
2.786636e+03,7.402068e+02
2.789529e+03,7.648642e+02
2.792422e+03,7.426419e+02
2.795314e+03,7.478381e+02
2.798207e+03,7.365059e+02
2.801100e+03,7.468934e+02
2.803992e+03,7.384286e+02
2.806885e+03,7.389523e+02
2.809778e+03,7.387755e+02
2.812671e+03,7.259703e+02
2.815563e+03,7.365061e+02
2.818456e+03,7.249413e+02
2.821349e+03,7.236143e+02
2.824241e+03,7.256239e+02
2.827134e+03,7.089491e+02
2.830027e+03,7.322744e+02
2.832919e+03,7.120118e+02
2.835812e+03,7.366495e+02
2.838705e+03,7.220510e+02
2.841598e+03,7.268049e+02
2.844490e+03,7.203644e+02
2.847383e+03,7.175347e+02
2.850276e+03,7.198047e+02
2.853168e+03,7.102959e+02
2.856061e+03,7.270184e+02
2.858954e+03,7.142851e+02
2.861846e+03,7.207728e+02
2.864739e+03,7.254615e+02
2.867632e+03,7.052018e+02
2.870525e+03,7.026896e+02
2.873417e+03,6.970706e+02
2.876310e+03,6.900137e+02
2.879203e+03,7.069954e+02
2.882095e+03,7.064359e+02
2.884988e+03,6.747556e+02
2.887881e+03,7.088929e+02
2.890773e+03,7.020569e+02
2.893666e+03,7.095129e+02
2.896559e+03,6.874860e+02
2.899452e+03,6.815235e+02
2.902344e+03,7.111442e+02
2.905237e+03,6.813816e+02
2.908130e+03,6.863362e+02
2.911022e+03,6.823538e+02
2.913915e+03,7.002981e+02
2.916808e+03,6.760184e+02
2.919700e+03,6.595184e+02
2.922593e+03,6.884469e+02
2.925486e+03,6.825218e+02
2.928379e+03,6.734620e+02
2.931271e+03,6.798134e+02
2.934164e+03,6.523746e+02
2.937057e+03,6.742648e+02
2.939949e+03,6.564813e+02
2.942842e+03,6.635927e+02
2.945735e+03,6.712234e+02
2.948627e+03,6.783395e+02
2.951520e+03,6.713528e+02
2.954413e+03,6.766482e+02
2.957306e+03,7.039280e+02
2.960198e+03,6.865855e+02
2.963091e+03,6.496693e+02
2.965984e+03,6.373173e+02
2.968876e+03,6.510866e+02
2.971769e+03,6.385551e+02
2.974662e+03,6.545808e+02
2.977554e+03,6.568031e+02
2.980447e+03,6.530923e+02
2.983340e+03,6.363420e+02
2.986233e+03,6.499637e+02
2.989125e+03,6.337818e+02
2.992018e+03,6.434001e+02
2.994911e+03,6.474870e+02
2.997803e+03,6.465038e+02
3.000696e+03,6.297957e+02
3.003589e+03,6.169570e+02
3.006481e+03,6.236846e+02
3.009374e+03,6.212326e+02
3.012267e+03,6.446170e+02
3.015160e+03,6.178568e+02
3.018052e+03,6.092137e+02
3.020945e+03,6.086796e+02
3.023838e+03,6.095062e+02
3.026730e+03,6.350695e+02
3.029623e+03,6.064229e+02
3.032516e+03,6.231296e+02
3.035408e+03,6.304417e+02
3.038301e+03,6.262764e+02
3.041194e+03,6.057767e+02
3.044087e+03,6.287034e+02
3.046979e+03,6.069755e+02
3.049872e+03,5.966640e+02
3.052765e+03,5.996251e+02
3.055657e+03,6.205550e+02
3.058550e+03,6.090649e+02
3.061443e+03,6.133181e+02
3.064335e+03,6.181695e+02
3.067228e+03,6.267451e+02
3.070121e+03,6.016923e+02
3.073014e+03,6.063854e+02
3.075906e+03,5.930238e+02
3.078799e+03,6.391482e+02
3.081692e+03,5.992423e+02
3.084584e+03,5.974594e+02
3.087477e+03,6.335663e+02
3.090370e+03,5.931427e+02
3.093262e+03,6.052972e+02
3.096155e+03,5.907006e+02
3.099048e+03,5.897775e+02
3.101941e+03,6.074946e+02
3.104833e+03,6.007330e+02
3.107726e+03,5.525364e+02
3.110619e+03,6.054705e+02
3.113511e+03,5.826487e+02
3.116404e+03,6.402797e+02
3.119297e+03,5.968069e+02
3.122189e+03,6.304563e+02
3.125082e+03,6.148074e+02
3.127975e+03,5.914984e+02
3.130868e+03,6.334315e+02
3.133760e+03,5.913625e+02
3.136653e+03,6.254780e+02
3.139546e+03,6.020094e+02
3.142438e+03,6.040655e+02
3.145331e+03,5.837951e+02
3.148224e+03,5.654835e+02
3.151116e+03,5.734255e+02
3.154009e+03,5.938965e+02
3.156902e+03,6.151722e+02
3.159795e+03,6.075402e+02
3.162687e+03,6.218368e+02
3.165580e+03,6.202557e+02
3.168473e+03,5.898861e+02
3.171365e+03,5.944922e+02
3.174258e+03,6.032104e+02
3.177151e+03,5.808497e+02
3.180043e+03,5.642529e+02
3.182936e+03,6.138965e+02
3.185829e+03,6.017955e+02
3.188722e+03,5.776964e+02
3.191614e+03,6.238432e+02
3.194507e+03,6.057089e+02
3.197400e+03,6.091784e+02
3.200292e+03,6.807880e+02
3.203185e+03,0.000000e+00
3.206078e+03,0.000000e+00
3.208970e+03,0.000000e+00
3.211863e+03,0.000000e+00
3.214756e+03,0.000000e+00
3.217649e+03,0.000000e+00
3.220541e+03,0.000000e+00
3.223434e+03,0.000000e+00
3.226327e+03,0.000000e+00
3.229219e+03,0.000000e+00
3.232112e+03,0.000000e+00
3.235005e+03,0.000000e+00
3.237897e+03,0.000000e+00
3.240790e+03,0.000000e+00
3.243683e+03,0.000000e+00
3.246576e+03,0.000000e+00
3.249468e+03,0.000000e+00
3.252361e+03,0.000000e+00
3.255254e+03,0.000000e+00
3.258146e+03,0.000000e+00
3.261039e+03,0.000000e+00
3.263932e+03,0.000000e+00
3.266824e+03,0.000000e+00
3.269717e+03,0.000000e+00
3.272610e+03,0.000000e+00
3.275503e+03,0.000000e+00
3.278395e+03,0.000000e+00
3.281288e+03,0.000000e+00
3.284181e+03,0.000000e+00
3.287073e+03,0.000000e+00
3.289966e+03,0.000000e+00
3.292859e+03,0.000000e+00
3.295751e+03,0.000000e+00
3.298644e+03,0.000000e+00
3.301537e+03,0.000000e+00
3.304430e+03,0.000000e+00
3.307322e+03,0.000000e+00
3.310215e+03,0.000000e+00
3.313108e+03,0.000000e+00
3.316000e+03,0.000000e+00
3.318893e+03,0.000000e+00
3.321786e+03,0.000000e+00
3.324678e+03,0.000000e+00
3.327571e+03,0.000000e+00
3.330464e+03,0.000000e+00
3.333357e+03,0.000000e+00
3.336249e+03,0.000000e+00
3.339142e+03,0.000000e+00
3.342035e+03,0.000000e+00
3.344927e+03,0.000000e+00
3.347820e+03,0.000000e+00
3.350713e+03,0.000000e+00
3.353605e+03,0.000000e+00
3.356498e+03,0.000000e+00
3.359391e+03,0.000000e+00
3.362284e+03,0.000000e+00
3.365176e+03,0.000000e+00
3.368069e+03,0.000000e+00
3.370962e+03,0.000000e+00
3.373854e+03,0.000000e+00
3.376747e+03,0.000000e+00
3.379640e+03,0.000000e+00
3.382532e+03,0.000000e+00
3.385425e+03,0.000000e+00
3.388318e+03,0.000000e+00
3.391211e+03,0.000000e+00
3.394103e+03,0.000000e+00
3.396996e+03,0.000000e+00
3.399889e+03,0.000000e+00
3.402781e+03,0.000000e+00
3.405674e+03,0.000000e+00
3.408567e+03,0.000000e+00
3.411459e+03,0.000000e+00
3.414352e+03,0.000000e+00
3.417245e+03,0.000000e+00
3.420138e+03,0.000000e+00
3.423030e+03,0.000000e+00
3.425923e+03,0.000000e+00
3.428816e+03,0.000000e+00
3.431708e+03,0.000000e+00
3.434601e+03,0.000000e+00
3.437494e+03,0.000000e+00
3.440386e+03,0.000000e+00
3.443279e+03,0.000000e+00
3.446172e+03,0.000000e+00
3.449065e+03,0.000000e+00
3.451957e+03,0.000000e+00
3.454850e+03,0.000000e+00
3.457743e+03,0.000000e+00
3.460635e+03,0.000000e+00
3.463528e+03,0.000000e+00
3.466421e+03,0.000000e+00
3.469313e+03,0.000000e+00
3.472206e+03,0.000000e+00
3.475099e+03,0.000000e+00
3.477992e+03,0.000000e+00
3.480884e+03,0.000000e+00
3.483777e+03,0.000000e+00
3.486670e+03,0.000000e+00
3.489563e+03,0.000000e+00
3.492455e+03,0.000000e+00
3.495348e+03,0.000000e+00
3.498240e+03,0.000000e+00
3.500169e+03,0.000000e+00