File: RAMAN_data/13112023_r1/red fibre4.CSV
9.931763e+01,0.000000e+00
1.022103e+02,0.000000e+00
1.051030e+02,0.000000e+00
1.079957e+02,0.000000e+00
1.108884e+02,0.000000e+00
1.137811e+02,0.000000e+00
1.166738e+02,0.000000e+00
1.195665e+02,0.000000e+00
1.224592e+02,0.000000e+00
1.253519e+02,0.000000e+00
1.282446e+02,0.000000e+00
1.311373e+02,0.000000e+00
1.340300e+02,0.000000e+00
1.369227e+02,0.000000e+00
1.398154e+02,0.000000e+00
1.427081e+02,0.000000e+00
1.456008e+02,0.000000e+00
1.484935e+02,0.000000e+00
1.513862e+02,0.000000e+00
1.542789e+02,0.000000e+00
1.571716e+02,0.000000e+00
1.600643e+02,0.000000e+00
1.629570e+02,0.000000e+00
1.658497e+02,0.000000e+00
1.687424e+02,0.000000e+00
1.716351e+02,0.000000e+00
1.745278e+02,0.000000e+00
1.774205e+02,0.000000e+00
1.803132e+02,0.000000e+00
1.832059e+02,0.000000e+00
1.860986e+02,0.000000e+00
1.889913e+02,0.000000e+00
1.918840e+02,0.000000e+00
1.947767e+02,0.000000e+00
1.976694e+02,0.000000e+00
2.005621e+02,3.466934e+03
2.034548e+02,3.476263e+03
2.063475e+02,3.490891e+03
2.092402e+02,3.483866e+03
2.121329e+02,3.490431e+03
2.150256e+02,3.498337e+03
2.179183e+02,3.477861e+03
2.208110e+02,3.488163e+03
2.237037e+02,3.500339e+03
2.265964e+02,3.488671e+03
2.294892e+02,3.522370e+03
2.323819e+02,3.532021e+03
2.352746e+02,3.526954e+03
2.381673e+02,3.525198e+03
2.410600e+02,3.512480e+03
2.439527e+02,3.512351e+03
2.468454e+02,3.536363e+03
2.497381e+02,3.544367e+03
2.526308e+02,3.547988e+03
2.555235e+02,3.536241e+03
2.584161e+02,3.551104e+03
2.613088e+02,3.552825e+03
2.642015e+02,3.568170e+03
2.670942e+02,3.556937e+03
2.699869e+02,3.558797e+03
2.728796e+02,3.559328e+03
2.757723e+02,3.567479e+03
2.786650e+02,3.571505e+03
2.815577e+02,3.575410e+03
2.844504e+02,3.596155e+03
2.873431e+02,3.577404e+03
2.902358e+02,3.582478e+03
2.931285e+02,3.588722e+03
2.960212e+02,3.584964e+03
2.989139e+02,3.590080e+03
3.018066e+02,3.593579e+03
3.046993e+02,3.610165e+03
3.075920e+02,3.604852e+03
3.104847e+02,3.608004e+03
3.133774e+02,3.618007e+03
3.162701e+02,3.605882e+03
3.191628e+02,3.586125e+03
3.220555e+02,3.603758e+03
3.249482e+02,3.606241e+03
3.278409e+02,3.619160e+03
3.307336e+02,3.623566e+03
3.336263e+02,3.606441e+03
3.365190e+02,3.591453e+03
3.394117e+02,3.624514e+03
3.423044e+02,3.606769e+03
3.451971e+02,3.611779e+03
3.480898e+02,3.600602e+03
3.509825e+02,3.605987e+03
3.538752e+02,3.606470e+03
3.567680e+02,3.582666e+03
3.596607e+02,3.610126e+03
3.625534e+02,3.612427e+03
3.654461e+02,3.606698e+03
3.683388e+02,3.604857e+03
3.712315e+02,3.615241e+03
3.741242e+02,3.624240e+03
3.770169e+02,3.632947e+03
3.799096e+02,3.641397e+03
3.828023e+02,3.611260e+03
3.856950e+02,3.627739e+03
3.885877e+02,3.613780e+03
3.914804e+02,3.618099e+03
3.943731e+02,3.620169e+03
3.972658e+02,3.593413e+03
4.001585e+02,3.600770e+03
4.030512e+02,3.601193e+03
4.059439e+02,3.596844e+03
4.088366e+02,3.586938e+03
4.117293e+02,3.606617e+03
4.146220e+02,3.595059e+03
4.175147e+02,3.602447e+03
4.204074e+02,3.594058e+03
4.233001e+02,3.595192e+03
4.261928e+02,3.586767e+03
4.290855e+02,3.594133e+03
4.319782e+02,3.599016e+03
4.348709e+02,3.599541e+03
4.377636e+02,3.581574e+03
4.406563e+02,3.584193e+03
4.435490e+02,3.590737e+03
4.464417e+02,3.578867e+03
4.493344e+02,3.591145e+03
4.522271e+02,3.593667e+03
4.551198e+02,3.593010e+03
4.580125e+02,3.575523e+03
4.609052e+02,3.561825e+03
4.637979e+02,3.561764e+03
4.666906e+02,3.553040e+03
4.695833e+02,3.565479e+03
4.724760e+02,3.558542e+03
4.753687e+02,3.554071e+03
4.782614e+02,3.552841e+03
4.811541e+02,3.549304e+03
4.840468e+02,3.542059e+03
4.869395e+02,3.537978e+03
4.898322e+02,3.545956e+03
4.927249e+02,3.546002e+03
4.956176e+02,3.532231e+03
4.985103e+02,3.540267e+03
5.014030e+02,3.533273e+03
5.042957e+02,3.527754e+03
5.071884e+02,3.533111e+03
5.100811e+02,3.526367e+03
5.129738e+02,3.526247e+03
5.158665e+02,3.538419e+03
5.187592e+02,3.515336e+03
5.216519e+02,3.526992e+03
5.245446e+02,3.510510e+03
5.274373e+02,3.499212e+03
5.303300e+02,3.501371e+03
5.332227e+02,3.502154e+03
5.361154e+02,3.488659e+03
5.390081e+02,3.500789e+03
5.419008e+02,3.476279e+03
5.447935e+02,3.490203e+03
5.476862e+02,3.479811e+03
5.505789e+02,3.476494e+03
5.534716e+02,3.471043e+03
5.563643e+02,3.456015e+03
5.592570e+02,3.478239e+03
5.621497e+02,3.486085e+03
5.650424e+02,3.474970e+03
5.679351e+02,3.470548e+03
5.708278e+02,3.450597e+03
5.737205e+02,3.452480e+03
5.766132e+02,3.460900e+03
5.795059e+02,3.436508e+03
5.823986e+02,3.437038e+03
5.852913e+02,3.435868e+03
5.881840e+02,3.425092e+03
5.910767e+02,3.425466e+03
5.939694e+02,3.437859e+03
5.968621e+02,3.422220e+03
5.997548e+02,3.432156e+03
6.026475e+02,3.439634e+03
6.055402e+02,3.412675e+03
6.084329e+02,3.424374e+03
6.113256e+02,3.412181e+03
6.142183e+02,3.400030e+03
6.171110e+02,3.399541e+03
6.200037e+02,3.402800e+03
6.228964e+02,3.394110e+03
6.257891e+02,3.398590e+03
6.286818e+02,3.402730e+03
6.315745e+02,3.372211e+03
6.344672e+02,3.371759e+03
6.373599e+02,3.373425e+03
6.402526e+02,3.377083e+03
6.431453e+02,3.365393e+03
6.460380e+02,3.359343e+03
6.489307e+02,3.348974e+03
6.518234e+02,3.358460e+03
6.547161e+02,3.362001e+03
6.576088e+02,3.354736e+03
6.605015e+02,3.352207e+03
6.633942e+02,3.334981e+03
6.662869e+02,3.331711e+03
6.691796e+02,3.339789e+03
6.720723e+02,3.348841e+03
6.749650e+02,3.325105e+03
6.778577e+02,3.322291e+03
6.807504e+02,3.304395e+03
6.836431e+02,3.306385e+03
6.865358e+02,3.311237e+03
6.894285e+02,3.296427e+03
6.923212e+02,3.278266e+03
6.952139e+02,3.260756e+03
6.981066e+02,3.287969e+03
7.009993e+02,3.274009e+03
7.038920e+02,3.257818e+03
7.067847e+02,3.254676e+03
7.096774e+02,3.257600e+03
7.125701e+02,3.247395e+03
7.154628e+02,3.248907e+03
7.183555e+02,3.256569e+03
7.212482e+02,3.234054e+03
7.241409e+02,3.229284e+03
7.270336e+02,3.248793e+03
7.299263e+02,3.234327e+03
7.328190e+02,3.206690e+03
7.357117e+02,3.211942e+03
7.386044e+02,3.216755e+03
7.414971e+02,3.212745e+03
7.443898e+02,3.200106e+03
7.472825e+02,3.206516e+03
7.501752e+02,3.190624e+03
7.530679e+02,3.201116e+03
7.559606e+02,3.183100e+03
7.588533e+02,3.177563e+03
7.617460e+02,3.173042e+03
7.646387e+02,3.158251e+03
7.675314e+02,3.162899e+03
7.704241e+02,3.151417e+03
7.733168e+02,3.154705e+03
7.762095e+02,3.159643e+03
7.791022e+02,3.162745e+03
7.819949e+02,3.136222e+03
7.848876e+02,3.127570e+03
7.877803e+02,3.115587e+03
7.906730e+02,3.127620e+03
7.935657e+02,3.125915e+03
7.964584e+02,3.098943e+03
7.993511e+02,3.113161e+03
8.022438e+02,3.096595e+03
8.051365e+02,3.096808e+03
8.080292e+02,3.113445e+03
8.109219e+02,3.094183e+03
8.138146e+02,3.081136e+03
8.167073e+02,3.073268e+03
8.196000e+02,3.077634e+03
8.224927e+02,3.080226e+03
8.253854e+02,3.077048e+03
8.282781e+02,3.065905e+03
8.311708e+02,3.064917e+03
8.340635e+02,3.045518e+03
8.369562e+02,3.037916e+03
8.398489e+02,3.044493e+03
8.427416e+02,3.038443e+03
8.456343e+02,3.033783e+03
8.485270e+02,3.029988e+03
8.514197e+02,3.032309e+03
8.543124e+02,3.031723e+03
8.572051e+02,3.016696e+03
8.600978e+02,3.021118e+03
8.629905e+02,2.997924e+03
8.658832e+02,2.997611e+03
8.687759e+02,3.009433e+03
8.716686e+02,2.989212e+03
8.745613e+02,2.984115e+03
8.774540e+02,2.987714e+03
8.803467e+02,2.985492e+03
8.832394e+02,2.992161e+03
8.861321e+02,2.984449e+03
8.890248e+02,2.987224e+03
8.919175e+02,2.957003e+03
8.948102e+02,2.959945e+03
8.977029e+02,2.942452e+03
9.005956e+02,2.948860e+03
9.034883e+02,2.951973e+03
9.063810e+02,2.935722e+03
9.092737e+02,2.931208e+03
9.121664e+02,2.922765e+03
9.150591e+02,2.925066e+03
9.179518e+02,2.919759e+03
9.208445e+02,2.907434e+03
9.237372e+02,2.908901e+03
9.266299e+02,2.902903e+03
9.295226e+02,2.897591e+03
9.324153e+02,2.905757e+03
9.353080e+02,2.884188e+03
9.382007e+02,2.857080e+03
9.410934e+02,2.874946e+03
9.439861e+02,2.876940e+03
9.468788e+02,2.870862e+03
9.497715e+02,2.866434e+03
9.526642e+02,2.853002e+03
9.555569e+02,2.843589e+03
9.584496e+02,2.852323e+03
9.613423e+02,2.850816e+03
9.642350e+02,2.842250e+03
9.671277e+02,2.841466e+03
9.700204e+02,2.822740e+03
9.729131e+02,2.825778e+03
9.758058e+02,2.833401e+03
9.786985e+02,2.816847e+03
9.815912e+02,2.814260e+03
9.844839e+02,2.807332e+03
9.873766e+02,2.788883e+03
9.902693e+02,2.805875e+03
9.931620e+02,2.817864e+03
9.960547e+02,2.809175e+03
9.989474e+02,2.771601e+03
1.001840e+03,2.777730e+03
1.004733e+03,2.786756e+03
1.007626e+03,2.784703e+03
1.010518e+03,2.772273e+03
1.013411e+03,2.775212e+03
1.016304e+03,2.745270e+03
1.019196e+03,2.742525e+03
1.022089e+03,2.749105e+03
1.024982e+03,2.737063e+03
1.027875e+03,2.748198e+03
1.030767e+03,2.743476e+03
1.033660e+03,2.738759e+03
1.036552e+03,2.740808e+03
1.039445e+03,2.728096e+03
1.042338e+03,2.729780e+03
1.045231e+03,2.722475e+03
1.048123e+03,2.715104e+03
1.051016e+03,2.723153e+03
1.053909e+03,2.726234e+03
1.056802e+03,2.714078e+03
1.059694e+03,2.715248e+03
1.062587e+03,2.698525e+03
1.065479e+03,2.667037e+03
1.068372e+03,2.698928e+03
1.071265e+03,2.703696e+03
1.074158e+03,2.698480e+03
1.077050e+03,2.679012e+03
1.079943e+03,2.691523e+03
1.082836e+03,2.687355e+03
1.085729e+03,2.683593e+03
1.088621e+03,2.700792e+03
1.091514e+03,2.702350e+03
1.094406e+03,2.683982e+03
1.097299e+03,2.683069e+03
1.100192e+03,2.677930e+03
1.103085e+03,2.657298e+03
1.105977e+03,2.658730e+03
1.108870e+03,2.647706e+03
1.111763e+03,2.664861e+03
1.114656e+03,2.641799e+03
1.117548e+03,2.655091e+03
1.120441e+03,2.643103e+03
1.123334e+03,2.656112e+03
1.126226e+03,2.619300e+03
1.129119e+03,2.635509e+03
1.132012e+03,2.629396e+03
1.134904e+03,2.615490e+03
1.137797e+03,2.601300e+03
1.140690e+03,2.614403e+03
1.143583e+03,2.598529e+03
1.146475e+03,2.610999e+03
1.149368e+03,2.584586e+03
1.152261e+03,2.595360e+03
1.155153e+03,2.575357e+03
1.158046e+03,2.571906e+03
1.160939e+03,2.575374e+03
1.163831e+03,2.575586e+03
1.166724e+03,2.567038e+03
1.169617e+03,2.553046e+03
1.172510e+03,2.550870e+03
1.175402e+03,2.556559e+03
1.178295e+03,2.555528e+03
1.181188e+03,2.550261e+03
1.184080e+03,2.542288e+03
1.186973e+03,2.534397e+03
1.189866e+03,2.531697e+03
1.192758e+03,2.517971e+03
1.195651e+03,2.526007e+03
1.198544e+03,2.535846e+03
1.201437e+03,2.517239e+03
1.204329e+03,2.508165e+03
1.207222e+03,2.516889e+03
1.210115e+03,2.525853e+03
1.213007e+03,2.525645e+03
1.215900e+03,2.500272e+03
1.218793e+03,2.516129e+03
1.221685e+03,2.498590e+03
1.224578e+03,2.503287e+03
1.227471e+03,2.515511e+03
1.230364e+03,2.484917e+03
1.233256e+03,2.484593e+03
1.236149e+03,2.497901e+03
1.239042e+03,2.482950e+03
1.241934e+03,2.476656e+03
1.244827e+03,2.485391e+03
1.247720e+03,2.492955e+03
1.250612e+03,2.465476e+03
1.253505e+03,2.478001e+03
1.256398e+03,2.470932e+03
1.259291e+03,2.460324e+03
1.262183e+03,2.454023e+03
1.265076e+03,2.461709e+03
1.267969e+03,2.457198e+03
1.270861e+03,2.465316e+03
1.273754e+03,2.450472e+03
1.276647e+03,2.457085e+03
1.279539e+03,2.460851e+03
1.282432e+03,2.449666e+03
1.285325e+03,2.458535e+03
1.288218e+03,2.457704e+03
1.291110e+03,2.450424e+03
1.294003e+03,2.450713e+03
1.296896e+03,2.434989e+03
1.299788e+03,2.424153e+03
1.302681e+03,2.435817e+03
1.305574e+03,2.442651e+03
1.308466e+03,2.428800e+03
1.311359e+03,2.428837e+03
1.314252e+03,2.409081e+03
1.317145e+03,2.427771e+03
1.320037e+03,2.419347e+03
1.322930e+03,2.420333e+03
1.325823e+03,2.406450e+03
1.328715e+03,2.395264e+03
1.331608e+03,2.417496e+03
1.334501e+03,2.410501e+03
1.337393e+03,2.402413e+03
1.340286e+03,2.408014e+03
1.343179e+03,2.395556e+03
1.346072e+03,2.387795e+03
1.348964e+03,2.403456e+03
1.351857e+03,2.387997e+03
1.354750e+03,2.386297e+03
1.357642e+03,2.388186e+03
1.360535e+03,2.375990e+03
1.363428e+03,2.379985e+03
1.366320e+03,2.381500e+03
1.369213e+03,2.371943e+03
1.372106e+03,2.372850e+03
1.374999e+03,2.367167e+03
1.377891e+03,2.363834e+03
1.380784e+03,2.365285e+03
1.383677e+03,2.362846e+03
1.386569e+03,2.353981e+03
1.389462e+03,2.340093e+03
1.392355e+03,2.340806e+03
1.395247e+03,2.338231e+03
1.398140e+03,2.347606e+03
1.401033e+03,2.323066e+03
1.403926e+03,2.331403e+03
1.406818e+03,2.328220e+03
1.409711e+03,2.330789e+03
1.412604e+03,2.336426e+03
1.415496e+03,2.315817e+03
1.418389e+03,2.321508e+03
1.421282e+03,2.299316e+03
1.424174e+03,2.313039e+03
1.427067e+03,2.303488e+03
1.429960e+03,2.292738e+03
1.432853e+03,2.308702e+03
1.435745e+03,2.278770e+03
1.438638e+03,2.302034e+03
1.441531e+03,2.295920e+03
1.444423e+03,2.289331e+03
1.447316e+03,2.288862e+03
1.450209e+03,2.268922e+03
1.453101e+03,2.268071e+03
1.455994e+03,2.265931e+03
1.458887e+03,2.274426e+03
1.461780e+03,2.278720e+03
1.464672e+03,2.257721e+03
1.467565e+03,2.255489e+03
1.470458e+03,2.265746e+03
1.473350e+03,2.249795e+03
1.476243e+03,2.254764e+03
1.479136e+03,2.245550e+03
1.482028e+03,2.238552e+03
1.484921e+03,2.248544e+03
1.487814e+03,2.229882e+03
1.490707e+03,2.233392e+03
1.493599e+03,2.230551e+03
1.496492e+03,2.219867e+03
1.499385e+03,2.227339e+03
1.502277e+03,2.214968e+03
1.505170e+03,2.222741e+03
1.508063e+03,2.217577e+03
1.510955e+03,2.188172e+03
1.513848e+03,2.212439e+03
1.516741e+03,2.219228e+03
1.519634e+03,2.201446e+03
1.522526e+03,2.197367e+03
1.525419e+03,2.189733e+03
1.528312e+03,2.187102e+03
1.531204e+03,2.166389e+03
1.534097e+03,2.176057e+03
1.536990e+03,2.189736e+03
1.539882e+03,2.177939e+03
1.542775e+03,2.171487e+03
1.545668e+03,2.172617e+03
1.548561e+03,2.180862e+03
1.551453e+03,2.157078e+03
1.554346e+03,2.177302e+03
1.557239e+03,2.163907e+03
1.560131e+03,2.160980e+03
1.563024e+03,2.162970e+03
1.565917e+03,2.155195e+03
1.568809e+03,2.158970e+03
1.571702e+03,2.153205e+03
1.574595e+03,2.149358e+03
1.577488e+03,2.148396e+03
1.580380e+03,2.149357e+03
1.583273e+03,2.143663e+03
1.586166e+03,2.149229e+03
1.589058e+03,2.125024e+03
1.591951e+03,2.132828e+03
1.594844e+03,2.132954e+03
1.597736e+03,2.119554e+03
1.600629e+03,2.116570e+03
1.603522e+03,2.121917e+03
1.606415e+03,2.100708e+03
1.609307e+03,2.107288e+03
1.612200e+03,2.104423e+03
1.615093e+03,2.100270e+03
1.617985e+03,2.095564e+03
1.620878e+03,2.085828e+03
1.623771e+03,2.087795e+03
1.626663e+03,2.087706e+03
1.629556e+03,2.078343e+03
1.632449e+03,2.077901e+03
1.635342e+03,2.068135e+03
1.638234e+03,2.068648e+03
1.641127e+03,2.066214e+03
1.644020e+03,2.054093e+03
1.646912e+03,2.054854e+03
1.649805e+03,2.052935e+03
1.652698e+03,2.047454e+03
1.655590e+03,2.043914e+03
1.658483e+03,2.031470e+03
1.661376e+03,2.039360e+03
1.664269e+03,2.018360e+03
1.667161e+03,2.028202e+03
1.670054e+03,2.017857e+03
1.672947e+03,2.015897e+03
1.675839e+03,2.000921e+03
1.678732e+03,2.004521e+03
1.681625e+03,1.988728e+03
1.684517e+03,2.011506e+03
1.687410e+03,1.993279e+03
1.690303e+03,1.984130e+03
1.693196e+03,1.990750e+03
1.696088e+03,1.974155e+03
1.698981e+03,1.992316e+03
1.701874e+03,1.973540e+03
1.704766e+03,1.978290e+03
1.707659e+03,1.978418e+03
1.710552e+03,1.965675e+03
1.713444e+03,1.968658e+03
1.716337e+03,1.950325e+03
1.719230e+03,1.948986e+03
1.722123e+03,1.936511e+03
1.725015e+03,1.944017e+03
1.727908e+03,1.950244e+03
1.730801e+03,1.937107e+03
1.733693e+03,1.931668e+03
1.736586e+03,1.919219e+03
1.739479e+03,1.928312e+03
1.742371e+03,1.916974e+03
1.745264e+03,1.914443e+03
1.748157e+03,1.932717e+03
1.751050e+03,1.909700e+03
1.753942e+03,1.923961e+03
1.756835e+03,1.904000e+03
1.759728e+03,1.891798e+03
1.762620e+03,1.902464e+03
1.765513e+03,1.903216e+03
1.768406e+03,1.891446e+03
1.771298e+03,1.888631e+03
1.774191e+03,1.855471e+03
1.777084e+03,1.882267e+03
1.779977e+03,1.871243e+03
1.782869e+03,1.871850e+03
1.785762e+03,1.863022e+03
1.788655e+03,1.868053e+03
1.791547e+03,1.856884e+03
1.794440e+03,1.854203e+03
1.797333e+03,1.872203e+03
1.800225e+03,1.843829e+03
1.803118e+03,1.835876e+03
1.806011e+03,1.826473e+03
1.808904e+03,1.816718e+03
1.811796e+03,1.819350e+03
1.814689e+03,1.824264e+03
1.817582e+03,1.819796e+03
1.820474e+03,1.820902e+03
1.823367e+03,1.803528e+03
1.826260e+03,1.815751e+03
1.829152e+03,1.805221e+03
1.832045e+03,1.809096e+03
1.834938e+03,1.793379e+03
1.837831e+03,1.775275e+03
1.840723e+03,1.796716e+03
1.843616e+03,1.797460e+03
1.846509e+03,1.790561e+03
1.849401e+03,1.765812e+03
1.852294e+03,1.759066e+03
1.855187e+03,1.772910e+03
1.858079e+03,1.763170e+03
1.860972e+03,1.749539e+03
1.863865e+03,1.746854e+03
1.866758e+03,1.749699e+03
1.869650e+03,1.755468e+03
1.872543e+03,1.759052e+03
1.875436e+03,1.748638e+03
1.878328e+03,1.728539e+03
1.881221e+03,1.724255e+03
1.884114e+03,1.719650e+03
1.887006e+03,1.719265e+03
1.889899e+03,1.716026e+03
1.892792e+03,1.722762e+03
1.895685e+03,1.702070e+03
1.898577e+03,1.714006e+03
1.901470e+03,1.690288e+03
1.904363e+03,1.703186e+03
1.907255e+03,1.694261e+03
1.910148e+03,1.689345e+03
1.913041e+03,1.680569e+03
1.915933e+03,1.662052e+03
1.918826e+03,1.677743e+03
1.921719e+03,1.674487e+03
1.924612e+03,1.670783e+03
1.927504e+03,1.668491e+03
1.930397e+03,1.660047e+03
1.933290e+03,1.641515e+03
1.936182e+03,1.639738e+03
1.939075e+03,1.642008e+03
1.941968e+03,1.647156e+03
1.944860e+03,1.624639e+03
1.947753e+03,1.648028e+03
1.950646e+03,1.624790e+03
1.953539e+03,1.626629e+03
1.956431e+03,1.630092e+03
1.959324e+03,1.621202e+03
1.962217e+03,1.611868e+03
1.965109e+03,1.619102e+03
1.968002e+03,1.621820e+03
1.970895e+03,1.608850e+03
1.973787e+03,1.597698e+03
1.976680e+03,1.604949e+03
1.979573e+03,1.584811e+03
1.982466e+03,1.598679e+03
1.985358e+03,1.576666e+03
1.988251e+03,1.572399e+03
1.991144e+03,1.570775e+03
1.994036e+03,1.561734e+03
1.996929e+03,1.555155e+03
1.999822e+03,1.563029e+03
2.002714e+03,1.553202e+03
2.005607e+03,1.547307e+03
2.008500e+03,1.559539e+03
2.011393e+03,1.545526e+03
2.014285e+03,1.530165e+03
2.017178e+03,1.543227e+03
2.020071e+03,1.529746e+03
2.022963e+03,1.523106e+03
2.025856e+03,1.517188e+03
2.028749e+03,1.505843e+03
2.031641e+03,1.519204e+03
2.034534e+03,1.520439e+03
2.037427e+03,1.498744e+03
2.040320e+03,1.506815e+03
2.043212e+03,1.478929e+03
2.046105e+03,1.503890e+03
2.048998e+03,1.489270e+03
2.051890e+03,1.489937e+03
2.054783e+03,1.473122e+03
2.057676e+03,1.471778e+03
2.060568e+03,1.461349e+03
2.063461e+03,1.480141e+03
2.066354e+03,1.462151e+03
2.069247e+03,1.451933e+03
2.072139e+03,1.444107e+03
2.075032e+03,1.449492e+03
2.077925e+03,1.460657e+03
2.080817e+03,1.452205e+03
2.083710e+03,1.438726e+03
2.086603e+03,1.413581e+03
2.089496e+03,1.421679e+03
2.092388e+03,1.416251e+03
2.095281e+03,1.414666e+03
2.098174e+03,1.434205e+03
2.101066e+03,1.423066e+03
2.103959e+03,1.413966e+03
2.106852e+03,1.390101e+03
2.109744e+03,1.414309e+03
2.112637e+03,1.404391e+03
2.115530e+03,1.398451e+03
2.118422e+03,1.388385e+03
2.121315e+03,1.401347e+03
2.124208e+03,1.374307e+03
2.127101e+03,1.375063e+03
2.129993e+03,1.377913e+03
2.132886e+03,1.380000e+03
2.135779e+03,1.368343e+03
2.138671e+03,1.365701e+03
2.141564e+03,1.349506e+03
2.144457e+03,1.354940e+03
2.147350e+03,1.337849e+03
2.150242e+03,1.353833e+03
2.153135e+03,1.342568e+03
2.156028e+03,1.345606e+03
2.158920e+03,1.343034e+03
2.161813e+03,1.337976e+03
2.164706e+03,1.328680e+03
2.167598e+03,1.315475e+03
2.170491e+03,1.308285e+03
2.173384e+03,1.308823e+03
2.176277e+03,1.307590e+03
2.179169e+03,1.287732e+03
2.182062e+03,1.291168e+03
2.184955e+03,1.287471e+03
2.187847e+03,1.285177e+03
2.190740e+03,1.294731e+03
2.193633e+03,1.286219e+03
2.196525e+03,1.281738e+03
2.199418e+03,1.278929e+03
2.202311e+03,1.266112e+03
2.205204e+03,1.278646e+03
2.208096e+03,1.273272e+03
2.210989e+03,1.249459e+03
2.213882e+03,1.253773e+03
2.216774e+03,1.254034e+03
2.219667e+03,1.261114e+03
2.222560e+03,1.260786e+03
2.225452e+03,1.234614e+03
2.228345e+03,1.240459e+03
2.231238e+03,1.242046e+03
2.234131e+03,1.237178e+03
2.237023e+03,1.235826e+03
2.239916e+03,1.224000e+03
2.242809e+03,1.209926e+03
2.245701e+03,1.215589e+03
2.248594e+03,1.219793e+03
2.251487e+03,1.219503e+03
2.254379e+03,1.209227e+03
2.257272e+03,1.192159e+03
2.260165e+03,1.198868e+03
2.263058e+03,1.200462e+03
2.265950e+03,1.185637e+03
2.268843e+03,1.186098e+03
2.271736e+03,1.180788e+03
2.274628e+03,1.167787e+03
2.277521e+03,1.185351e+03
2.280414e+03,1.170223e+03
2.283306e+03,1.170170e+03
2.286199e+03,1.163562e+03
2.289092e+03,1.160224e+03
2.291985e+03,1.166003e+03
2.294877e+03,1.153451e+03
2.297770e+03,1.160483e+03
2.300663e+03,1.140748e+03
2.303555e+03,1.149333e+03
2.306448e+03,1.136805e+03
2.309341e+03,1.138295e+03
2.312233e+03,1.133574e+03
2.315126e+03,1.145324e+03
2.318019e+03,1.133722e+03
2.320912e+03,1.117008e+03
2.323804e+03,1.131580e+03
2.326697e+03,1.122186e+03
2.329590e+03,1.111660e+03
2.332482e+03,1.114612e+03
2.335375e+03,1.098238e+03
2.338268e+03,1.096842e+03
2.341160e+03,1.102632e+03
2.344053e+03,1.109327e+03
2.346946e+03,1.086370e+03
2.349839e+03,1.081340e+03
2.352731e+03,1.090821e+03
2.355624e+03,1.080540e+03
2.358517e+03,1.086386e+03
2.361409e+03,1.078133e+03
2.364302e+03,1.064835e+03
2.367195e+03,1.078726e+03
2.370087e+03,1.071204e+03
2.372980e+03,1.070929e+03
2.375873e+03,1.074700e+03
2.378766e+03,1.067870e+03
2.381658e+03,1.052266e+03
2.384551e+03,1.058996e+03
2.387444e+03,1.041233e+03
2.390336e+03,1.053549e+03
2.393229e+03,1.049579e+03
2.396122e+03,1.045993e+03
2.399014e+03,1.034827e+03
2.401907e+03,1.038426e+03
2.404800e+03,1.027738e+03
2.407693e+03,1.035657e+03
2.410585e+03,1.028985e+03
2.413478e+03,1.027009e+03
2.416371e+03,1.018198e+03
2.419263e+03,1.007876e+03
2.422156e+03,1.022304e+03
2.425049e+03,9.989188e+02
2.427941e+03,1.001988e+03
2.430834e+03,1.003371e+03
2.433727e+03,1.004654e+03
2.436620e+03,9.861885e+02
2.439512e+03,1.008030e+03
2.442405e+03,1.000196e+03
2.445298e+03,9.785037e+02
2.448190e+03,9.717082e+02
2.451083e+03,9.781881e+02
2.453976e+03,9.720315e+02
2.456868e+03,9.780253e+02
2.459761e+03,9.712247e+02
2.462654e+03,9.654587e+02
2.465547e+03,9.668105e+02
2.468439e+03,9.657987e+02
2.471332e+03,9.690205e+02
2.474225e+03,9.536148e+02
2.477117e+03,9.651288e+02
2.480010e+03,9.673452e+02
2.482903e+03,9.421174e+02
2.485795e+03,9.500882e+02
2.488688e+03,9.518118e+02
2.491581e+03,9.335761e+02
2.494474e+03,9.456711e+02
2.497366e+03,9.432656e+02
2.500259e+03,9.375189e+02
2.503152e+03,9.351856e+02
2.506044e+03,9.273941e+02
2.508937e+03,9.310380e+02
2.511830e+03,9.247729e+02
2.514722e+03,9.294372e+02
2.517615e+03,9.237159e+02
2.520508e+03,9.191086e+02
2.523401e+03,9.127504e+02
2.526293e+03,9.290678e+02
2.529186e+03,9.027990e+02
2.532079e+03,9.156784e+02
2.534971e+03,9.094629e+02
2.537864e+03,9.015245e+02
2.540757e+03,8.970628e+02
2.543649e+03,9.024345e+02
2.546542e+03,9.089902e+02
2.549435e+03,9.133066e+02
2.552328e+03,9.099373e+02
2.555220e+03,8.986965e+02
2.558113e+03,9.064814e+02
2.561006e+03,8.903470e+02
2.563898e+03,8.989717e+02
2.566791e+03,8.948278e+02
2.569684e+03,8.954792e+02
2.572576e+03,8.750802e+02
2.575469e+03,8.864991e+02
2.578362e+03,8.790751e+02
2.581255e+03,8.790327e+02
2.584147e+03,8.652786e+02
2.587040e+03,8.681017e+02
2.589933e+03,8.655508e+02
2.592825e+03,8.729698e+02
2.595718e+03,8.490837e+02
2.598611e+03,8.739764e+02
2.601503e+03,8.571732e+02
2.604396e+03,8.576222e+02
2.607289e+03,8.421852e+02
2.610182e+03,8.530828e+02
2.613074e+03,8.486337e+02
2.615967e+03,8.375648e+02
2.618860e+03,8.449568e+02
2.621752e+03,8.474048e+02
2.624645e+03,8.477211e+02
2.627538e+03,8.409167e+02
2.630430e+03,8.463492e+02
2.633323e+03,8.436351e+02
2.636216e+03,8.345198e+02
2.639109e+03,8.255066e+02
2.642001e+03,8.298008e+02
2.644894e+03,8.365411e+02
2.647787e+03,8.129714e+02
2.650679e+03,8.179166e+02
2.653572e+03,8.249252e+02
2.656465e+03,8.171959e+02
2.659357e+03,8.186327e+02
2.662250e+03,8.130080e+02
2.665143e+03,8.224580e+02
2.668036e+03,8.197567e+02
2.670928e+03,8.098698e+02
2.673821e+03,8.129141e+02
2.676714e+03,8.092151e+02
2.679606e+03,7.997639e+02
2.682499e+03,8.116407e+02
2.685392e+03,8.159814e+02
2.688284e+03,8.028595e+02
2.691177e+03,7.829559e+02
2.694070e+03,8.019822e+02
2.696963e+03,8.003630e+02
2.699855e+03,7.931152e+02
2.702748e+03,7.890392e+02
2.705641e+03,7.936003e+02
2.708533e+03,8.030831e+02
2.711426e+03,7.776458e+02
2.714319e+03,7.936371e+02
2.717211e+03,7.838721e+02
2.720104e+03,7.893142e+02
2.722997e+03,7.729651e+02
2.725890e+03,7.851699e+02
2.728782e+03,7.775089e+02
2.731675e+03,7.827269e+02
2.734568e+03,7.859216e+02
2.737460e+03,7.590739e+02
2.740353e+03,7.726374e+02
2.743246e+03,7.682216e+02
2.746138e+03,7.781301e+02
2.749031e+03,7.631484e+02
2.751924e+03,7.725365e+02
2.754817e+03,7.577056e+02
2.757709e+03,7.566133e+02
2.760602e+03,7.440566e+02
2.763495e+03,7.639980e+02
2.766387e+03,7.532966e+02
2.769280e+03,7.460820e+02
2.772173e+03,7.676588e+02
2.775065e+03,7.448221e+02
2.777958e+03,7.342110e+02
2.780851e+03,7.353418e+02
2.783744e+03,7.241684e+02
2.786636e+03,7.422636e+02
2.789529e+03,7.375894e+02
2.792422e+03,7.382926e+02
2.795314e+03,7.299796e+02
2.798207e+03,7.373967e+02
2.801100e+03,7.382949e+02
2.803992e+03,7.295279e+02
2.806885e+03,7.219990e+02
2.809778e+03,7.340031e+02
2.812671e+03,7.230634e+02
2.815563e+03,7.292896e+02
2.818456e+03,7.297228e+02
2.821349e+03,7.070529e+02
2.824241e+03,7.308948e+02
2.827134e+03,7.211448e+02
2.830027e+03,7.182178e+02
2.832919e+03,7.218732e+02
2.835812e+03,7.222078e+02
2.838705e+03,7.331446e+02
2.841598e+03,7.236340e+02
2.844490e+03,7.238079e+02
2.847383e+03,7.108929e+02
2.850276e+03,7.369456e+02
2.853168e+03,7.225412e+02
2.856061e+03,7.242024e+02
2.858954e+03,7.085323e+02
2.861846e+03,7.231414e+02
2.864739e+03,7.192038e+02
2.867632e+03,7.398916e+02
2.870525e+03,7.205358e+02
2.873417e+03,7.357892e+02
2.876310e+03,7.226819e+02
2.879203e+03,7.525319e+02
2.882095e+03,7.166274e+02
2.884988e+03,7.234536e+02
2.887881e+03,7.260378e+02
2.890773e+03,7.194735e+02
2.893666e+03,7.244049e+02
2.896559e+03,7.200051e+02
2.899452e+03,7.298112e+02
2.902344e+03,7.417766e+02
2.905237e+03,7.238983e+02
2.908130e+03,7.131693e+02
2.911022e+03,7.190311e+02
2.913915e+03,6.809778e+02
2.916808e+03,7.065228e+02
2.919700e+03,7.012385e+02
2.922593e+03,6.968434e+02
2.925486e+03,7.050552e+02
2.928379e+03,7.061024e+02
2.931271e+03,6.935945e+02
2.934164e+03,7.121984e+02
2.937057e+03,6.971105e+02
2.939949e+03,6.959333e+02
2.942842e+03,6.706654e+02
2.945735e+03,6.817135e+02
2.948627e+03,6.742551e+02
2.951520e+03,6.720465e+02
2.954413e+03,6.838018e+02
2.957306e+03,7.201260e+02
2.960198e+03,6.918975e+02
2.963091e+03,6.563069e+02
2.965984e+03,6.965401e+02
2.968876e+03,6.634209e+02
2.971769e+03,6.652549e+02
2.974662e+03,6.550875e+02
2.977554e+03,6.675921e+02
2.980447e+03,6.484325e+02
2.983340e+03,6.620862e+02
2.986233e+03,6.380324e+02
2.989125e+03,6.465223e+02
2.992018e+03,6.385433e+02
2.994911e+03,6.335315e+02
2.997803e+03,6.650756e+02
3.000696e+03,6.354743e+02
3.003589e+03,6.400550e+02
3.006481e+03,6.390209e+02
3.009374e+03,6.308018e+02
3.012267e+03,6.330974e+02
3.015160e+03,6.274215e+02
3.018052e+03,6.503453e+02
3.020945e+03,6.332727e+02
3.023838e+03,6.371631e+02
3.026730e+03,6.317962e+02
3.029623e+03,6.423051e+02
3.032516e+03,6.428898e+02
3.035408e+03,6.219969e+02
3.038301e+03,6.528908e+02
3.041194e+03,6.444844e+02
3.044087e+03,6.384798e+02
3.046979e+03,6.357309e+02
3.049872e+03,6.170226e+02
3.052765e+03,6.101345e+02
3.055657e+03,6.378076e+02
3.058550e+03,6.429173e+02
3.061443e+03,6.570555e+02
3.064335e+03,6.111615e+02
3.067228e+03,6.493140e+02
3.070121e+03,6.124652e+02
3.073014e+03,5.790053e+02
3.075906e+03,6.221553e+02
3.078799e+03,6.167920e+02
3.081692e+03,6.021663e+02
3.084584e+03,6.139490e+02
3.087477e+03,6.273445e+02
3.090370e+03,6.438842e+02
3.093262e+03,6.361662e+02
3.096155e+03,6.063900e+02
3.099048e+03,6.035285e+02
3.101941e+03,6.288858e+02
3.104833e+03,6.405668e+02
3.107726e+03,5.995173e+02
3.110619e+03,6.099372e+02
3.113511e+03,6.158661e+02
3.116404e+03,6.206823e+02
3.119297e+03,6.208121e+02
3.122189e+03,6.282752e+02
3.125082e+03,6.212238e+02
3.127975e+03,6.241205e+02
3.130868e+03,5.893807e+02
3.133760e+03,6.208129e+02
3.136653e+03,6.238341e+02
3.139546e+03,6.145099e+02
3.142438e+03,6.459799e+02
3.145331e+03,5.990464e+02
3.148224e+03,6.539943e+02
3.151116e+03,5.906976e+02
3.154009e+03,5.951221e+02
3.156902e+03,6.174758e+02
3.159795e+03,6.341166e+02
3.162687e+03,6.229570e+02
3.165580e+03,6.457493e+02
3.168473e+03,6.294814e+02
3.171365e+03,6.025333e+02
3.174258e+03,6.194558e+02
3.177151e+03,6.019159e+02
3.180043e+03,6.435370e+02
3.182936e+03,6.139515e+02
3.185829e+03,6.029114e+02
3.188722e+03,5.895948e+02
3.191614e+03,6.113400e+02
3.194507e+03,6.234572e+02
3.197400e+03,6.317380e+02
3.200292e+03,6.343485e+02
3.203185e+03,0.000000e+00
3.206078e+03,0.000000e+00
3.208970e+03,0.000000e+00
3.211863e+03,0.000000e+00
3.214756e+03,0.000000e+00
3.217649e+03,0.000000e+00
3.220541e+03,0.000000e+00
3.223434e+03,0.000000e+00
3.226327e+03,0.000000e+00
3.229219e+03,0.000000e+00
3.232112e+03,0.000000e+00
3.235005e+03,0.000000e+00
3.237897e+03,0.000000e+00
3.240790e+03,0.000000e+00
3.243683e+03,0.000000e+00
3.246576e+03,0.000000e+00
3.249468e+03,0.000000e+00
3.252361e+03,0.000000e+00
3.255254e+03,0.000000e+00
3.258146e+03,0.000000e+00
3.261039e+03,0.000000e+00
3.263932e+03,0.000000e+00
3.266824e+03,0.000000e+00
3.269717e+03,0.000000e+00
3.272610e+03,0.000000e+00
3.275503e+03,0.000000e+00
3.278395e+03,0.000000e+00
3.281288e+03,0.000000e+00
3.284181e+03,0.000000e+00
3.287073e+03,0.000000e+00
3.289966e+03,0.000000e+00
3.292859e+03,0.000000e+00
3.295751e+03,0.000000e+00
3.298644e+03,0.000000e+00
3.301537e+03,0.000000e+00
3.304430e+03,0.000000e+00
3.307322e+03,0.000000e+00
3.310215e+03,0.000000e+00
3.313108e+03,0.000000e+00
3.316000e+03,0.000000e+00
3.318893e+03,0.000000e+00
3.321786e+03,0.000000e+00
3.324678e+03,0.000000e+00
3.327571e+03,0.000000e+00
3.330464e+03,0.000000e+00
3.333357e+03,0.000000e+00
3.336249e+03,0.000000e+00
3.339142e+03,0.000000e+00
3.342035e+03,0.000000e+00
3.344927e+03,0.000000e+00
3.347820e+03,0.000000e+00
3.350713e+03,0.000000e+00
3.353605e+03,0.000000e+00
3.356498e+03,0.000000e+00
3.359391e+03,0.000000e+00
3.362284e+03,0.000000e+00
3.365176e+03,0.000000e+00
3.368069e+03,0.000000e+00
3.370962e+03,0.000000e+00
3.373854e+03,0.000000e+00
3.376747e+03,0.000000e+00
3.379640e+03,0.000000e+00
3.382532e+03,0.000000e+00
3.385425e+03,0.000000e+00
3.388318e+03,0.000000e+00
3.391211e+03,0.000000e+00
3.394103e+03,0.000000e+00
3.396996e+03,0.000000e+00
3.399889e+03,0.000000e+00
3.402781e+03,0.000000e+00
3.405674e+03,0.000000e+00
3.408567e+03,0.000000e+00
3.411459e+03,0.000000e+00
3.414352e+03,0.000000e+00
3.417245e+03,0.000000e+00
3.420138e+03,0.000000e+00
3.423030e+03,0.000000e+00
3.425923e+03,0.000000e+00
3.428816e+03,0.000000e+00
3.431708e+03,0.000000e+00
3.434601e+03,0.000000e+00
3.437494e+03,0.000000e+00
3.440386e+03,0.000000e+00
3.443279e+03,0.000000e+00
3.446172e+03,0.000000e+00
3.449065e+03,0.000000e+00
3.451957e+03,0.000000e+00
3.454850e+03,0.000000e+00
3.457743e+03,0.000000e+00
3.460635e+03,0.000000e+00
3.463528e+03,0.000000e+00
3.466421e+03,0.000000e+00
3.469313e+03,0.000000e+00
3.472206e+03,0.000000e+00
3.475099e+03,0.000000e+00
3.477992e+03,0.000000e+00
3.480884e+03,0.000000e+00
3.483777e+03,0.000000e+00
3.486670e+03,0.000000e+00
3.489563e+03,0.000000e+00
3.492455e+03,0.000000e+00
3.495348e+03,0.000000e+00
3.498240e+03,0.000000e+00
3.500169e+03,0.000000e+00