File: RAMAN_data/19072023_r1/black fibre1.CSV
9.931763e+01,0.000000e+00
1.022103e+02,0.000000e+00
1.051030e+02,0.000000e+00
1.079957e+02,0.000000e+00
1.108884e+02,0.000000e+00
1.137811e+02,0.000000e+00
1.166738e+02,0.000000e+00
1.195665e+02,0.000000e+00
1.224592e+02,0.000000e+00
1.253519e+02,0.000000e+00
1.282446e+02,0.000000e+00
1.311373e+02,0.000000e+00
1.340300e+02,0.000000e+00
1.369227e+02,0.000000e+00
1.398154e+02,0.000000e+00
1.427081e+02,0.000000e+00
1.456008e+02,0.000000e+00
1.484935e+02,0.000000e+00
1.513862e+02,0.000000e+00
1.542789e+02,0.000000e+00
1.571716e+02,0.000000e+00
1.600643e+02,0.000000e+00
1.629570e+02,0.000000e+00
1.658497e+02,0.000000e+00
1.687424e+02,0.000000e+00
1.716351e+02,0.000000e+00
1.745278e+02,0.000000e+00
1.774205e+02,0.000000e+00
1.803132e+02,0.000000e+00
1.832059e+02,0.000000e+00
1.860986e+02,0.000000e+00
1.889913e+02,0.000000e+00
1.918840e+02,0.000000e+00
1.947767e+02,0.000000e+00
1.976694e+02,0.000000e+00
2.005621e+02,4.943776e+03
2.034548e+02,4.963451e+03
2.063475e+02,4.974788e+03
2.092402e+02,4.974233e+03
2.121329e+02,4.967578e+03
2.150256e+02,4.985072e+03
2.179183e+02,4.999553e+03
2.208110e+02,5.015721e+03
2.237037e+02,5.006145e+03
2.265964e+02,4.994905e+03
2.294892e+02,5.015218e+03
2.323819e+02,5.035253e+03
2.352746e+02,5.045922e+03
2.381673e+02,5.050499e+03
2.410600e+02,5.037099e+03
2.439527e+02,5.024432e+03
2.468454e+02,5.036261e+03
2.497381e+02,5.063143e+03
2.526308e+02,5.077292e+03
2.555235e+02,5.068828e+03
2.584161e+02,5.055595e+03
2.613088e+02,5.076623e+03
2.642015e+02,5.102197e+03
2.670942e+02,5.103224e+03
2.699869e+02,5.122940e+03
2.728796e+02,5.108290e+03
2.757723e+02,5.113379e+03
2.786650e+02,5.136185e+03
2.815577e+02,5.141166e+03
2.844504e+02,5.112576e+03
2.873431e+02,5.135530e+03
2.902358e+02,5.127545e+03
2.931285e+02,5.129454e+03
2.960212e+02,5.137382e+03
2.989139e+02,5.165095e+03
3.018066e+02,5.149186e+03
3.046993e+02,5.147118e+03
3.075920e+02,5.151616e+03
3.104847e+02,5.152312e+03
3.133774e+02,5.169638e+03
3.162701e+02,5.179629e+03
3.191628e+02,5.165400e+03
3.220555e+02,5.197849e+03
3.249482e+02,5.191459e+03
3.278409e+02,5.193682e+03
3.307336e+02,5.193903e+03
3.336263e+02,5.182275e+03
3.365190e+02,5.169477e+03
3.394117e+02,5.176631e+03
3.423044e+02,5.222799e+03
3.451971e+02,5.215732e+03
3.480898e+02,5.197325e+03
3.509825e+02,5.219258e+03
3.538752e+02,5.229370e+03
3.567680e+02,5.225100e+03
3.596607e+02,5.226345e+03
3.625534e+02,5.230289e+03
3.654461e+02,5.221328e+03
3.683388e+02,5.225684e+03
3.712315e+02,5.241790e+03
3.741242e+02,5.241477e+03
3.770169e+02,5.274138e+03
3.799096e+02,5.252148e+03
3.828023e+02,5.224716e+03
3.856950e+02,5.234940e+03
3.885877e+02,5.236365e+03
3.914804e+02,5.237261e+03
3.943731e+02,5.238726e+03
3.972658e+02,5.249773e+03
4.001585e+02,5.261346e+03
4.030512e+02,5.237368e+03
4.059439e+02,5.236417e+03
4.088366e+02,5.254468e+03
4.117293e+02,5.248515e+03
4.146220e+02,5.215154e+03
4.175147e+02,5.242291e+03
4.204074e+02,5.259901e+03
4.233001e+02,5.250993e+03
4.261928e+02,5.249429e+03
4.290855e+02,5.260543e+03
4.319782e+02,5.239511e+03
4.348709e+02,5.243984e+03
4.377636e+02,5.253944e+03
4.406563e+02,5.262112e+03
4.435490e+02,5.241089e+03
4.464417e+02,5.260320e+03
4.493344e+02,5.245129e+03
4.522271e+02,5.257833e+03
4.551198e+02,5.281352e+03
4.580125e+02,5.261166e+03
4.609052e+02,5.233375e+03
4.637979e+02,5.243070e+03
4.666906e+02,5.243515e+03
4.695833e+02,5.248768e+03
4.724760e+02,5.244069e+03
4.753687e+02,5.246557e+03
4.782614e+02,5.252292e+03
4.811541e+02,5.294822e+03
4.840468e+02,5.345939e+03
4.869395e+02,5.374292e+03
4.898322e+02,5.363970e+03
4.927249e+02,5.298336e+03
4.956176e+02,5.308292e+03
4.985103e+02,5.272747e+03
5.014030e+02,5.267081e+03
5.042957e+02,5.230192e+03
5.071884e+02,5.233138e+03
5.100811e+02,5.241847e+03
5.129738e+02,5.260843e+03
5.158665e+02,5.257106e+03
5.187592e+02,5.234698e+03
5.216519e+02,5.220749e+03
5.245446e+02,5.225484e+03
5.274373e+02,5.213925e+03
5.303300e+02,5.194264e+03
5.332227e+02,5.193548e+03
5.361154e+02,5.198941e+03
5.390081e+02,5.180915e+03
5.419008e+02,5.183045e+03
5.447935e+02,5.212030e+03
5.476862e+02,5.203359e+03
5.505789e+02,5.182462e+03
5.534716e+02,5.171766e+03
5.563643e+02,5.162413e+03
5.592570e+02,5.173746e+03
5.621497e+02,5.181902e+03
5.650424e+02,5.164255e+03
5.679351e+02,5.157488e+03
5.708278e+02,5.163510e+03
5.737205e+02,5.162829e+03
5.766132e+02,5.182063e+03
5.795059e+02,5.162524e+03
5.823986e+02,5.158999e+03
5.852913e+02,5.163444e+03
5.881840e+02,5.164404e+03
5.910767e+02,5.162345e+03
5.939694e+02,5.151279e+03
5.968621e+02,5.147861e+03
5.997548e+02,5.147137e+03
6.026475e+02,5.160607e+03
6.055402e+02,5.155285e+03
6.084329e+02,5.170403e+03
6.113256e+02,5.162521e+03
6.142183e+02,5.136275e+03
6.171110e+02,5.113155e+03
6.200037e+02,5.118158e+03
6.228964e+02,5.103761e+03
6.257891e+02,5.099345e+03
6.286818e+02,5.093871e+03
6.315745e+02,5.094883e+03
6.344672e+02,5.087728e+03
6.373599e+02,5.096798e+03
6.402526e+02,5.102097e+03
6.431453e+02,5.082390e+03
6.460380e+02,5.078111e+03
6.489307e+02,5.082687e+03
6.518234e+02,5.054740e+03
6.547161e+02,5.076901e+03
6.576088e+02,5.051317e+03
6.605015e+02,5.045445e+03
6.633942e+02,5.015167e+03
6.662869e+02,5.051323e+03
6.691796e+02,5.044720e+03
6.720723e+02,5.021194e+03
6.749650e+02,5.036688e+03
6.778577e+02,5.002023e+03
6.807504e+02,5.012066e+03
6.836431e+02,5.006420e+03
6.865358e+02,5.004153e+03
6.894285e+02,5.005020e+03
6.923212e+02,5.014171e+03
6.952139e+02,4.983808e+03
6.981066e+02,4.986990e+03
7.009993e+02,4.962416e+03
7.038920e+02,4.969337e+03
7.067847e+02,4.971009e+03
7.096774e+02,4.942930e+03
7.125701e+02,4.972819e+03
7.154628e+02,4.961218e+03
7.183555e+02,4.961936e+03
7.212482e+02,4.946454e+03
7.241409e+02,4.939331e+03
7.270336e+02,4.941737e+03
7.299263e+02,4.938178e+03
7.328190e+02,4.924911e+03
7.357117e+02,4.898471e+03
7.386044e+02,4.904207e+03
7.414971e+02,4.875189e+03
7.443898e+02,4.885306e+03
7.472825e+02,4.891178e+03
7.501752e+02,4.894657e+03
7.530679e+02,4.884640e+03
7.559606e+02,4.868858e+03
7.588533e+02,4.879148e+03
7.617460e+02,4.871146e+03
7.646387e+02,4.821940e+03
7.675314e+02,4.837436e+03
7.704241e+02,4.842198e+03
7.733168e+02,4.821492e+03
7.762095e+02,4.827481e+03
7.791022e+02,4.834591e+03
7.819949e+02,4.802557e+03
7.848876e+02,4.797374e+03
7.877803e+02,4.791601e+03
7.906730e+02,4.786062e+03
7.935657e+02,4.806612e+03
7.964584e+02,4.772587e+03
7.993511e+02,4.776678e+03
8.022438e+02,4.771491e+03
8.051365e+02,4.754712e+03
8.080292e+02,4.750449e+03
8.109219e+02,4.761467e+03
8.138146e+02,4.759167e+03
8.167073e+02,4.749414e+03
8.196000e+02,4.761073e+03
8.224927e+02,4.735325e+03
8.253854e+02,4.741791e+03
8.282781e+02,4.731614e+03
8.311708e+02,4.717761e+03
8.340635e+02,4.728849e+03
8.369562e+02,4.738895e+03
8.398489e+02,4.715757e+03
8.427416e+02,4.708490e+03
8.456343e+02,4.701261e+03
8.485270e+02,4.689213e+03
8.514197e+02,4.686919e+03
8.543124e+02,4.664558e+03
8.572051e+02,4.673285e+03
8.600978e+02,4.630207e+03
8.629905e+02,4.642518e+03
8.658832e+02,4.646714e+03
8.687759e+02,4.625531e+03
8.716686e+02,4.623791e+03
8.745613e+02,4.638319e+03
8.774540e+02,4.611879e+03
8.803467e+02,4.602007e+03
8.832394e+02,4.615447e+03
8.861321e+02,4.610292e+03
8.890248e+02,4.609786e+03
8.919175e+02,4.582938e+03
8.948102e+02,4.593326e+03
8.977029e+02,4.587438e+03
9.005956e+02,4.562757e+03
9.034883e+02,4.599912e+03
9.063810e+02,4.546885e+03
9.092737e+02,4.553875e+03
9.121664e+02,4.548426e+03
9.150591e+02,4.536225e+03
9.179518e+02,4.538172e+03
9.208445e+02,4.498458e+03
9.237372e+02,4.502571e+03
9.266299e+02,4.488847e+03
9.295226e+02,4.507045e+03
9.324153e+02,4.517326e+03
9.353080e+02,4.487943e+03
9.382007e+02,4.478597e+03
9.410934e+02,4.465023e+03
9.439861e+02,4.447611e+03
9.468788e+02,4.457885e+03
9.497715e+02,4.463593e+03
9.526642e+02,4.465679e+03
9.555569e+02,4.422372e+03
9.584496e+02,4.422336e+03
9.613423e+02,4.428781e+03
9.642350e+02,4.402233e+03
9.671277e+02,4.402727e+03
9.700204e+02,4.404990e+03
9.729131e+02,4.381608e+03
9.758058e+02,4.400214e+03
9.786985e+02,4.393521e+03
9.815912e+02,4.372298e+03
9.844839e+02,4.361604e+03
9.873766e+02,4.366475e+03
9.902693e+02,4.370085e+03
9.931620e+02,4.366419e+03
9.960547e+02,4.358546e+03
9.989474e+02,4.369986e+03
1.001840e+03,4.340770e+03
1.004733e+03,4.356026e+03
1.007626e+03,4.352379e+03
1.010518e+03,4.345286e+03
1.013411e+03,4.314681e+03
1.016304e+03,4.288616e+03
1.019196e+03,4.288189e+03
1.022089e+03,4.300986e+03
1.024982e+03,4.278535e+03
1.027875e+03,4.284694e+03
1.030767e+03,4.262387e+03
1.033660e+03,4.252314e+03
1.036552e+03,4.272231e+03
1.039445e+03,4.261019e+03
1.042338e+03,4.266928e+03
1.045231e+03,4.238108e+03
1.048123e+03,4.218336e+03
1.051016e+03,4.227716e+03
1.053909e+03,4.242664e+03
1.056802e+03,4.204730e+03
1.059694e+03,4.204848e+03
1.062587e+03,4.201295e+03
1.065479e+03,4.217154e+03
1.068372e+03,4.209778e+03
1.071265e+03,4.206476e+03
1.074158e+03,4.200658e+03
1.077050e+03,4.184445e+03
1.079943e+03,4.202539e+03
1.082836e+03,4.198967e+03
1.085729e+03,4.178942e+03
1.088621e+03,4.182647e+03
1.091514e+03,4.202807e+03
1.094406e+03,4.182294e+03
1.097299e+03,4.177199e+03
1.100192e+03,4.158790e+03
1.103085e+03,4.164081e+03
1.105977e+03,4.157417e+03
1.108870e+03,4.144860e+03
1.111763e+03,4.165477e+03
1.114656e+03,4.166952e+03
1.117548e+03,4.201917e+03
1.120441e+03,4.187710e+03
1.123334e+03,4.179995e+03
1.126226e+03,4.190499e+03
1.129119e+03,4.183412e+03
1.132012e+03,4.189692e+03
1.134904e+03,4.174273e+03
1.137797e+03,4.179836e+03
1.140690e+03,4.162226e+03
1.143583e+03,4.135969e+03
1.146475e+03,4.149470e+03
1.149368e+03,4.160752e+03
1.152261e+03,4.188260e+03
1.155153e+03,4.147165e+03
1.158046e+03,4.098906e+03
1.160939e+03,4.086129e+03
1.163831e+03,4.076241e+03
1.166724e+03,4.056069e+03
1.169617e+03,4.039212e+03
1.172510e+03,4.046334e+03
1.175402e+03,4.062097e+03
1.178295e+03,4.062300e+03
1.181188e+03,4.054123e+03
1.184080e+03,4.053883e+03
1.186973e+03,4.022323e+03
1.189866e+03,4.027750e+03
1.192758e+03,4.007410e+03
1.195651e+03,3.993890e+03
1.198544e+03,3.989998e+03
1.201437e+03,3.996193e+03
1.204329e+03,3.982101e+03
1.207222e+03,3.995337e+03
1.210115e+03,3.998992e+03
1.213007e+03,4.004538e+03
1.215900e+03,3.966797e+03
1.218793e+03,3.965899e+03
1.221685e+03,3.962104e+03
1.224578e+03,3.968992e+03
1.227471e+03,3.949724e+03
1.230364e+03,3.944110e+03
1.233256e+03,3.932952e+03
1.236149e+03,3.915161e+03
1.239042e+03,3.927177e+03
1.241934e+03,3.934246e+03
1.244827e+03,3.902714e+03
1.247720e+03,3.905334e+03
1.250612e+03,3.871140e+03
1.253505e+03,3.883795e+03
1.256398e+03,3.900218e+03
1.259291e+03,3.892861e+03
1.262183e+03,3.884458e+03
1.265076e+03,3.872628e+03
1.267969e+03,3.868273e+03
1.270861e+03,3.892533e+03
1.273754e+03,3.912599e+03
1.276647e+03,3.922430e+03
1.279539e+03,3.910344e+03
1.282432e+03,3.916964e+03
1.285325e+03,3.915837e+03
1.288218e+03,3.884009e+03
1.291110e+03,3.850601e+03
1.294003e+03,3.850051e+03
1.296896e+03,3.803059e+03
1.299788e+03,3.814789e+03
1.302681e+03,3.822800e+03
1.305574e+03,3.803245e+03
1.308466e+03,3.804872e+03
1.311359e+03,3.783519e+03
1.314252e+03,3.783520e+03
1.317145e+03,3.795877e+03
1.320037e+03,3.793785e+03
1.322930e+03,3.763801e+03
1.325823e+03,3.770010e+03
1.328715e+03,3.760817e+03
1.331608e+03,3.789048e+03
1.334501e+03,3.806480e+03
1.337393e+03,3.802038e+03
1.340286e+03,3.799550e+03
1.343179e+03,3.768025e+03
1.346072e+03,3.762609e+03
1.348964e+03,3.762101e+03
1.351857e+03,3.775777e+03
1.354750e+03,3.739366e+03
1.357642e+03,3.724599e+03
1.360535e+03,3.726875e+03
1.363428e+03,3.733435e+03
1.366320e+03,3.715260e+03
1.369213e+03,3.713502e+03
1.372106e+03,3.692853e+03
1.374999e+03,3.679929e+03
1.377891e+03,3.672557e+03
1.380784e+03,3.667091e+03
1.383677e+03,3.651281e+03
1.386569e+03,3.639741e+03
1.389462e+03,3.625526e+03
1.392355e+03,3.613076e+03
1.395247e+03,3.620805e+03
1.398140e+03,3.614113e+03
1.401033e+03,3.605266e+03
1.403926e+03,3.609185e+03
1.406818e+03,3.612342e+03
1.409711e+03,3.610425e+03
1.412604e+03,3.611135e+03
1.415496e+03,3.603047e+03
1.418389e+03,3.571123e+03
1.421282e+03,3.580873e+03
1.424174e+03,3.552822e+03
1.427067e+03,3.562321e+03
1.429960e+03,3.564817e+03
1.432853e+03,3.524006e+03
1.435745e+03,3.512456e+03
1.438638e+03,3.514553e+03
1.441531e+03,3.507609e+03
1.444423e+03,3.493257e+03
1.447316e+03,3.496086e+03
1.450209e+03,3.462908e+03
1.453101e+03,3.457852e+03
1.455994e+03,3.463694e+03
1.458887e+03,3.482374e+03
1.461780e+03,3.462442e+03
1.464672e+03,3.468304e+03
1.467565e+03,3.435518e+03
1.470458e+03,3.443458e+03
1.473350e+03,3.447353e+03
1.476243e+03,3.455086e+03
1.479136e+03,3.448422e+03
1.482028e+03,3.426057e+03
1.484921e+03,3.426729e+03
1.487814e+03,3.435595e+03
1.490707e+03,3.421967e+03
1.493599e+03,3.414557e+03
1.496492e+03,3.416409e+03
1.499385e+03,3.392194e+03
1.502277e+03,3.408626e+03
1.505170e+03,3.390121e+03
1.508063e+03,3.368770e+03
1.510955e+03,3.376945e+03
1.513848e+03,3.361600e+03
1.516741e+03,3.350403e+03
1.519634e+03,3.349893e+03
1.522526e+03,3.364515e+03
1.525419e+03,3.344895e+03
1.528312e+03,3.338167e+03
1.531204e+03,3.324505e+03
1.534097e+03,3.327884e+03
1.536990e+03,3.301055e+03
1.539882e+03,3.312279e+03
1.542775e+03,3.298080e+03
1.545668e+03,3.290515e+03
1.548561e+03,3.320031e+03
1.551453e+03,3.336575e+03
1.554346e+03,3.302403e+03
1.557239e+03,3.308296e+03
1.560131e+03,3.306452e+03
1.563024e+03,3.303789e+03
1.565917e+03,3.336794e+03
1.568809e+03,3.314216e+03
1.571702e+03,3.322109e+03
1.574595e+03,3.313066e+03
1.577488e+03,3.304672e+03
1.580380e+03,3.320651e+03
1.583273e+03,3.332134e+03
1.586166e+03,3.298159e+03
1.589058e+03,3.294149e+03
1.591951e+03,3.280208e+03
1.594844e+03,3.256843e+03
1.597736e+03,3.250989e+03
1.600629e+03,3.230436e+03
1.603522e+03,3.218079e+03
1.606415e+03,3.205451e+03
1.609307e+03,3.207433e+03
1.612200e+03,3.183368e+03
1.615093e+03,3.195352e+03
1.617985e+03,3.176270e+03
1.620878e+03,3.165216e+03
1.623771e+03,3.156244e+03
1.626663e+03,3.132334e+03
1.629556e+03,3.119321e+03
1.632449e+03,3.124676e+03
1.635342e+03,3.134992e+03
1.638234e+03,3.125745e+03
1.641127e+03,3.116604e+03
1.644020e+03,3.111387e+03
1.646912e+03,3.092997e+03
1.649805e+03,3.101754e+03
1.652698e+03,3.079579e+03
1.655590e+03,3.067433e+03
1.658483e+03,3.056251e+03
1.661376e+03,3.077586e+03
1.664269e+03,3.057231e+03
1.667161e+03,3.035820e+03
1.670054e+03,3.034444e+03
1.672947e+03,3.049609e+03
1.675839e+03,3.035181e+03
1.678732e+03,3.025982e+03
1.681625e+03,3.036070e+03
1.684517e+03,3.024629e+03
1.687410e+03,3.021994e+03
1.690303e+03,3.021962e+03
1.693196e+03,2.990785e+03
1.696088e+03,2.986015e+03
1.698981e+03,2.996911e+03
1.701874e+03,2.973921e+03
1.704766e+03,2.972811e+03
1.707659e+03,2.992594e+03
1.710552e+03,2.960741e+03
1.713444e+03,2.938101e+03
1.716337e+03,2.924403e+03
1.719230e+03,2.942984e+03
1.722123e+03,2.935659e+03
1.725015e+03,2.928146e+03
1.727908e+03,2.903881e+03
1.730801e+03,2.905153e+03
1.733693e+03,2.917576e+03
1.736586e+03,2.910832e+03
1.739479e+03,2.908528e+03
1.742371e+03,2.890965e+03
1.745264e+03,2.892106e+03
1.748157e+03,2.864647e+03
1.751050e+03,2.882353e+03
1.753942e+03,2.864794e+03
1.756835e+03,2.872437e+03
1.759728e+03,2.841662e+03
1.762620e+03,2.864818e+03
1.765513e+03,2.842251e+03
1.768406e+03,2.844401e+03
1.771298e+03,2.842500e+03
1.774191e+03,2.819535e+03
1.777084e+03,2.823036e+03
1.779977e+03,2.815211e+03
1.782869e+03,2.824974e+03
1.785762e+03,2.802139e+03
1.788655e+03,2.790947e+03
1.791547e+03,2.775383e+03
1.794440e+03,2.770971e+03
1.797333e+03,2.791699e+03
1.800225e+03,2.778114e+03
1.803118e+03,2.762895e+03
1.806011e+03,2.764773e+03
1.808904e+03,2.766546e+03
1.811796e+03,2.742977e+03
1.814689e+03,2.749239e+03
1.817582e+03,2.731429e+03
1.820474e+03,2.734280e+03
1.823367e+03,2.724354e+03
1.826260e+03,2.716563e+03
1.829152e+03,2.708582e+03
1.832045e+03,2.715223e+03
1.834938e+03,2.694033e+03
1.837831e+03,2.685198e+03
1.840723e+03,2.697306e+03
1.843616e+03,2.678457e+03
1.846509e+03,2.667384e+03
1.849401e+03,2.680542e+03
1.852294e+03,2.667962e+03
1.855187e+03,2.672472e+03
1.858079e+03,2.652073e+03
1.860972e+03,2.639627e+03
1.863865e+03,2.656041e+03
1.866758e+03,2.637710e+03
1.869650e+03,2.597658e+03
1.872543e+03,2.608401e+03
1.875436e+03,2.634999e+03
1.878328e+03,2.612165e+03
1.881221e+03,2.596527e+03
1.884114e+03,2.587160e+03
1.887006e+03,2.597933e+03
1.889899e+03,2.582702e+03
1.892792e+03,2.579915e+03
1.895685e+03,2.563734e+03
1.898577e+03,2.560487e+03
1.901470e+03,2.550968e+03
1.904363e+03,2.536340e+03
1.907255e+03,2.553345e+03
1.910148e+03,2.535693e+03
1.913041e+03,2.509597e+03
1.915933e+03,2.509912e+03
1.918826e+03,2.506985e+03
1.921719e+03,2.521659e+03
1.924612e+03,2.501611e+03
1.927504e+03,2.502410e+03
1.930397e+03,2.481600e+03
1.933290e+03,2.485446e+03
1.936182e+03,2.489198e+03
1.939075e+03,2.457083e+03
1.941968e+03,2.463958e+03
1.944860e+03,2.463640e+03
1.947753e+03,2.452502e+03
1.950646e+03,2.439805e+03
1.953539e+03,2.444230e+03
1.956431e+03,2.413407e+03
1.959324e+03,2.460954e+03
1.962217e+03,2.427861e+03
1.965109e+03,2.415060e+03
1.968002e+03,2.422596e+03
1.970895e+03,2.397948e+03
1.973787e+03,2.415674e+03
1.976680e+03,2.386318e+03
1.979573e+03,2.389680e+03
1.982466e+03,2.410941e+03
1.985358e+03,2.366520e+03
1.988251e+03,2.367083e+03
1.991144e+03,2.368081e+03
1.994036e+03,2.364215e+03
1.996929e+03,2.354197e+03
1.999822e+03,2.337089e+03
2.002714e+03,2.357130e+03
2.005607e+03,2.324012e+03
2.008500e+03,2.313726e+03
2.011393e+03,2.327898e+03
2.014285e+03,2.312466e+03
2.017178e+03,2.308801e+03
2.020071e+03,2.317703e+03
2.022963e+03,2.275952e+03
2.025856e+03,2.292008e+03
2.028749e+03,2.281296e+03
2.031641e+03,2.259610e+03
2.034534e+03,2.272816e+03
2.037427e+03,2.275802e+03
2.040320e+03,2.246928e+03
2.043212e+03,2.244339e+03
2.046105e+03,2.228419e+03
2.048998e+03,2.252867e+03
2.051890e+03,2.234309e+03
2.054783e+03,2.232826e+03
2.057676e+03,2.219559e+03
2.060568e+03,2.207098e+03
2.063461e+03,2.207896e+03
2.066354e+03,2.201736e+03
2.069247e+03,2.189360e+03
2.072139e+03,2.190271e+03
2.075032e+03,2.174875e+03
2.077925e+03,2.189401e+03
2.080817e+03,2.181861e+03
2.083710e+03,2.178814e+03
2.086603e+03,2.137268e+03
2.089496e+03,2.149378e+03
2.092388e+03,2.164849e+03
2.095281e+03,2.138782e+03
2.098174e+03,2.161160e+03
2.101066e+03,2.134912e+03
2.103959e+03,2.095184e+03
2.106852e+03,2.126343e+03
2.109744e+03,2.109319e+03
2.112637e+03,2.115841e+03
2.115530e+03,2.102903e+03
2.118422e+03,2.076372e+03
2.121315e+03,2.107798e+03
2.124208e+03,2.077844e+03
2.127101e+03,2.080251e+03
2.129993e+03,2.069532e+03
2.132886e+03,2.065803e+03
2.135779e+03,2.046372e+03
2.138671e+03,2.055915e+03
2.141564e+03,2.057964e+03
2.144457e+03,2.033852e+03
2.147350e+03,2.025435e+03
2.150242e+03,2.036092e+03
2.153135e+03,2.020526e+03
2.156028e+03,2.018031e+03
2.158920e+03,2.010945e+03
2.161813e+03,1.996198e+03
2.164706e+03,1.999080e+03
2.167598e+03,1.994686e+03
2.170491e+03,1.997426e+03
2.173384e+03,1.998288e+03
2.176277e+03,1.973074e+03
2.179169e+03,1.975103e+03
2.182062e+03,1.970009e+03
2.184955e+03,1.956963e+03
2.187847e+03,1.967761e+03
2.190740e+03,1.949103e+03
2.193633e+03,1.955085e+03
2.196525e+03,1.944844e+03
2.199418e+03,1.943868e+03
2.202311e+03,1.927737e+03
2.205204e+03,1.940981e+03
2.208096e+03,1.910734e+03
2.210989e+03,1.894013e+03
2.213882e+03,1.901610e+03
2.216774e+03,1.899503e+03
2.219667e+03,1.914260e+03
2.222560e+03,1.885029e+03
2.225452e+03,1.873064e+03
2.228345e+03,1.879494e+03
2.231238e+03,1.885719e+03
2.234131e+03,1.877130e+03
2.237023e+03,1.861249e+03
2.239916e+03,1.849250e+03
2.242809e+03,1.842003e+03
2.245701e+03,1.827583e+03
2.248594e+03,1.830331e+03
2.251487e+03,1.848510e+03
2.254379e+03,1.844425e+03
2.257272e+03,1.812278e+03
2.260165e+03,1.828542e+03
2.263058e+03,1.819316e+03
2.265950e+03,1.824105e+03
2.268843e+03,1.804324e+03
2.271736e+03,1.792108e+03
2.274628e+03,1.791757e+03
2.277521e+03,1.777508e+03
2.280414e+03,1.766173e+03
2.283306e+03,1.761457e+03
2.286199e+03,1.762255e+03
2.289092e+03,1.757231e+03
2.291985e+03,1.747978e+03
2.294877e+03,1.762039e+03
2.297770e+03,1.741910e+03
2.300663e+03,1.750054e+03
2.303555e+03,1.743777e+03
2.306448e+03,1.743543e+03
2.309341e+03,1.739138e+03
2.312233e+03,1.730690e+03
2.315126e+03,1.741878e+03
2.318019e+03,1.709626e+03
2.320912e+03,1.714934e+03
2.323804e+03,1.706109e+03
2.326697e+03,1.727344e+03
2.329590e+03,1.704791e+03
2.332482e+03,1.679375e+03
2.335375e+03,1.685557e+03
2.338268e+03,1.665729e+03
2.341160e+03,1.672824e+03
2.344053e+03,1.678902e+03
2.346946e+03,1.676945e+03
2.349839e+03,1.659459e+03
2.352731e+03,1.667797e+03
2.355624e+03,1.640977e+03
2.358517e+03,1.659435e+03
2.361409e+03,1.653903e+03
2.364302e+03,1.619959e+03
2.367195e+03,1.632901e+03
2.370087e+03,1.624176e+03
2.372980e+03,1.601881e+03
2.375873e+03,1.617779e+03
2.378766e+03,1.623921e+03
2.381658e+03,1.593395e+03
2.384551e+03,1.605768e+03
2.387444e+03,1.609569e+03
2.390336e+03,1.583590e+03
2.393229e+03,1.597155e+03
2.396122e+03,1.591343e+03
2.399014e+03,1.577748e+03
2.401907e+03,1.561250e+03
2.404800e+03,1.559276e+03
2.407693e+03,1.579822e+03
2.410585e+03,1.558984e+03
2.413478e+03,1.559366e+03
2.416371e+03,1.546023e+03
2.419263e+03,1.527107e+03
2.422156e+03,1.545881e+03
2.425049e+03,1.554395e+03
2.427941e+03,1.531282e+03
2.430834e+03,1.528714e+03
2.433727e+03,1.526215e+03
2.436620e+03,1.518326e+03
2.439512e+03,1.537526e+03
2.442405e+03,1.511867e+03
2.445298e+03,1.518142e+03
2.448190e+03,1.498952e+03
2.451083e+03,1.505184e+03
2.453976e+03,1.487132e+03
2.456868e+03,1.500236e+03
2.459761e+03,1.478925e+03
2.462654e+03,1.468371e+03
2.465547e+03,1.479848e+03
2.468439e+03,1.491916e+03
2.471332e+03,1.459444e+03
2.474225e+03,1.462105e+03
2.477117e+03,1.474479e+03
2.480010e+03,1.468937e+03
2.482903e+03,1.475929e+03
2.485795e+03,1.454045e+03
2.488688e+03,1.460052e+03
2.491581e+03,1.436773e+03
2.494474e+03,1.432343e+03
2.497366e+03,1.448317e+03
2.500259e+03,1.428590e+03
2.503152e+03,1.424488e+03
2.506044e+03,1.423774e+03
2.508937e+03,1.422404e+03
2.511830e+03,1.426347e+03
2.514722e+03,1.413755e+03
2.517615e+03,1.405740e+03
2.520508e+03,1.403055e+03
2.523401e+03,1.391207e+03
2.526293e+03,1.403665e+03
2.529186e+03,1.403961e+03
2.532079e+03,1.396517e+03
2.534971e+03,1.376038e+03
2.537864e+03,1.374898e+03
2.540757e+03,1.388481e+03
2.543649e+03,1.390256e+03
2.546542e+03,1.364034e+03
2.549435e+03,1.391038e+03
2.552328e+03,1.384379e+03
2.555220e+03,1.355046e+03
2.558113e+03,1.365342e+03
2.561006e+03,1.353806e+03
2.563898e+03,1.361110e+03
2.566791e+03,1.349959e+03
2.569684e+03,1.332609e+03
2.572576e+03,1.341109e+03
2.575469e+03,1.342530e+03
2.578362e+03,1.318614e+03
2.581255e+03,1.325546e+03
2.584147e+03,1.340237e+03
2.587040e+03,1.314912e+03
2.589933e+03,1.328031e+03
2.592825e+03,1.304445e+03
2.595718e+03,1.325536e+03
2.598611e+03,1.304106e+03
2.601503e+03,1.290684e+03
2.604396e+03,1.306062e+03
2.607289e+03,1.307645e+03
2.610182e+03,1.302919e+03
2.613074e+03,1.302279e+03
2.615967e+03,1.285980e+03
2.618860e+03,1.294340e+03
2.621752e+03,1.283887e+03
2.624645e+03,1.282738e+03
2.627538e+03,1.290152e+03
2.630430e+03,1.266639e+03
2.633323e+03,1.259630e+03
2.636216e+03,1.268863e+03
2.639109e+03,1.282870e+03
2.642001e+03,1.258371e+03
2.644894e+03,1.267113e+03
2.647787e+03,1.271730e+03
2.650679e+03,1.257788e+03
2.653572e+03,1.248987e+03
2.656465e+03,1.239845e+03
2.659357e+03,1.230245e+03
2.662250e+03,1.226423e+03
2.665143e+03,1.249632e+03
2.668036e+03,1.239132e+03
2.670928e+03,1.212394e+03
2.673821e+03,1.247923e+03
2.676714e+03,1.225531e+03
2.679606e+03,1.215218e+03
2.682499e+03,1.212413e+03
2.685392e+03,1.221702e+03
2.688284e+03,1.192561e+03
2.691177e+03,1.205389e+03
2.694070e+03,1.211302e+03
2.696963e+03,1.190936e+03
2.699855e+03,1.214975e+03
2.702748e+03,1.193449e+03
2.705641e+03,1.200486e+03
2.708533e+03,1.176987e+03
2.711426e+03,1.187896e+03
2.714319e+03,1.165865e+03
2.717211e+03,1.181597e+03
2.720104e+03,1.195268e+03
2.722997e+03,1.175234e+03
2.725890e+03,1.180337e+03
2.728782e+03,1.175851e+03
2.731675e+03,1.164763e+03
2.734568e+03,1.171058e+03
2.737460e+03,1.150980e+03
2.740353e+03,1.161711e+03
2.743246e+03,1.148421e+03
2.746138e+03,1.142737e+03
2.749031e+03,1.157994e+03
2.751924e+03,1.145022e+03
2.754817e+03,1.156794e+03
2.757709e+03,1.143523e+03
2.760602e+03,1.134509e+03
2.763495e+03,1.151547e+03
2.766387e+03,1.134840e+03
2.769280e+03,1.129137e+03
2.772173e+03,1.132871e+03
2.775065e+03,1.138981e+03
2.777958e+03,1.122649e+03
2.780851e+03,1.109603e+03
2.783744e+03,1.110850e+03
2.786636e+03,1.122201e+03
2.789529e+03,1.105826e+03
2.792422e+03,1.120089e+03
2.795314e+03,1.100062e+03
2.798207e+03,1.119907e+03
2.801100e+03,1.082749e+03
2.803992e+03,1.098886e+03
2.806885e+03,1.095982e+03
2.809778e+03,1.110233e+03
2.812671e+03,1.096861e+03
2.815563e+03,1.100031e+03
2.818456e+03,1.082327e+03
2.821349e+03,1.071939e+03
2.824241e+03,1.084827e+03
2.827134e+03,1.105240e+03
2.830027e+03,1.066035e+03
2.832919e+03,1.091221e+03
2.835812e+03,1.067802e+03
2.838705e+03,1.056538e+03
2.841598e+03,1.092580e+03
2.844490e+03,1.075685e+03
2.847383e+03,1.062304e+03
2.850276e+03,1.085155e+03
2.853168e+03,1.083746e+03
2.856061e+03,1.067334e+03
2.858954e+03,1.075772e+03
2.861846e+03,1.079292e+03
2.864739e+03,1.067783e+03
2.867632e+03,1.084518e+03
2.870525e+03,1.069719e+03
2.873417e+03,1.047613e+03
2.876310e+03,1.056075e+03
2.879203e+03,1.064523e+03
2.882095e+03,1.049080e+03
2.884988e+03,1.057554e+03
2.887881e+03,1.081409e+03
2.890773e+03,1.058957e+03
2.893666e+03,1.075444e+03
2.896559e+03,1.065842e+03
2.899452e+03,1.055203e+03
2.902344e+03,1.067540e+03
2.905237e+03,1.059182e+03
2.908130e+03,1.045136e+03
2.911022e+03,1.056453e+03
2.913915e+03,1.049707e+03
2.916808e+03,1.034890e+03
2.919700e+03,1.029236e+03
2.922593e+03,1.040860e+03
2.925486e+03,1.025716e+03
2.928379e+03,1.010345e+03
2.931271e+03,1.056561e+03
2.934164e+03,1.018023e+03
2.937057e+03,1.017534e+03
2.939949e+03,1.013009e+03
2.942842e+03,1.008470e+03
2.945735e+03,1.026403e+03
2.948627e+03,1.009535e+03
2.951520e+03,1.019587e+03
2.954413e+03,1.014921e+03
2.957306e+03,1.034868e+03
2.960198e+03,1.021837e+03
2.963091e+03,9.765712e+02
2.965984e+03,9.953683e+02
2.968876e+03,9.889396e+02
2.971769e+03,9.915998e+02
2.974662e+03,9.723677e+02
2.977554e+03,9.813716e+02
2.980447e+03,9.722919e+02
2.983340e+03,1.003778e+03
2.986233e+03,9.822289e+02
2.989125e+03,9.543716e+02
2.992018e+03,9.821748e+02
2.994911e+03,9.655159e+02
2.997803e+03,9.555347e+02
3.000696e+03,9.639651e+02
3.003589e+03,9.605826e+02
3.006481e+03,9.427977e+02
3.009374e+03,9.570237e+02
3.012267e+03,9.372131e+02
3.015160e+03,9.406783e+02
3.018052e+03,9.611612e+02
3.020945e+03,9.348705e+02
3.023838e+03,9.477354e+02
3.026730e+03,9.470798e+02
3.029623e+03,9.281882e+02
3.032516e+03,9.452500e+02
3.035408e+03,9.623511e+02
3.038301e+03,9.626203e+02
3.041194e+03,9.270394e+02
3.044087e+03,9.516345e+02
3.046979e+03,9.298204e+02
3.049872e+03,9.248388e+02
3.052765e+03,9.392186e+02
3.055657e+03,9.361106e+02
3.058550e+03,9.261765e+02
3.061443e+03,9.279998e+02
3.064335e+03,9.052203e+02
3.067228e+03,9.317051e+02
3.070121e+03,9.072958e+02
3.073014e+03,9.210867e+02
3.075906e+03,9.151710e+02
3.078799e+03,9.265289e+02
3.081692e+03,9.084612e+02
3.084584e+03,9.046879e+02
3.087477e+03,9.213260e+02
3.090370e+03,9.398925e+02
3.093262e+03,9.134814e+02
3.096155e+03,9.170449e+02
3.099048e+03,9.113283e+02
3.101941e+03,9.190971e+02
3.104833e+03,8.952405e+02
3.107726e+03,8.739857e+02
3.110619e+03,9.013854e+02
3.113511e+03,8.952770e+02
3.116404e+03,9.242741e+02
3.119297e+03,8.805103e+02
3.122189e+03,9.301141e+02
3.125082e+03,9.143530e+02
3.127975e+03,8.874276e+02
3.130868e+03,9.397481e+02
3.133760e+03,9.198102e+02
3.136653e+03,9.388075e+02
3.139546e+03,9.079893e+02
3.142438e+03,9.110108e+02
3.145331e+03,8.867106e+02
3.148224e+03,8.664971e+02
3.151116e+03,9.179399e+02
3.154009e+03,9.053489e+02
3.156902e+03,9.136248e+02
3.159795e+03,8.964172e+02
3.162687e+03,9.090119e+02
3.165580e+03,9.067293e+02
3.168473e+03,9.170988e+02
3.171365e+03,8.886980e+02
3.174258e+03,9.572868e+02
3.177151e+03,9.493268e+02
3.180043e+03,9.100118e+02
3.182936e+03,9.090289e+02
3.185829e+03,9.518603e+02
3.188722e+03,9.066360e+02
3.191614e+03,9.461014e+02
3.194507e+03,8.836845e+02
3.197400e+03,9.215304e+02
3.200292e+03,9.746342e+02
3.203185e+03,0.000000e+00
3.206078e+03,0.000000e+00
3.208970e+03,0.000000e+00
3.211863e+03,0.000000e+00
3.214756e+03,0.000000e+00
3.217649e+03,0.000000e+00
3.220541e+03,0.000000e+00
3.223434e+03,0.000000e+00
3.226327e+03,0.000000e+00
3.229219e+03,0.000000e+00
3.232112e+03,0.000000e+00
3.235005e+03,0.000000e+00
3.237897e+03,0.000000e+00
3.240790e+03,0.000000e+00
3.243683e+03,0.000000e+00
3.246576e+03,0.000000e+00
3.249468e+03,0.000000e+00
3.252361e+03,0.000000e+00
3.255254e+03,0.000000e+00
3.258146e+03,0.000000e+00
3.261039e+03,0.000000e+00
3.263932e+03,0.000000e+00
3.266824e+03,0.000000e+00
3.269717e+03,0.000000e+00
3.272610e+03,0.000000e+00
3.275503e+03,0.000000e+00
3.278395e+03,0.000000e+00
3.281288e+03,0.000000e+00
3.284181e+03,0.000000e+00
3.287073e+03,0.000000e+00
3.289966e+03,0.000000e+00
3.292859e+03,0.000000e+00
3.295751e+03,0.000000e+00
3.298644e+03,0.000000e+00
3.301537e+03,0.000000e+00
3.304430e+03,0.000000e+00
3.307322e+03,0.000000e+00
3.310215e+03,0.000000e+00
3.313108e+03,0.000000e+00
3.316000e+03,0.000000e+00
3.318893e+03,0.000000e+00
3.321786e+03,0.000000e+00
3.324678e+03,0.000000e+00
3.327571e+03,0.000000e+00
3.330464e+03,0.000000e+00
3.333357e+03,0.000000e+00
3.336249e+03,0.000000e+00
3.339142e+03,0.000000e+00
3.342035e+03,0.000000e+00
3.344927e+03,0.000000e+00
3.347820e+03,0.000000e+00
3.350713e+03,0.000000e+00
3.353605e+03,0.000000e+00
3.356498e+03,0.000000e+00
3.359391e+03,0.000000e+00
3.362284e+03,0.000000e+00
3.365176e+03,0.000000e+00
3.368069e+03,0.000000e+00
3.370962e+03,0.000000e+00
3.373854e+03,0.000000e+00
3.376747e+03,0.000000e+00
3.379640e+03,0.000000e+00
3.382532e+03,0.000000e+00
3.385425e+03,0.000000e+00
3.388318e+03,0.000000e+00
3.391211e+03,0.000000e+00
3.394103e+03,0.000000e+00
3.396996e+03,0.000000e+00
3.399889e+03,0.000000e+00
3.402781e+03,0.000000e+00
3.405674e+03,0.000000e+00
3.408567e+03,0.000000e+00
3.411459e+03,0.000000e+00
3.414352e+03,0.000000e+00
3.417245e+03,0.000000e+00
3.420138e+03,0.000000e+00
3.423030e+03,0.000000e+00
3.425923e+03,0.000000e+00
3.428816e+03,0.000000e+00
3.431708e+03,0.000000e+00
3.434601e+03,0.000000e+00
3.437494e+03,0.000000e+00
3.440386e+03,0.000000e+00
3.443279e+03,0.000000e+00
3.446172e+03,0.000000e+00
3.449065e+03,0.000000e+00
3.451957e+03,0.000000e+00
3.454850e+03,0.000000e+00
3.457743e+03,0.000000e+00
3.460635e+03,0.000000e+00
3.463528e+03,0.000000e+00
3.466421e+03,0.000000e+00
3.469313e+03,0.000000e+00
3.472206e+03,0.000000e+00
3.475099e+03,0.000000e+00
3.477992e+03,0.000000e+00
3.480884e+03,0.000000e+00
3.483777e+03,0.000000e+00
3.486670e+03,0.000000e+00
3.489563e+03,0.000000e+00
3.492455e+03,0.000000e+00
3.495348e+03,0.000000e+00
3.498240e+03,0.000000e+00
3.500169e+03,0.000000e+00