File: RAMAN_data/19072023_r1/red fibre2.CSV
9.931763e+01,0.000000e+00
1.022103e+02,0.000000e+00
1.051030e+02,0.000000e+00
1.079957e+02,0.000000e+00
1.108884e+02,0.000000e+00
1.137811e+02,0.000000e+00
1.166738e+02,0.000000e+00
1.195665e+02,0.000000e+00
1.224592e+02,0.000000e+00
1.253519e+02,0.000000e+00
1.282446e+02,0.000000e+00
1.311373e+02,0.000000e+00
1.340300e+02,0.000000e+00
1.369227e+02,0.000000e+00
1.398154e+02,0.000000e+00
1.427081e+02,0.000000e+00
1.456008e+02,0.000000e+00
1.484935e+02,0.000000e+00
1.513862e+02,0.000000e+00
1.542789e+02,0.000000e+00
1.571716e+02,0.000000e+00
1.600643e+02,0.000000e+00
1.629570e+02,0.000000e+00
1.658497e+02,0.000000e+00
1.687424e+02,0.000000e+00
1.716351e+02,0.000000e+00
1.745278e+02,0.000000e+00
1.774205e+02,0.000000e+00
1.803132e+02,0.000000e+00
1.832059e+02,0.000000e+00
1.860986e+02,0.000000e+00
1.889913e+02,0.000000e+00
1.918840e+02,0.000000e+00
1.947767e+02,0.000000e+00
1.976694e+02,0.000000e+00
2.005621e+02,6.241889e+03
2.034548e+02,6.261983e+03
2.063475e+02,6.276338e+03
2.092402e+02,6.264608e+03
2.121329e+02,6.258110e+03
2.150256e+02,6.284420e+03
2.179183e+02,6.291898e+03
2.208110e+02,6.312659e+03
2.237037e+02,6.318987e+03
2.265964e+02,6.294147e+03
2.294892e+02,6.295596e+03
2.323819e+02,6.317881e+03
2.352746e+02,6.334069e+03
2.381673e+02,6.308555e+03
2.410600e+02,6.341401e+03
2.439527e+02,6.329584e+03
2.468454e+02,6.320859e+03
2.497381e+02,6.361230e+03
2.526308e+02,6.383576e+03
2.555235e+02,6.368842e+03
2.584161e+02,6.370469e+03
2.613088e+02,6.377722e+03
2.642015e+02,6.420646e+03
2.670942e+02,6.439195e+03
2.699869e+02,6.425558e+03
2.728796e+02,6.419062e+03
2.757723e+02,6.425497e+03
2.786650e+02,6.453703e+03
2.815577e+02,6.430488e+03
2.844504e+02,6.445657e+03
2.873431e+02,6.431271e+03
2.902358e+02,6.447161e+03
2.931285e+02,6.460202e+03
2.960212e+02,6.460753e+03
2.989139e+02,6.453037e+03
3.018066e+02,6.444189e+03
3.046993e+02,6.461990e+03
3.075920e+02,6.454796e+03
3.104847e+02,6.471739e+03
3.133774e+02,6.452171e+03
3.162701e+02,6.469774e+03
3.191628e+02,6.470930e+03
3.220555e+02,6.499224e+03
3.249482e+02,6.487190e+03
3.278409e+02,6.496699e+03
3.307336e+02,6.495087e+03
3.336263e+02,6.496017e+03
3.365190e+02,6.474811e+03
3.394117e+02,6.470901e+03
3.423044e+02,6.510349e+03
3.451971e+02,6.506658e+03
3.480898e+02,6.480526e+03
3.509825e+02,6.470026e+03
3.538752e+02,6.490924e+03
3.567680e+02,6.497695e+03
3.596607e+02,6.506021e+03
3.625534e+02,6.524260e+03
3.654461e+02,6.493558e+03
3.683388e+02,6.492460e+03
3.712315e+02,6.528005e+03
3.741242e+02,6.526893e+03
3.770169e+02,6.530585e+03
3.799096e+02,6.527994e+03
3.828023e+02,6.515097e+03
3.856950e+02,6.504774e+03
3.885877e+02,6.503773e+03
3.914804e+02,6.523818e+03
3.943731e+02,6.513177e+03
3.972658e+02,6.504044e+03
4.001585e+02,6.511235e+03
4.030512e+02,6.508644e+03
4.059439e+02,6.508236e+03
4.088366e+02,6.507446e+03
4.117293e+02,6.492150e+03
4.146220e+02,6.510245e+03
4.175147e+02,6.512403e+03
4.204074e+02,6.493762e+03
4.233001e+02,6.480767e+03
4.261928e+02,6.494883e+03
4.290855e+02,6.497342e+03
4.319782e+02,6.488406e+03
4.348709e+02,6.512565e+03
4.377636e+02,6.524368e+03
4.406563e+02,6.498232e+03
4.435490e+02,6.480255e+03
4.464417e+02,6.504439e+03
4.493344e+02,6.499991e+03
4.522271e+02,6.502566e+03
4.551198e+02,6.483162e+03
4.580125e+02,6.476311e+03
4.609052e+02,6.481635e+03
4.637979e+02,6.476111e+03
4.666906e+02,6.478125e+03
4.695833e+02,6.468198e+03
4.724760e+02,6.484819e+03
4.753687e+02,6.460017e+03
4.782614e+02,6.448533e+03
4.811541e+02,6.455760e+03
4.840468e+02,6.438170e+03
4.869395e+02,6.443627e+03
4.898322e+02,6.442903e+03
4.927249e+02,6.422771e+03
4.956176e+02,6.455277e+03
4.985103e+02,6.456765e+03
5.014030e+02,6.457956e+03
5.042957e+02,6.440637e+03
5.071884e+02,6.405922e+03
5.100811e+02,6.441056e+03
5.129738e+02,6.444133e+03
5.158665e+02,6.446455e+03
5.187592e+02,6.441763e+03
5.216519e+02,6.424937e+03
5.245446e+02,6.422011e+03
5.274373e+02,6.430146e+03
5.303300e+02,6.437047e+03
5.332227e+02,6.407074e+03
5.361154e+02,6.408766e+03
5.390081e+02,6.404442e+03
5.419008e+02,6.410547e+03
5.447935e+02,6.416914e+03
5.476862e+02,6.412787e+03
5.505789e+02,6.406458e+03
5.534716e+02,6.395650e+03
5.563643e+02,6.372447e+03
5.592570e+02,6.382550e+03
5.621497e+02,6.371491e+03
5.650424e+02,6.364119e+03
5.679351e+02,6.373519e+03
5.708278e+02,6.358800e+03
5.737205e+02,6.370161e+03
5.766132e+02,6.356027e+03
5.795059e+02,6.362976e+03
5.823986e+02,6.340923e+03
5.852913e+02,6.361177e+03
5.881840e+02,6.326134e+03
5.910767e+02,6.316332e+03
5.939694e+02,6.324681e+03
5.968621e+02,6.325617e+03
5.997548e+02,6.292801e+03
6.026475e+02,6.318304e+03
6.055402e+02,6.323421e+03
6.084329e+02,6.315163e+03
6.113256e+02,6.298916e+03
6.142183e+02,6.283507e+03
6.171110e+02,6.258410e+03
6.200037e+02,6.299753e+03
6.228964e+02,6.276272e+03
6.257891e+02,6.279620e+03
6.286818e+02,6.251508e+03
6.315745e+02,6.239130e+03
6.344672e+02,6.234629e+03
6.373599e+02,6.239435e+03
6.402526e+02,6.236859e+03
6.431453e+02,6.238371e+03
6.460380e+02,6.199182e+03
6.489307e+02,6.228795e+03
6.518234e+02,6.229559e+03
6.547161e+02,6.227385e+03
6.576088e+02,6.196915e+03
6.605015e+02,6.198507e+03
6.633942e+02,6.167502e+03
6.662869e+02,6.171644e+03
6.691796e+02,6.177134e+03
6.720723e+02,6.188820e+03
6.749650e+02,6.151971e+03
6.778577e+02,6.134816e+03
6.807504e+02,6.169199e+03
6.836431e+02,6.156932e+03
6.865358e+02,6.146487e+03
6.894285e+02,6.113034e+03
6.923212e+02,6.114659e+03
6.952139e+02,6.115287e+03
6.981066e+02,6.119601e+03
7.009993e+02,6.114278e+03
7.038920e+02,6.122253e+03
7.067847e+02,6.102151e+03
7.096774e+02,6.103677e+03
7.125701e+02,6.081568e+03
7.154628e+02,6.084043e+03
7.183555e+02,6.058047e+03
7.212482e+02,6.063786e+03
7.241409e+02,6.056761e+03
7.270336e+02,6.023001e+03
7.299263e+02,6.033097e+03
7.328190e+02,6.030559e+03
7.357117e+02,5.991134e+03
7.386044e+02,5.997472e+03
7.414971e+02,5.990655e+03
7.443898e+02,5.998658e+03
7.472825e+02,5.990096e+03
7.501752e+02,6.000438e+03
7.530679e+02,5.969319e+03
7.559606e+02,5.957094e+03
7.588533e+02,5.955580e+03
7.617460e+02,5.963348e+03
7.646387e+02,5.925917e+03
7.675314e+02,5.949731e+03
7.704241e+02,5.931264e+03
7.733168e+02,5.932959e+03
7.762095e+02,5.939319e+03
7.791022e+02,5.910386e+03
7.819949e+02,5.889782e+03
7.848876e+02,5.875883e+03
7.877803e+02,5.882082e+03
7.906730e+02,5.870261e+03
7.935657e+02,5.892796e+03
7.964584e+02,5.880359e+03
7.993511e+02,5.882485e+03
8.022438e+02,5.836224e+03
8.051365e+02,5.829345e+03
8.080292e+02,5.838008e+03
8.109219e+02,5.851409e+03
8.138146e+02,5.825987e+03
8.167073e+02,5.791219e+03
8.196000e+02,5.811021e+03
8.224927e+02,5.815119e+03
8.253854e+02,5.792930e+03
8.282781e+02,5.777761e+03
8.311708e+02,5.776428e+03
8.340635e+02,5.779362e+03
8.369562e+02,5.761700e+03
8.398489e+02,5.784330e+03
8.427416e+02,5.755898e+03
8.456343e+02,5.754159e+03
8.485270e+02,5.746683e+03
8.514197e+02,5.722369e+03
8.543124e+02,5.742877e+03
8.572051e+02,5.725338e+03
8.600978e+02,5.696485e+03
8.629905e+02,5.703700e+03
8.658832e+02,5.686869e+03
8.687759e+02,5.700431e+03
8.716686e+02,5.671428e+03
8.745613e+02,5.655897e+03
8.774540e+02,5.651090e+03
8.803467e+02,5.659648e+03
8.832394e+02,5.641332e+03
8.861321e+02,5.651395e+03
8.890248e+02,5.629139e+03
8.919175e+02,5.614343e+03
8.948102e+02,5.608009e+03
8.977029e+02,5.574028e+03
9.005956e+02,5.600678e+03
9.034883e+02,5.572577e+03
9.063810e+02,5.559599e+03
9.092737e+02,5.538891e+03
9.121664e+02,5.545753e+03
9.150591e+02,5.547814e+03
9.179518e+02,5.547364e+03
9.208445e+02,5.506860e+03
9.237372e+02,5.505401e+03
9.266299e+02,5.520983e+03
9.295226e+02,5.487006e+03
9.324153e+02,5.495486e+03
9.353080e+02,5.471283e+03
9.382007e+02,5.459940e+03
9.410934e+02,5.440173e+03
9.439861e+02,5.444080e+03
9.468788e+02,5.430612e+03
9.497715e+02,5.429522e+03
9.526642e+02,5.426463e+03
9.555569e+02,5.425208e+03
9.584496e+02,5.415489e+03
9.613423e+02,5.392774e+03
9.642350e+02,5.405026e+03
9.671277e+02,5.392338e+03
9.700204e+02,5.382196e+03
9.729131e+02,5.352596e+03
9.758058e+02,5.350102e+03
9.786985e+02,5.358900e+03
9.815912e+02,5.360888e+03
9.844839e+02,5.338175e+03
9.873766e+02,5.328239e+03
9.902693e+02,5.314023e+03
9.931620e+02,5.328752e+03
9.960547e+02,5.311329e+03
9.989474e+02,5.300510e+03
1.001840e+03,5.277029e+03
1.004733e+03,5.273239e+03
1.007626e+03,5.272135e+03
1.010518e+03,5.286922e+03
1.013411e+03,5.226983e+03
1.016304e+03,5.237900e+03
1.019196e+03,5.218669e+03
1.022089e+03,5.221701e+03
1.024982e+03,5.224003e+03
1.027875e+03,5.193602e+03
1.030767e+03,5.208310e+03
1.033660e+03,5.191792e+03
1.036552e+03,5.200378e+03
1.039445e+03,5.192535e+03
1.042338e+03,5.161988e+03
1.045231e+03,5.168284e+03
1.048123e+03,5.144524e+03
1.051016e+03,5.128182e+03
1.053909e+03,5.147500e+03
1.056802e+03,5.118818e+03
1.059694e+03,5.115790e+03
1.062587e+03,5.077745e+03
1.065479e+03,5.096790e+03
1.068372e+03,5.122119e+03
1.071265e+03,5.114447e+03
1.074158e+03,5.103633e+03
1.077050e+03,5.077865e+03
1.079943e+03,5.071444e+03
1.082836e+03,5.091766e+03
1.085729e+03,5.057669e+03
1.088621e+03,5.062493e+03
1.091514e+03,5.044051e+03
1.094406e+03,5.014341e+03
1.097299e+03,5.025029e+03
1.100192e+03,5.011482e+03
1.103085e+03,5.009709e+03
1.105977e+03,5.014100e+03
1.108870e+03,4.994336e+03
1.111763e+03,4.980940e+03
1.114656e+03,4.972620e+03
1.117548e+03,4.986677e+03
1.120441e+03,4.986732e+03
1.123334e+03,4.974195e+03
1.126226e+03,4.940491e+03
1.129119e+03,4.929500e+03
1.132012e+03,4.948973e+03
1.134904e+03,4.940642e+03
1.137797e+03,4.891396e+03
1.140690e+03,4.901461e+03
1.143583e+03,4.898236e+03
1.146475e+03,4.893105e+03
1.149368e+03,4.877784e+03
1.152261e+03,4.868470e+03
1.155153e+03,4.872601e+03
1.158046e+03,4.836477e+03
1.160939e+03,4.840046e+03
1.163831e+03,4.857580e+03
1.166724e+03,4.829237e+03
1.169617e+03,4.823912e+03
1.172510e+03,4.799436e+03
1.175402e+03,4.778517e+03
1.178295e+03,4.807985e+03
1.181188e+03,4.806579e+03
1.184080e+03,4.766265e+03
1.186973e+03,4.778832e+03
1.189866e+03,4.755702e+03
1.192758e+03,4.755814e+03
1.195651e+03,4.763541e+03
1.198544e+03,4.743675e+03
1.201437e+03,4.723055e+03
1.204329e+03,4.735014e+03
1.207222e+03,4.718545e+03
1.210115e+03,4.735891e+03
1.213007e+03,4.720087e+03
1.215900e+03,4.692570e+03
1.218793e+03,4.688716e+03
1.221685e+03,4.681641e+03
1.224578e+03,4.683773e+03
1.227471e+03,4.675320e+03
1.230364e+03,4.662187e+03
1.233256e+03,4.642268e+03
1.236149e+03,4.612495e+03
1.239042e+03,4.641667e+03
1.241934e+03,4.656462e+03
1.244827e+03,4.637471e+03
1.247720e+03,4.627417e+03
1.250612e+03,4.607313e+03
1.253505e+03,4.608278e+03
1.256398e+03,4.605994e+03
1.259291e+03,4.594735e+03
1.262183e+03,4.584875e+03
1.265076e+03,4.575138e+03
1.267969e+03,4.574193e+03
1.270861e+03,4.567131e+03
1.273754e+03,4.571908e+03
1.276647e+03,4.555007e+03
1.279539e+03,4.541148e+03
1.282432e+03,4.547222e+03
1.285325e+03,4.546971e+03
1.288218e+03,4.529016e+03
1.291110e+03,4.516397e+03
1.294003e+03,4.514978e+03
1.296896e+03,4.492692e+03
1.299788e+03,4.489900e+03
1.302681e+03,4.481758e+03
1.305574e+03,4.485751e+03
1.308466e+03,4.479410e+03
1.311359e+03,4.460264e+03
1.314252e+03,4.457430e+03
1.317145e+03,4.455279e+03
1.320037e+03,4.461913e+03
1.322930e+03,4.438409e+03
1.325823e+03,4.441351e+03
1.328715e+03,4.428429e+03
1.331608e+03,4.423484e+03
1.334501e+03,4.417312e+03
1.337393e+03,4.418749e+03
1.340286e+03,4.408660e+03
1.343179e+03,4.380364e+03
1.346072e+03,4.396067e+03
1.348964e+03,4.378011e+03
1.351857e+03,4.391337e+03
1.354750e+03,4.363028e+03
1.357642e+03,4.363324e+03
1.360535e+03,4.330938e+03
1.363428e+03,4.328134e+03
1.366320e+03,4.334044e+03
1.369213e+03,4.326088e+03
1.372106e+03,4.301983e+03
1.374999e+03,4.289614e+03
1.377891e+03,4.283215e+03
1.380784e+03,4.294906e+03
1.383677e+03,4.294126e+03
1.386569e+03,4.254461e+03
1.389462e+03,4.241586e+03
1.392355e+03,4.246806e+03
1.395247e+03,4.245764e+03
1.398140e+03,4.242206e+03
1.401033e+03,4.224044e+03
1.403926e+03,4.218735e+03
1.406818e+03,4.213278e+03
1.409711e+03,4.223397e+03
1.412604e+03,4.229445e+03
1.415496e+03,4.209570e+03
1.418389e+03,4.183831e+03
1.421282e+03,4.188696e+03
1.424174e+03,4.170518e+03
1.427067e+03,4.165125e+03
1.429960e+03,4.171767e+03
1.432853e+03,4.150576e+03
1.435745e+03,4.167929e+03
1.438638e+03,4.131199e+03
1.441531e+03,4.127012e+03
1.444423e+03,4.125053e+03
1.447316e+03,4.127452e+03
1.450209e+03,4.102261e+03
1.453101e+03,4.102002e+03
1.455994e+03,4.100368e+03
1.458887e+03,4.083776e+03
1.461780e+03,4.095184e+03
1.464672e+03,4.085931e+03
1.467565e+03,4.064963e+03
1.470458e+03,4.052452e+03
1.473350e+03,4.050439e+03
1.476243e+03,4.052477e+03
1.479136e+03,4.036046e+03
1.482028e+03,4.023823e+03
1.484921e+03,4.009802e+03
1.487814e+03,4.013924e+03
1.490707e+03,4.024748e+03
1.493599e+03,3.988505e+03
1.496492e+03,3.985892e+03
1.499385e+03,3.983532e+03
1.502277e+03,3.972177e+03
1.505170e+03,3.959852e+03
1.508063e+03,3.967532e+03
1.510955e+03,3.947037e+03
1.513848e+03,3.937156e+03
1.516741e+03,3.923192e+03
1.519634e+03,3.918181e+03
1.522526e+03,3.930481e+03
1.525419e+03,3.940529e+03
1.528312e+03,3.901925e+03
1.531204e+03,3.898495e+03
1.534097e+03,3.883140e+03
1.536990e+03,3.879318e+03
1.539882e+03,3.875240e+03
1.542775e+03,3.860962e+03
1.545668e+03,3.877550e+03
1.548561e+03,3.874635e+03
1.551453e+03,3.857776e+03
1.554346e+03,3.850710e+03
1.557239e+03,3.846903e+03
1.560131e+03,3.853920e+03
1.563024e+03,3.819935e+03
1.565917e+03,3.853010e+03
1.568809e+03,3.831060e+03
1.571702e+03,3.828742e+03
1.574595e+03,3.821751e+03
1.577488e+03,3.775976e+03
1.580380e+03,3.804333e+03
1.583273e+03,3.806014e+03
1.586166e+03,3.823998e+03
1.589058e+03,3.775411e+03
1.591951e+03,3.773876e+03
1.594844e+03,3.782354e+03
1.597736e+03,3.772441e+03
1.600629e+03,3.755960e+03
1.603522e+03,3.744655e+03
1.606415e+03,3.732730e+03
1.609307e+03,3.721800e+03
1.612200e+03,3.723934e+03
1.615093e+03,3.711339e+03
1.617985e+03,3.707715e+03
1.620878e+03,3.703741e+03
1.623771e+03,3.686485e+03
1.626663e+03,3.675320e+03
1.629556e+03,3.668081e+03
1.632449e+03,3.645315e+03
1.635342e+03,3.638920e+03
1.638234e+03,3.628992e+03
1.641127e+03,3.640183e+03
1.644020e+03,3.645858e+03
1.646912e+03,3.611114e+03
1.649805e+03,3.610427e+03
1.652698e+03,3.605050e+03
1.655590e+03,3.599659e+03
1.658483e+03,3.594547e+03
1.661376e+03,3.574328e+03
1.664269e+03,3.576416e+03
1.667161e+03,3.558404e+03
1.670054e+03,3.558500e+03
1.672947e+03,3.539932e+03
1.675839e+03,3.539539e+03
1.678732e+03,3.552155e+03
1.681625e+03,3.501320e+03
1.684517e+03,3.504626e+03
1.687410e+03,3.510913e+03
1.690303e+03,3.502058e+03
1.693196e+03,3.517967e+03
1.696088e+03,3.494710e+03
1.698981e+03,3.465815e+03
1.701874e+03,3.497186e+03
1.704766e+03,3.482490e+03
1.707659e+03,3.453229e+03
1.710552e+03,3.462140e+03
1.713444e+03,3.440332e+03
1.716337e+03,3.441403e+03
1.719230e+03,3.452739e+03
1.722123e+03,3.404082e+03
1.725015e+03,3.408004e+03
1.727908e+03,3.427583e+03
1.730801e+03,3.413685e+03
1.733693e+03,3.386531e+03
1.736586e+03,3.420229e+03
1.739479e+03,3.370585e+03
1.742371e+03,3.368836e+03
1.745264e+03,3.358451e+03
1.748157e+03,3.355738e+03
1.751050e+03,3.353462e+03
1.753942e+03,3.334220e+03
1.756835e+03,3.335929e+03
1.759728e+03,3.313688e+03
1.762620e+03,3.310578e+03
1.765513e+03,3.319186e+03
1.768406e+03,3.318437e+03
1.771298e+03,3.302129e+03
1.774191e+03,3.285448e+03
1.777084e+03,3.286067e+03
1.779977e+03,3.287581e+03
1.782869e+03,3.270230e+03
1.785762e+03,3.277128e+03
1.788655e+03,3.242873e+03
1.791547e+03,3.226048e+03
1.794440e+03,3.243988e+03
1.797333e+03,3.234493e+03
1.800225e+03,3.257915e+03
1.803118e+03,3.216418e+03
1.806011e+03,3.212756e+03
1.808904e+03,3.219599e+03
1.811796e+03,3.180996e+03
1.814689e+03,3.201562e+03
1.817582e+03,3.192721e+03
1.820474e+03,3.169846e+03
1.823367e+03,3.171348e+03
1.826260e+03,3.187457e+03
1.829152e+03,3.175647e+03
1.832045e+03,3.164794e+03
1.834938e+03,3.156412e+03
1.837831e+03,3.148108e+03
1.840723e+03,3.140137e+03
1.843616e+03,3.125333e+03
1.846509e+03,3.110879e+03
1.849401e+03,3.132128e+03
1.852294e+03,3.098183e+03
1.855187e+03,3.081733e+03
1.858079e+03,3.086171e+03
1.860972e+03,3.085724e+03
1.863865e+03,3.086957e+03
1.866758e+03,3.056132e+03
1.869650e+03,3.079197e+03
1.872543e+03,3.052100e+03
1.875436e+03,3.056507e+03
1.878328e+03,3.034510e+03
1.881221e+03,3.010836e+03
1.884114e+03,3.038652e+03
1.887006e+03,3.012021e+03
1.889899e+03,3.017627e+03
1.892792e+03,3.004163e+03
1.895685e+03,2.991007e+03
1.898577e+03,2.958502e+03
1.901470e+03,2.956841e+03
1.904363e+03,2.966554e+03
1.907255e+03,2.966862e+03
1.910148e+03,2.950317e+03
1.913041e+03,2.928328e+03
1.915933e+03,2.910237e+03
1.918826e+03,2.912441e+03
1.921719e+03,2.958044e+03
1.924612e+03,2.910745e+03
1.927504e+03,2.919025e+03
1.930397e+03,2.886776e+03
1.933290e+03,2.893839e+03
1.936182e+03,2.909757e+03
1.939075e+03,2.895333e+03
1.941968e+03,2.865253e+03
1.944860e+03,2.861510e+03
1.947753e+03,2.855433e+03
1.950646e+03,2.856078e+03
1.953539e+03,2.853516e+03
1.956431e+03,2.828797e+03
1.959324e+03,2.823365e+03
1.962217e+03,2.828909e+03
1.965109e+03,2.809770e+03
1.968002e+03,2.812698e+03
1.970895e+03,2.796945e+03
1.973787e+03,2.782777e+03
1.976680e+03,2.782225e+03
1.979573e+03,2.775966e+03
1.982466e+03,2.791282e+03
1.985358e+03,2.779003e+03
1.988251e+03,2.773860e+03
1.991144e+03,2.744087e+03
1.994036e+03,2.738328e+03
1.996929e+03,2.747878e+03
1.999822e+03,2.753846e+03
2.002714e+03,2.745328e+03
2.005607e+03,2.726750e+03
2.008500e+03,2.718752e+03
2.011393e+03,2.709620e+03
2.014285e+03,2.713692e+03
2.017178e+03,2.684426e+03
2.020071e+03,2.688376e+03
2.022963e+03,2.685124e+03
2.025856e+03,2.665622e+03
2.028749e+03,2.660723e+03
2.031641e+03,2.652472e+03
2.034534e+03,2.657277e+03
2.037427e+03,2.641519e+03
2.040320e+03,2.610462e+03
2.043212e+03,2.621568e+03
2.046105e+03,2.632661e+03
2.048998e+03,2.611419e+03
2.051890e+03,2.603923e+03
2.054783e+03,2.592543e+03
2.057676e+03,2.566279e+03
2.060568e+03,2.566138e+03
2.063461e+03,2.555280e+03
2.066354e+03,2.567497e+03
2.069247e+03,2.560526e+03
2.072139e+03,2.523049e+03
2.075032e+03,2.537940e+03
2.077925e+03,2.525565e+03
2.080817e+03,2.533275e+03
2.083710e+03,2.509379e+03
2.086603e+03,2.507232e+03
2.089496e+03,2.525073e+03
2.092388e+03,2.496890e+03
2.095281e+03,2.496262e+03
2.098174e+03,2.512083e+03
2.101066e+03,2.479198e+03
2.103959e+03,2.449681e+03
2.106852e+03,2.464893e+03
2.109744e+03,2.465475e+03
2.112637e+03,2.459045e+03
2.115530e+03,2.443317e+03
2.118422e+03,2.436180e+03
2.121315e+03,2.459499e+03
2.124208e+03,2.432168e+03
2.127101e+03,2.433952e+03
2.129993e+03,2.398742e+03
2.132886e+03,2.409272e+03
2.135779e+03,2.396870e+03
2.138671e+03,2.389770e+03
2.141564e+03,2.374204e+03
2.144457e+03,2.364883e+03
2.147350e+03,2.351483e+03
2.150242e+03,2.351974e+03
2.153135e+03,2.367398e+03
2.156028e+03,2.344609e+03
2.158920e+03,2.334080e+03
2.161813e+03,2.350608e+03
2.164706e+03,2.322997e+03
2.167598e+03,2.306706e+03
2.170491e+03,2.315211e+03
2.173384e+03,2.305279e+03
2.176277e+03,2.307736e+03
2.179169e+03,2.276678e+03
2.182062e+03,2.304962e+03
2.184955e+03,2.290206e+03
2.187847e+03,2.262833e+03
2.190740e+03,2.265607e+03
2.193633e+03,2.255983e+03
2.196525e+03,2.248247e+03
2.199418e+03,2.247461e+03
2.202311e+03,2.238930e+03
2.205204e+03,2.236039e+03
2.208096e+03,2.218532e+03
2.210989e+03,2.206924e+03
2.213882e+03,2.207769e+03
2.216774e+03,2.225602e+03
2.219667e+03,2.186966e+03
2.222560e+03,2.196737e+03
2.225452e+03,2.174218e+03
2.228345e+03,2.193634e+03
2.231238e+03,2.173468e+03
2.234131e+03,2.170501e+03
2.237023e+03,2.146094e+03
2.239916e+03,2.133125e+03
2.242809e+03,2.134371e+03
2.245701e+03,2.145137e+03
2.248594e+03,2.139284e+03
2.251487e+03,2.145427e+03
2.254379e+03,2.122822e+03
2.257272e+03,2.120520e+03
2.260165e+03,2.093885e+03
2.263058e+03,2.098482e+03
2.265950e+03,2.083894e+03
2.268843e+03,2.102894e+03
2.271736e+03,2.055302e+03
2.274628e+03,2.080741e+03
2.277521e+03,2.055432e+03
2.280414e+03,2.070547e+03
2.283306e+03,2.074380e+03
2.286199e+03,2.038436e+03
2.289092e+03,2.047905e+03
2.291985e+03,2.036094e+03
2.294877e+03,2.034591e+03
2.297770e+03,2.048830e+03
2.300663e+03,2.020988e+03
2.303555e+03,2.013281e+03
2.306448e+03,2.016995e+03
2.309341e+03,2.004030e+03
2.312233e+03,1.979156e+03
2.315126e+03,1.978420e+03
2.318019e+03,1.981292e+03
2.320912e+03,1.983776e+03
2.323804e+03,1.959923e+03
2.326697e+03,1.971721e+03
2.329590e+03,1.964385e+03
2.332482e+03,1.945947e+03
2.335375e+03,1.936951e+03
2.338268e+03,1.921248e+03
2.341160e+03,1.929583e+03
2.344053e+03,1.928433e+03
2.346946e+03,1.944555e+03
2.349839e+03,1.924659e+03
2.352731e+03,1.891934e+03
2.355624e+03,1.907629e+03
2.358517e+03,1.907863e+03
2.361409e+03,1.900571e+03
2.364302e+03,1.890126e+03
2.367195e+03,1.882062e+03
2.370087e+03,1.890022e+03
2.372980e+03,1.873778e+03
2.375873e+03,1.871311e+03
2.378766e+03,1.858777e+03
2.381658e+03,1.855723e+03
2.384551e+03,1.833023e+03
2.387444e+03,1.840079e+03
2.390336e+03,1.828198e+03
2.393229e+03,1.848424e+03
2.396122e+03,1.824520e+03
2.399014e+03,1.821407e+03
2.401907e+03,1.809799e+03
2.404800e+03,1.816484e+03
2.407693e+03,1.803949e+03
2.410585e+03,1.794549e+03
2.413478e+03,1.806800e+03
2.416371e+03,1.792516e+03
2.419263e+03,1.777003e+03
2.422156e+03,1.799717e+03
2.425049e+03,1.768344e+03
2.427941e+03,1.766473e+03
2.430834e+03,1.782978e+03
2.433727e+03,1.752666e+03
2.436620e+03,1.773136e+03
2.439512e+03,1.753818e+03
2.442405e+03,1.758483e+03
2.445298e+03,1.729984e+03
2.448190e+03,1.745784e+03
2.451083e+03,1.747572e+03
2.453976e+03,1.708058e+03
2.456868e+03,1.707719e+03
2.459761e+03,1.732395e+03
2.462654e+03,1.701610e+03
2.465547e+03,1.719534e+03
2.468439e+03,1.689334e+03
2.471332e+03,1.701215e+03
2.474225e+03,1.704190e+03
2.477117e+03,1.671838e+03
2.480010e+03,1.680407e+03
2.482903e+03,1.672614e+03
2.485795e+03,1.666810e+03
2.488688e+03,1.660567e+03
2.491581e+03,1.660557e+03
2.494474e+03,1.672491e+03
2.497366e+03,1.664312e+03
2.500259e+03,1.648662e+03
2.503152e+03,1.639515e+03
2.506044e+03,1.635764e+03
2.508937e+03,1.641184e+03
2.511830e+03,1.632160e+03
2.514722e+03,1.634865e+03
2.517615e+03,1.610384e+03
2.520508e+03,1.617763e+03
2.523401e+03,1.608918e+03
2.526293e+03,1.620765e+03
2.529186e+03,1.606626e+03
2.532079e+03,1.598561e+03
2.534971e+03,1.585806e+03
2.537864e+03,1.587921e+03
2.540757e+03,1.589812e+03
2.543649e+03,1.597774e+03
2.546542e+03,1.578233e+03
2.549435e+03,1.570069e+03
2.552328e+03,1.583478e+03
2.555220e+03,1.582941e+03
2.558113e+03,1.577964e+03
2.561006e+03,1.575362e+03
2.563898e+03,1.575091e+03
2.566791e+03,1.548802e+03
2.569684e+03,1.529578e+03
2.572576e+03,1.548370e+03
2.575469e+03,1.529321e+03
2.578362e+03,1.544254e+03
2.581255e+03,1.524183e+03
2.584147e+03,1.500348e+03
2.587040e+03,1.514209e+03
2.589933e+03,1.526059e+03
2.592825e+03,1.518359e+03
2.595718e+03,1.505543e+03
2.598611e+03,1.499695e+03
2.601503e+03,1.495777e+03
2.604396e+03,1.486615e+03
2.607289e+03,1.485993e+03
2.610182e+03,1.483888e+03
2.613074e+03,1.464570e+03
2.615967e+03,1.479840e+03
2.618860e+03,1.466468e+03
2.621752e+03,1.457483e+03
2.624645e+03,1.472037e+03
2.627538e+03,1.455075e+03
2.630430e+03,1.463281e+03
2.633323e+03,1.446668e+03
2.636216e+03,1.463513e+03
2.639109e+03,1.459337e+03
2.642001e+03,1.441403e+03
2.644894e+03,1.418191e+03
2.647787e+03,1.435875e+03
2.650679e+03,1.434482e+03
2.653572e+03,1.417561e+03
2.656465e+03,1.427241e+03
2.659357e+03,1.416361e+03
2.662250e+03,1.431646e+03
2.665143e+03,1.410812e+03
2.668036e+03,1.429677e+03
2.670928e+03,1.391556e+03
2.673821e+03,1.392000e+03
2.676714e+03,1.419857e+03
2.679606e+03,1.395593e+03
2.682499e+03,1.398392e+03
2.685392e+03,1.374976e+03
2.688284e+03,1.384142e+03
2.691177e+03,1.398674e+03
2.694070e+03,1.387874e+03
2.696963e+03,1.382473e+03
2.699855e+03,1.381518e+03
2.702748e+03,1.362626e+03
2.705641e+03,1.371905e+03
2.708533e+03,1.367907e+03
2.711426e+03,1.363150e+03
2.714319e+03,1.338214e+03
2.717211e+03,1.340024e+03
2.720104e+03,1.353329e+03
2.722997e+03,1.355583e+03
2.725890e+03,1.334260e+03
2.728782e+03,1.336430e+03
2.731675e+03,1.344213e+03
2.734568e+03,1.350745e+03
2.737460e+03,1.320839e+03
2.740353e+03,1.322980e+03
2.743246e+03,1.331891e+03
2.746138e+03,1.306456e+03
2.749031e+03,1.324643e+03
2.751924e+03,1.316508e+03
2.754817e+03,1.314270e+03
2.757709e+03,1.310092e+03
2.760602e+03,1.316491e+03
2.763495e+03,1.298973e+03
2.766387e+03,1.310371e+03
2.769280e+03,1.293178e+03
2.772173e+03,1.288527e+03
2.775065e+03,1.292569e+03
2.777958e+03,1.268069e+03
2.780851e+03,1.287629e+03
2.783744e+03,1.269504e+03
2.786636e+03,1.271184e+03
2.789529e+03,1.255193e+03
2.792422e+03,1.280148e+03
2.795314e+03,1.275424e+03
2.798207e+03,1.280635e+03
2.801100e+03,1.276517e+03
2.803992e+03,1.259348e+03
2.806885e+03,1.258998e+03
2.809778e+03,1.242409e+03
2.812671e+03,1.254688e+03
2.815563e+03,1.250817e+03
2.818456e+03,1.240026e+03
2.821349e+03,1.235187e+03
2.824241e+03,1.242509e+03
2.827134e+03,1.214413e+03
2.830027e+03,1.242046e+03
2.832919e+03,1.258834e+03
2.835812e+03,1.241630e+03
2.838705e+03,1.244745e+03
2.841598e+03,1.231504e+03
2.844490e+03,1.221971e+03
2.847383e+03,1.203423e+03
2.850276e+03,1.231795e+03
2.853168e+03,1.215669e+03
2.856061e+03,1.239655e+03
2.858954e+03,1.221995e+03
2.861846e+03,1.208093e+03
2.864739e+03,1.222366e+03
2.867632e+03,1.242721e+03
2.870525e+03,1.225251e+03
2.873417e+03,1.218941e+03
2.876310e+03,1.238580e+03
2.879203e+03,1.204771e+03
2.882095e+03,1.216488e+03
2.884988e+03,1.202459e+03
2.887881e+03,1.229927e+03
2.890773e+03,1.196131e+03
2.893666e+03,1.214346e+03
2.896559e+03,1.176723e+03
2.899452e+03,1.190716e+03
2.902344e+03,1.155252e+03
2.905237e+03,1.181298e+03
2.908130e+03,1.183087e+03
2.911022e+03,1.188993e+03
2.913915e+03,1.164014e+03
2.916808e+03,1.195818e+03
2.919700e+03,1.176418e+03
2.922593e+03,1.181773e+03
2.925486e+03,1.194430e+03
2.928379e+03,1.189223e+03
2.931271e+03,1.159246e+03
2.934164e+03,1.149072e+03
2.937057e+03,1.177582e+03
2.939949e+03,1.154200e+03
2.942842e+03,1.156518e+03
2.945735e+03,1.157696e+03
2.948627e+03,1.137323e+03
2.951520e+03,1.150760e+03
2.954413e+03,1.173304e+03
2.957306e+03,1.170905e+03
2.960198e+03,1.160011e+03
2.963091e+03,1.130021e+03
2.965984e+03,1.123044e+03
2.968876e+03,1.138615e+03
2.971769e+03,1.128536e+03
2.974662e+03,1.109530e+03
2.977554e+03,1.126325e+03
2.980447e+03,1.138419e+03
2.983340e+03,1.099381e+03
2.986233e+03,1.126147e+03
2.989125e+03,1.079797e+03
2.992018e+03,1.110925e+03
2.994911e+03,1.133402e+03
2.997803e+03,1.106424e+03
3.000696e+03,1.048109e+03
3.003589e+03,1.080330e+03
3.006481e+03,1.072453e+03
3.009374e+03,1.083434e+03
3.012267e+03,1.082782e+03
3.015160e+03,1.106082e+03
3.018052e+03,1.121557e+03
3.020945e+03,1.097057e+03
3.023838e+03,1.079507e+03
3.026730e+03,1.069737e+03
3.029623e+03,1.094939e+03
3.032516e+03,1.063737e+03
3.035408e+03,1.100247e+03
3.038301e+03,1.090982e+03
3.041194e+03,1.063982e+03
3.044087e+03,1.082446e+03
3.046979e+03,1.087381e+03
3.049872e+03,1.064889e+03
3.052765e+03,1.107614e+03
3.055657e+03,1.064350e+03
3.058550e+03,1.073490e+03
3.061443e+03,1.062557e+03
3.064335e+03,1.078776e+03
3.067228e+03,1.089064e+03
3.070121e+03,1.057025e+03
3.073014e+03,1.075620e+03
3.075906e+03,1.051499e+03
3.078799e+03,1.053889e+03
3.081692e+03,1.087885e+03
3.084584e+03,1.030309e+03
3.087477e+03,1.068880e+03
3.090370e+03,1.087660e+03
3.093262e+03,1.068074e+03
3.096155e+03,1.057049e+03
3.099048e+03,1.043431e+03
3.101941e+03,1.077389e+03
3.104833e+03,1.066062e+03
3.107726e+03,1.050262e+03
3.110619e+03,1.056548e+03
3.113511e+03,1.036312e+03
3.116404e+03,1.028619e+03
3.119297e+03,1.064325e+03
3.122189e+03,1.013712e+03
3.125082e+03,1.077643e+03
3.127975e+03,1.061397e+03
3.130868e+03,1.066877e+03
3.133760e+03,1.070706e+03
3.136653e+03,1.080283e+03
3.139546e+03,1.060164e+03
3.142438e+03,1.085304e+03
3.145331e+03,1.061983e+03
3.148224e+03,1.041692e+03
3.151116e+03,1.034429e+03
3.154009e+03,1.024924e+03
3.156902e+03,1.035022e+03
3.159795e+03,1.048359e+03
3.162687e+03,1.076652e+03
3.165580e+03,1.089318e+03
3.168473e+03,1.082556e+03
3.171365e+03,1.032881e+03
3.174258e+03,1.075198e+03
3.177151e+03,1.056509e+03
3.180043e+03,1.025868e+03
3.182936e+03,1.030186e+03
3.185829e+03,1.054649e+03
3.188722e+03,1.062867e+03
3.191614e+03,1.067917e+03
3.194507e+03,1.026482e+03
3.197400e+03,1.060753e+03
3.200292e+03,1.067887e+03
3.203185e+03,0.000000e+00
3.206078e+03,0.000000e+00
3.208970e+03,0.000000e+00
3.211863e+03,0.000000e+00
3.214756e+03,0.000000e+00
3.217649e+03,0.000000e+00
3.220541e+03,0.000000e+00
3.223434e+03,0.000000e+00
3.226327e+03,0.000000e+00
3.229219e+03,0.000000e+00
3.232112e+03,0.000000e+00
3.235005e+03,0.000000e+00
3.237897e+03,0.000000e+00
3.240790e+03,0.000000e+00
3.243683e+03,0.000000e+00
3.246576e+03,0.000000e+00
3.249468e+03,0.000000e+00
3.252361e+03,0.000000e+00
3.255254e+03,0.000000e+00
3.258146e+03,0.000000e+00
3.261039e+03,0.000000e+00
3.263932e+03,0.000000e+00
3.266824e+03,0.000000e+00
3.269717e+03,0.000000e+00
3.272610e+03,0.000000e+00
3.275503e+03,0.000000e+00
3.278395e+03,0.000000e+00
3.281288e+03,0.000000e+00
3.284181e+03,0.000000e+00
3.287073e+03,0.000000e+00
3.289966e+03,0.000000e+00
3.292859e+03,0.000000e+00
3.295751e+03,0.000000e+00
3.298644e+03,0.000000e+00
3.301537e+03,0.000000e+00
3.304430e+03,0.000000e+00
3.307322e+03,0.000000e+00
3.310215e+03,0.000000e+00
3.313108e+03,0.000000e+00
3.316000e+03,0.000000e+00
3.318893e+03,0.000000e+00
3.321786e+03,0.000000e+00
3.324678e+03,0.000000e+00
3.327571e+03,0.000000e+00
3.330464e+03,0.000000e+00
3.333357e+03,0.000000e+00
3.336249e+03,0.000000e+00
3.339142e+03,0.000000e+00
3.342035e+03,0.000000e+00
3.344927e+03,0.000000e+00
3.347820e+03,0.000000e+00
3.350713e+03,0.000000e+00
3.353605e+03,0.000000e+00
3.356498e+03,0.000000e+00
3.359391e+03,0.000000e+00
3.362284e+03,0.000000e+00
3.365176e+03,0.000000e+00
3.368069e+03,0.000000e+00
3.370962e+03,0.000000e+00
3.373854e+03,0.000000e+00
3.376747e+03,0.000000e+00
3.379640e+03,0.000000e+00
3.382532e+03,0.000000e+00
3.385425e+03,0.000000e+00
3.388318e+03,0.000000e+00
3.391211e+03,0.000000e+00
3.394103e+03,0.000000e+00
3.396996e+03,0.000000e+00
3.399889e+03,0.000000e+00
3.402781e+03,0.000000e+00
3.405674e+03,0.000000e+00
3.408567e+03,0.000000e+00
3.411459e+03,0.000000e+00
3.414352e+03,0.000000e+00
3.417245e+03,0.000000e+00
3.420138e+03,0.000000e+00
3.423030e+03,0.000000e+00
3.425923e+03,0.000000e+00
3.428816e+03,0.000000e+00
3.431708e+03,0.000000e+00
3.434601e+03,0.000000e+00
3.437494e+03,0.000000e+00
3.440386e+03,0.000000e+00
3.443279e+03,0.000000e+00
3.446172e+03,0.000000e+00
3.449065e+03,0.000000e+00
3.451957e+03,0.000000e+00
3.454850e+03,0.000000e+00
3.457743e+03,0.000000e+00
3.460635e+03,0.000000e+00
3.463528e+03,0.000000e+00
3.466421e+03,0.000000e+00
3.469313e+03,0.000000e+00
3.472206e+03,0.000000e+00
3.475099e+03,0.000000e+00
3.477992e+03,0.000000e+00
3.480884e+03,0.000000e+00
3.483777e+03,0.000000e+00
3.486670e+03,0.000000e+00
3.489563e+03,0.000000e+00
3.492455e+03,0.000000e+00
3.495348e+03,0.000000e+00
3.498240e+03,0.000000e+00
3.500169e+03,0.000000e+00