File: RAMAN_data/19072023_r1/red fibre1.CSV
9.931763e+01,0.000000e+00
1.022103e+02,0.000000e+00
1.051030e+02,0.000000e+00
1.079957e+02,0.000000e+00
1.108884e+02,0.000000e+00
1.137811e+02,0.000000e+00
1.166738e+02,0.000000e+00
1.195665e+02,0.000000e+00
1.224592e+02,0.000000e+00
1.253519e+02,0.000000e+00
1.282446e+02,0.000000e+00
1.311373e+02,0.000000e+00
1.340300e+02,0.000000e+00
1.369227e+02,0.000000e+00
1.398154e+02,0.000000e+00
1.427081e+02,0.000000e+00
1.456008e+02,0.000000e+00
1.484935e+02,0.000000e+00
1.513862e+02,0.000000e+00
1.542789e+02,0.000000e+00
1.571716e+02,0.000000e+00
1.600643e+02,0.000000e+00
1.629570e+02,0.000000e+00
1.658497e+02,0.000000e+00
1.687424e+02,0.000000e+00
1.716351e+02,0.000000e+00
1.745278e+02,0.000000e+00
1.774205e+02,0.000000e+00
1.803132e+02,0.000000e+00
1.832059e+02,0.000000e+00
1.860986e+02,0.000000e+00
1.889913e+02,0.000000e+00
1.918840e+02,0.000000e+00
1.947767e+02,0.000000e+00
1.976694e+02,0.000000e+00
2.005621e+02,2.998344e+03
2.034548e+02,3.009192e+03
2.063475e+02,3.016689e+03
2.092402e+02,3.002916e+03
2.121329e+02,3.006646e+03
2.150256e+02,3.020331e+03
2.179183e+02,3.020487e+03
2.208110e+02,3.029600e+03
2.237037e+02,3.035107e+03
2.265964e+02,3.020633e+03
2.294892e+02,3.024904e+03
2.323819e+02,3.029840e+03
2.352746e+02,3.045769e+03
2.381673e+02,3.051660e+03
2.410600e+02,3.031590e+03
2.439527e+02,3.046662e+03
2.468454e+02,3.051852e+03
2.497381e+02,3.052871e+03
2.526308e+02,3.058556e+03
2.555235e+02,3.066323e+03
2.584161e+02,3.065501e+03
2.613088e+02,3.084627e+03
2.642015e+02,3.083589e+03
2.670942e+02,3.080383e+03
2.699869e+02,3.084453e+03
2.728796e+02,3.092143e+03
2.757723e+02,3.093579e+03
2.786650e+02,3.094294e+03
2.815577e+02,3.101630e+03
2.844504e+02,3.098864e+03
2.873431e+02,3.095917e+03
2.902358e+02,3.103808e+03
2.931285e+02,3.108450e+03
2.960212e+02,3.095043e+03
2.989139e+02,3.106050e+03
3.018066e+02,3.117826e+03
3.046993e+02,3.107726e+03
3.075920e+02,3.115526e+03
3.104847e+02,3.115942e+03
3.133774e+02,3.121311e+03
3.162701e+02,3.118458e+03
3.191628e+02,3.114510e+03
3.220555e+02,3.128815e+03
3.249482e+02,3.148659e+03
3.278409e+02,3.138859e+03
3.307336e+02,3.128448e+03
3.336263e+02,3.135134e+03
3.365190e+02,3.118646e+03
3.394117e+02,3.127395e+03
3.423044e+02,3.143323e+03
3.451971e+02,3.149211e+03
3.480898e+02,3.151387e+03
3.509825e+02,3.146450e+03
3.538752e+02,3.131545e+03
3.567680e+02,3.154910e+03
3.596607e+02,3.161179e+03
3.625534e+02,3.162188e+03
3.654461e+02,3.145466e+03
3.683388e+02,3.139323e+03
3.712315e+02,3.161055e+03
3.741242e+02,3.179349e+03
3.770169e+02,3.166864e+03
3.799096e+02,3.166335e+03
3.828023e+02,3.161381e+03
3.856950e+02,3.162021e+03
3.885877e+02,3.158274e+03
3.914804e+02,3.165770e+03
3.943731e+02,3.160991e+03
3.972658e+02,3.150153e+03
4.001585e+02,3.145107e+03
4.030512e+02,3.149862e+03
4.059439e+02,3.150633e+03
4.088366e+02,3.165528e+03
4.117293e+02,3.158384e+03
4.146220e+02,3.148959e+03
4.175147e+02,3.169037e+03
4.204074e+02,3.175418e+03
4.233001e+02,3.156880e+03
4.261928e+02,3.151679e+03
4.290855e+02,3.155002e+03
4.319782e+02,3.153709e+03
4.348709e+02,3.174084e+03
4.377636e+02,3.164978e+03
4.406563e+02,3.155110e+03
4.435490e+02,3.145632e+03
4.464417e+02,3.153308e+03
4.493344e+02,3.170646e+03
4.522271e+02,3.153621e+03
4.551198e+02,3.165158e+03
4.580125e+02,3.154447e+03
4.609052e+02,3.163693e+03
4.637979e+02,3.166394e+03
4.666906e+02,3.150946e+03
4.695833e+02,3.149881e+03
4.724760e+02,3.143536e+03
4.753687e+02,3.139527e+03
4.782614e+02,3.149481e+03
4.811541e+02,3.152025e+03
4.840468e+02,3.154871e+03
4.869395e+02,3.162331e+03
4.898322e+02,3.143112e+03
4.927249e+02,3.140689e+03
4.956176e+02,3.143055e+03
4.985103e+02,3.153046e+03
5.014030e+02,3.146097e+03
5.042957e+02,3.148303e+03
5.071884e+02,3.144101e+03
5.100811e+02,3.137534e+03
5.129738e+02,3.148175e+03
5.158665e+02,3.131808e+03
5.187592e+02,3.149251e+03
5.216519e+02,3.121085e+03
5.245446e+02,3.135082e+03
5.274373e+02,3.148022e+03
5.303300e+02,3.137233e+03
5.332227e+02,3.113722e+03
5.361154e+02,3.121677e+03
5.390081e+02,3.128562e+03
5.419008e+02,3.130886e+03
5.447935e+02,3.137025e+03
5.476862e+02,3.123720e+03
5.505789e+02,3.116224e+03
5.534716e+02,3.114290e+03
5.563643e+02,3.109176e+03
5.592570e+02,3.107113e+03
5.621497e+02,3.094489e+03
5.650424e+02,3.118975e+03
5.679351e+02,3.122012e+03
5.708278e+02,3.107860e+03
5.737205e+02,3.119635e+03
5.766132e+02,3.113583e+03
5.795059e+02,3.103379e+03
5.823986e+02,3.094424e+03
5.852913e+02,3.113000e+03
5.881840e+02,3.091902e+03
5.910767e+02,3.094239e+03
5.939694e+02,3.104837e+03
5.968621e+02,3.094694e+03
5.997548e+02,3.084813e+03
6.026475e+02,3.086097e+03
6.055402e+02,3.089160e+03
6.084329e+02,3.089708e+03
6.113256e+02,3.088143e+03
6.142183e+02,3.085534e+03
6.171110e+02,3.077297e+03
6.200037e+02,3.074370e+03
6.228964e+02,3.067656e+03
6.257891e+02,3.076793e+03
6.286818e+02,3.082042e+03
6.315745e+02,3.079958e+03
6.344672e+02,3.076523e+03
6.373599e+02,3.067870e+03
6.402526e+02,3.058464e+03
6.431453e+02,3.055157e+03
6.460380e+02,3.053551e+03
6.489307e+02,3.075632e+03
6.518234e+02,3.059201e+03
6.547161e+02,3.048880e+03
6.576088e+02,3.032116e+03
6.605015e+02,3.046852e+03
6.633942e+02,3.030433e+03
6.662869e+02,3.038181e+03
6.691796e+02,3.039983e+03
6.720723e+02,3.029169e+03
6.749650e+02,3.020125e+03
6.778577e+02,3.027532e+03
6.807504e+02,3.030134e+03
6.836431e+02,3.026143e+03
6.865358e+02,3.020663e+03
6.894285e+02,3.015837e+03
6.923212e+02,3.015703e+03
6.952139e+02,3.013868e+03
6.981066e+02,3.007994e+03
7.009993e+02,3.013027e+03
7.038920e+02,3.014487e+03
7.067847e+02,3.004349e+03
7.096774e+02,2.978304e+03
7.125701e+02,3.008110e+03
7.154628e+02,3.001642e+03
7.183555e+02,2.983588e+03
7.212482e+02,2.982698e+03
7.241409e+02,2.977654e+03
7.270336e+02,2.983186e+03
7.299263e+02,2.981283e+03
7.328190e+02,2.977132e+03
7.357117e+02,2.963712e+03
7.386044e+02,2.957371e+03
7.414971e+02,2.961540e+03
7.443898e+02,2.956188e+03
7.472825e+02,2.971634e+03
7.501752e+02,2.942737e+03
7.530679e+02,2.937410e+03
7.559606e+02,2.955776e+03
7.588533e+02,2.925642e+03
7.617460e+02,2.951988e+03
7.646387e+02,2.933499e+03
7.675314e+02,2.930427e+03
7.704241e+02,2.929153e+03
7.733168e+02,2.933849e+03
7.762095e+02,2.919393e+03
7.791022e+02,2.915068e+03
7.819949e+02,2.923909e+03
7.848876e+02,2.910658e+03
7.877803e+02,2.923828e+03
7.906730e+02,2.920254e+03
7.935657e+02,2.901147e+03
7.964584e+02,2.892304e+03
7.993511e+02,2.903130e+03
8.022438e+02,2.880036e+03
8.051365e+02,2.876262e+03
8.080292e+02,2.880982e+03
8.109219e+02,2.886454e+03
8.138146e+02,2.888272e+03
8.167073e+02,2.882443e+03
8.196000e+02,2.877277e+03
8.224927e+02,2.878589e+03
8.253854e+02,2.861660e+03
8.282781e+02,2.857450e+03
8.311708e+02,2.859958e+03
8.340635e+02,2.849699e+03
8.369562e+02,2.860438e+03
8.398489e+02,2.852132e+03
8.427416e+02,2.846069e+03
8.456343e+02,2.831778e+03
8.485270e+02,2.822627e+03
8.514197e+02,2.830168e+03
8.543124e+02,2.839395e+03
8.572051e+02,2.827786e+03
8.600978e+02,2.815961e+03
8.629905e+02,2.829664e+03
8.658832e+02,2.821557e+03
8.687759e+02,2.812335e+03
8.716686e+02,2.815080e+03
8.745613e+02,2.812499e+03
8.774540e+02,2.817979e+03
8.803467e+02,2.804127e+03
8.832394e+02,2.794548e+03
8.861321e+02,2.806954e+03
8.890248e+02,2.802792e+03
8.919175e+02,2.797480e+03
8.948102e+02,2.786493e+03
8.977029e+02,2.769313e+03
9.005956e+02,2.778186e+03
9.034883e+02,2.772273e+03
9.063810e+02,2.745994e+03
9.092737e+02,2.749692e+03
9.121664e+02,2.763707e+03
9.150591e+02,2.762408e+03
9.179518e+02,2.756978e+03
9.208445e+02,2.745717e+03
9.237372e+02,2.728138e+03
9.266299e+02,2.731731e+03
9.295226e+02,2.744429e+03
9.324153e+02,2.740389e+03
9.353080e+02,2.714793e+03
9.382007e+02,2.716656e+03
9.410934e+02,2.728404e+03
9.439861e+02,2.714575e+03
9.468788e+02,2.700280e+03
9.497715e+02,2.713946e+03
9.526642e+02,2.711945e+03
9.555569e+02,2.699367e+03
9.584496e+02,2.708225e+03
9.613423e+02,2.679872e+03
9.642350e+02,2.691295e+03
9.671277e+02,2.696916e+03
9.700204e+02,2.690234e+03
9.729131e+02,2.690028e+03
9.758058e+02,2.672780e+03
9.786985e+02,2.679953e+03
9.815912e+02,2.664892e+03
9.844839e+02,2.662969e+03
9.873766e+02,2.644402e+03
9.902693e+02,2.653552e+03
9.931620e+02,2.653663e+03
9.960547e+02,2.657138e+03
9.989474e+02,2.652393e+03
1.001840e+03,2.645356e+03
1.004733e+03,2.624578e+03
1.007626e+03,2.621960e+03
1.010518e+03,2.621913e+03
1.013411e+03,2.626089e+03
1.016304e+03,2.611092e+03
1.019196e+03,2.621077e+03
1.022089e+03,2.619877e+03
1.024982e+03,2.607782e+03
1.027875e+03,2.612741e+03
1.030767e+03,2.603487e+03
1.033660e+03,2.605083e+03
1.036552e+03,2.586010e+03
1.039445e+03,2.607548e+03
1.042338e+03,2.586078e+03
1.045231e+03,2.580098e+03
1.048123e+03,2.576655e+03
1.051016e+03,2.588072e+03
1.053909e+03,2.585143e+03
1.056802e+03,2.576997e+03
1.059694e+03,2.568419e+03
1.062587e+03,2.563209e+03
1.065479e+03,2.566942e+03
1.068372e+03,2.577762e+03
1.071265e+03,2.555451e+03
1.074158e+03,2.564350e+03
1.077050e+03,2.554379e+03
1.079943e+03,2.547433e+03
1.082836e+03,2.558765e+03
1.085729e+03,2.567375e+03
1.088621e+03,2.556079e+03
1.091514e+03,2.549309e+03
1.094406e+03,2.560187e+03
1.097299e+03,2.552629e+03
1.100192e+03,2.530293e+03
1.103085e+03,2.531935e+03
1.105977e+03,2.536176e+03
1.108870e+03,2.523548e+03
1.111763e+03,2.525094e+03
1.114656e+03,2.524856e+03
1.117548e+03,2.518067e+03
1.120441e+03,2.515063e+03
1.123334e+03,2.508733e+03
1.126226e+03,2.506533e+03
1.129119e+03,2.491116e+03
1.132012e+03,2.502875e+03
1.134904e+03,2.495290e+03
1.137797e+03,2.469604e+03
1.140690e+03,2.467773e+03
1.143583e+03,2.466958e+03
1.146475e+03,2.477802e+03
1.149368e+03,2.475799e+03
1.152261e+03,2.454352e+03
1.155153e+03,2.452804e+03
1.158046e+03,2.448769e+03
1.160939e+03,2.453681e+03
1.163831e+03,2.437979e+03
1.166724e+03,2.454081e+03
1.169617e+03,2.436694e+03
1.172510e+03,2.419385e+03
1.175402e+03,2.431102e+03
1.178295e+03,2.407196e+03
1.181188e+03,2.426513e+03
1.184080e+03,2.410477e+03
1.186973e+03,2.403600e+03
1.189866e+03,2.409521e+03
1.192758e+03,2.409893e+03
1.195651e+03,2.403396e+03
1.198544e+03,2.401492e+03
1.201437e+03,2.393030e+03
1.204329e+03,2.386980e+03
1.207222e+03,2.377570e+03
1.210115e+03,2.393130e+03
1.213007e+03,2.390445e+03
1.215900e+03,2.368013e+03
1.218793e+03,2.383237e+03
1.221685e+03,2.374288e+03
1.224578e+03,2.377013e+03
1.227471e+03,2.374348e+03
1.230364e+03,2.363265e+03
1.233256e+03,2.362379e+03
1.236149e+03,2.355439e+03
1.239042e+03,2.370972e+03
1.241934e+03,2.352060e+03
1.244827e+03,2.351249e+03
1.247720e+03,2.349836e+03
1.250612e+03,2.329147e+03
1.253505e+03,2.344383e+03
1.256398e+03,2.337782e+03
1.259291e+03,2.323647e+03
1.262183e+03,2.326869e+03
1.265076e+03,2.328635e+03
1.267969e+03,2.320925e+03
1.270861e+03,2.321217e+03
1.273754e+03,2.325812e+03
1.276647e+03,2.317573e+03
1.279539e+03,2.308104e+03
1.282432e+03,2.309116e+03
1.285325e+03,2.308368e+03
1.288218e+03,2.321204e+03
1.291110e+03,2.291377e+03
1.294003e+03,2.293421e+03
1.296896e+03,2.296651e+03
1.299788e+03,2.287739e+03
1.302681e+03,2.290196e+03
1.305574e+03,2.295991e+03
1.308466e+03,2.296506e+03
1.311359e+03,2.276298e+03
1.314252e+03,2.276627e+03
1.317145e+03,2.270725e+03
1.320037e+03,2.299994e+03
1.322930e+03,2.273322e+03
1.325823e+03,2.264155e+03
1.328715e+03,2.258766e+03
1.331608e+03,2.259112e+03
1.334501e+03,2.265243e+03
1.337393e+03,2.274801e+03
1.340286e+03,2.282056e+03
1.343179e+03,2.245588e+03
1.346072e+03,2.248510e+03
1.348964e+03,2.260454e+03
1.351857e+03,2.249865e+03
1.354750e+03,2.252551e+03
1.357642e+03,2.236633e+03
1.360535e+03,2.230858e+03
1.363428e+03,2.215887e+03
1.366320e+03,2.240987e+03
1.369213e+03,2.236379e+03
1.372106e+03,2.222737e+03
1.374999e+03,2.223906e+03
1.377891e+03,2.214098e+03
1.380784e+03,2.205635e+03
1.383677e+03,2.215727e+03
1.386569e+03,2.189465e+03
1.389462e+03,2.213413e+03
1.392355e+03,2.191898e+03
1.395247e+03,2.179124e+03
1.398140e+03,2.184785e+03
1.401033e+03,2.190002e+03
1.403926e+03,2.185231e+03
1.406818e+03,2.172989e+03
1.409711e+03,2.170959e+03
1.412604e+03,2.163960e+03
1.415496e+03,2.171072e+03
1.418389e+03,2.151150e+03
1.421282e+03,2.157667e+03
1.424174e+03,2.145873e+03
1.427067e+03,2.145540e+03
1.429960e+03,2.148946e+03
1.432853e+03,2.145419e+03
1.435745e+03,2.136853e+03
1.438638e+03,2.129822e+03
1.441531e+03,2.135911e+03
1.444423e+03,2.118731e+03
1.447316e+03,2.121733e+03
1.450209e+03,2.125524e+03
1.453101e+03,2.117196e+03
1.455994e+03,2.120822e+03
1.458887e+03,2.113793e+03
1.461780e+03,2.112944e+03
1.464672e+03,2.102397e+03
1.467565e+03,2.096680e+03
1.470458e+03,2.092533e+03
1.473350e+03,2.100635e+03
1.476243e+03,2.100645e+03
1.479136e+03,2.076347e+03
1.482028e+03,2.076399e+03
1.484921e+03,2.071931e+03
1.487814e+03,2.088130e+03
1.490707e+03,2.073270e+03
1.493599e+03,2.067584e+03
1.496492e+03,2.057377e+03
1.499385e+03,2.055539e+03
1.502277e+03,2.059296e+03
1.505170e+03,2.044222e+03
1.508063e+03,2.058722e+03
1.510955e+03,2.044761e+03
1.513848e+03,2.023941e+03
1.516741e+03,2.051362e+03
1.519634e+03,2.042979e+03
1.522526e+03,2.036022e+03
1.525419e+03,2.045124e+03
1.528312e+03,2.023756e+03
1.531204e+03,2.016881e+03
1.534097e+03,2.024968e+03
1.536990e+03,2.016210e+03
1.539882e+03,2.028989e+03
1.542775e+03,2.014492e+03
1.545668e+03,2.016146e+03
1.548561e+03,2.018754e+03
1.551453e+03,1.995356e+03
1.554346e+03,2.032740e+03
1.557239e+03,1.998779e+03
1.560131e+03,1.980211e+03
1.563024e+03,1.989383e+03
1.565917e+03,1.985454e+03
1.568809e+03,1.997508e+03
1.571702e+03,1.985920e+03
1.574595e+03,1.965956e+03
1.577488e+03,1.976717e+03
1.580380e+03,1.963195e+03
1.583273e+03,1.966924e+03
1.586166e+03,1.971482e+03
1.589058e+03,1.955343e+03
1.591951e+03,1.953707e+03
1.594844e+03,1.956991e+03
1.597736e+03,1.965699e+03
1.600629e+03,1.953366e+03
1.603522e+03,1.931133e+03
1.606415e+03,1.931568e+03
1.609307e+03,1.937081e+03
1.612200e+03,1.943253e+03
1.615093e+03,1.934682e+03
1.617985e+03,1.929656e+03
1.620878e+03,1.923400e+03
1.623771e+03,1.914240e+03
1.626663e+03,1.907936e+03
1.629556e+03,1.916304e+03
1.632449e+03,1.900109e+03
1.635342e+03,1.901699e+03
1.638234e+03,1.902075e+03
1.641127e+03,1.897690e+03
1.644020e+03,1.893219e+03
1.646912e+03,1.892499e+03
1.649805e+03,1.886656e+03
1.652698e+03,1.874684e+03
1.655590e+03,1.874842e+03
1.658483e+03,1.870535e+03
1.661376e+03,1.864288e+03
1.664269e+03,1.863324e+03
1.667161e+03,1.868541e+03
1.670054e+03,1.850436e+03
1.672947e+03,1.859138e+03
1.675839e+03,1.849514e+03
1.678732e+03,1.849464e+03
1.681625e+03,1.840613e+03
1.684517e+03,1.846119e+03
1.687410e+03,1.845326e+03
1.690303e+03,1.819747e+03
1.693196e+03,1.823486e+03
1.696088e+03,1.822815e+03
1.698981e+03,1.811143e+03
1.701874e+03,1.845192e+03
1.704766e+03,1.817682e+03
1.707659e+03,1.825638e+03
1.710552e+03,1.820093e+03
1.713444e+03,1.807063e+03
1.716337e+03,1.794768e+03
1.719230e+03,1.796043e+03
1.722123e+03,1.781312e+03
1.725015e+03,1.795669e+03
1.727908e+03,1.790567e+03
1.730801e+03,1.782547e+03
1.733693e+03,1.776455e+03
1.736586e+03,1.787159e+03
1.739479e+03,1.757219e+03
1.742371e+03,1.775406e+03
1.745264e+03,1.759278e+03
1.748157e+03,1.752608e+03
1.751050e+03,1.753534e+03
1.753942e+03,1.765128e+03
1.756835e+03,1.740590e+03
1.759728e+03,1.754554e+03
1.762620e+03,1.732804e+03
1.765513e+03,1.734047e+03
1.768406e+03,1.733498e+03
1.771298e+03,1.735585e+03
1.774191e+03,1.718974e+03
1.777084e+03,1.713341e+03
1.779977e+03,1.697427e+03
1.782869e+03,1.719850e+03
1.785762e+03,1.705747e+03
1.788655e+03,1.702577e+03
1.791547e+03,1.695866e+03
1.794440e+03,1.682707e+03
1.797333e+03,1.680283e+03
1.800225e+03,1.687551e+03
1.803118e+03,1.676003e+03
1.806011e+03,1.677059e+03
1.808904e+03,1.667452e+03
1.811796e+03,1.685256e+03
1.814689e+03,1.677424e+03
1.817582e+03,1.677633e+03
1.820474e+03,1.666689e+03
1.823367e+03,1.652029e+03
1.826260e+03,1.642461e+03
1.829152e+03,1.633178e+03
1.832045e+03,1.651599e+03
1.834938e+03,1.641309e+03
1.837831e+03,1.629896e+03
1.840723e+03,1.645365e+03
1.843616e+03,1.644937e+03
1.846509e+03,1.653807e+03
1.849401e+03,1.622165e+03
1.852294e+03,1.634122e+03
1.855187e+03,1.620804e+03
1.858079e+03,1.611781e+03
1.860972e+03,1.612953e+03
1.863865e+03,1.607859e+03
1.866758e+03,1.593475e+03
1.869650e+03,1.593984e+03
1.872543e+03,1.593407e+03
1.875436e+03,1.601229e+03
1.878328e+03,1.599692e+03
1.881221e+03,1.589119e+03
1.884114e+03,1.574489e+03
1.887006e+03,1.581996e+03
1.889899e+03,1.578694e+03
1.892792e+03,1.585440e+03
1.895685e+03,1.556757e+03
1.898577e+03,1.561634e+03
1.901470e+03,1.551356e+03
1.904363e+03,1.558059e+03
1.907255e+03,1.553269e+03
1.910148e+03,1.546699e+03
1.913041e+03,1.536067e+03
1.915933e+03,1.522213e+03
1.918826e+03,1.533459e+03
1.921719e+03,1.540428e+03
1.924612e+03,1.523635e+03
1.927504e+03,1.533530e+03
1.930397e+03,1.522717e+03
1.933290e+03,1.518294e+03
1.936182e+03,1.516161e+03
1.939075e+03,1.503426e+03
1.941968e+03,1.504380e+03
1.944860e+03,1.500865e+03
1.947753e+03,1.498441e+03
1.950646e+03,1.500660e+03
1.953539e+03,1.491182e+03
1.956431e+03,1.495488e+03
1.959324e+03,1.488366e+03
1.962217e+03,1.496700e+03
1.965109e+03,1.475862e+03
1.968002e+03,1.472908e+03
1.970895e+03,1.462165e+03
1.973787e+03,1.462564e+03
1.976680e+03,1.459379e+03
1.979573e+03,1.453208e+03
1.982466e+03,1.460217e+03
1.985358e+03,1.458113e+03
1.988251e+03,1.448054e+03
1.991144e+03,1.447654e+03
1.994036e+03,1.448100e+03
1.996929e+03,1.440152e+03
1.999822e+03,1.449426e+03
2.002714e+03,1.424575e+03
2.005607e+03,1.426270e+03
2.008500e+03,1.430377e+03
2.011393e+03,1.425409e+03
2.014285e+03,1.412237e+03
2.017178e+03,1.405565e+03
2.020071e+03,1.400453e+03
2.022963e+03,1.399606e+03
2.025856e+03,1.387016e+03
2.028749e+03,1.391646e+03
2.031641e+03,1.387693e+03
2.034534e+03,1.401424e+03
2.037427e+03,1.372638e+03
2.040320e+03,1.374552e+03
2.043212e+03,1.368527e+03
2.046105e+03,1.379605e+03
2.048998e+03,1.371818e+03
2.051890e+03,1.353982e+03
2.054783e+03,1.352098e+03
2.057676e+03,1.350411e+03
2.060568e+03,1.351394e+03
2.063461e+03,1.353646e+03
2.066354e+03,1.343236e+03
2.069247e+03,1.337941e+03
2.072139e+03,1.327345e+03
2.075032e+03,1.330019e+03
2.077925e+03,1.324127e+03
2.080817e+03,1.337281e+03
2.083710e+03,1.314893e+03
2.086603e+03,1.333125e+03
2.089496e+03,1.323663e+03
2.092388e+03,1.309529e+03
2.095281e+03,1.314289e+03
2.098174e+03,1.305858e+03
2.101066e+03,1.302930e+03
2.103959e+03,1.291741e+03
2.106852e+03,1.298341e+03
2.109744e+03,1.300585e+03
2.112637e+03,1.282091e+03
2.115530e+03,1.280756e+03
2.118422e+03,1.272904e+03
2.121315e+03,1.298809e+03
2.124208e+03,1.279506e+03
2.127101e+03,1.267476e+03
2.129993e+03,1.260688e+03
2.132886e+03,1.254287e+03
2.135779e+03,1.263462e+03
2.138671e+03,1.258008e+03
2.141564e+03,1.245149e+03
2.144457e+03,1.249574e+03
2.147350e+03,1.229009e+03
2.150242e+03,1.240823e+03
2.153135e+03,1.230693e+03
2.156028e+03,1.235594e+03
2.158920e+03,1.236413e+03
2.161813e+03,1.225187e+03
2.164706e+03,1.216835e+03
2.167598e+03,1.215613e+03
2.170491e+03,1.225457e+03
2.173384e+03,1.207350e+03
2.176277e+03,1.214846e+03
2.179169e+03,1.203920e+03
2.182062e+03,1.200698e+03
2.184955e+03,1.204473e+03
2.187847e+03,1.175090e+03
2.190740e+03,1.184436e+03
2.193633e+03,1.180207e+03
2.196525e+03,1.175543e+03
2.199418e+03,1.185094e+03
2.202311e+03,1.178415e+03
2.205204e+03,1.172900e+03
2.208096e+03,1.168166e+03
2.210989e+03,1.158393e+03
2.213882e+03,1.156351e+03
2.216774e+03,1.167464e+03
2.219667e+03,1.156922e+03
2.222560e+03,1.146532e+03
2.225452e+03,1.151941e+03
2.228345e+03,1.132593e+03
2.231238e+03,1.147605e+03
2.234131e+03,1.142181e+03
2.237023e+03,1.120636e+03
2.239916e+03,1.128011e+03
2.242809e+03,1.131488e+03
2.245701e+03,1.131553e+03
2.248594e+03,1.120356e+03
2.251487e+03,1.129505e+03
2.254379e+03,1.120954e+03
2.257272e+03,1.117872e+03
2.260165e+03,1.107863e+03
2.263058e+03,1.108336e+03
2.265950e+03,1.099066e+03
2.268843e+03,1.088067e+03
2.271736e+03,1.086749e+03
2.274628e+03,1.086707e+03
2.277521e+03,1.072374e+03
2.280414e+03,1.082058e+03
2.283306e+03,1.088873e+03
2.286199e+03,1.083011e+03
2.289092e+03,1.078132e+03
2.291985e+03,1.075302e+03
2.294877e+03,1.083960e+03
2.297770e+03,1.070497e+03
2.300663e+03,1.077185e+03
2.303555e+03,1.054930e+03
2.306448e+03,1.044721e+03
2.309341e+03,1.047143e+03
2.312233e+03,1.041509e+03
2.315126e+03,1.051776e+03
2.318019e+03,1.037437e+03
2.320912e+03,1.047939e+03
2.323804e+03,1.035318e+03
2.326697e+03,1.041828e+03
2.329590e+03,1.030105e+03
2.332482e+03,1.026458e+03
2.335375e+03,1.022031e+03
2.338268e+03,1.019435e+03
2.341160e+03,1.015008e+03
2.344053e+03,1.027866e+03
2.346946e+03,1.008535e+03
2.349839e+03,1.012724e+03
2.352731e+03,9.975744e+02
2.355624e+03,1.001725e+03
2.358517e+03,9.917371e+02
2.361409e+03,9.994230e+02
2.364302e+03,9.966345e+02
2.367195e+03,9.862215e+02
2.370087e+03,9.851119e+02
2.372980e+03,9.964911e+02
2.375873e+03,9.989451e+02
2.378766e+03,9.831678e+02
2.381658e+03,9.773587e+02
2.384551e+03,9.817516e+02
2.387444e+03,9.872621e+02
2.390336e+03,9.629022e+02
2.393229e+03,9.657460e+02
2.396122e+03,9.599483e+02
2.399014e+03,9.624347e+02
2.401907e+03,9.636068e+02
2.404800e+03,9.709197e+02
2.407693e+03,9.560853e+02
2.410585e+03,9.537267e+02
2.413478e+03,9.563246e+02
2.416371e+03,9.394387e+02
2.419263e+03,9.348240e+02
2.422156e+03,9.438718e+02
2.425049e+03,9.367245e+02
2.427941e+03,9.262233e+02
2.430834e+03,9.322043e+02
2.433727e+03,9.215215e+02
2.436620e+03,9.252595e+02
2.439512e+03,9.211278e+02
2.442405e+03,9.279255e+02
2.445298e+03,9.149470e+02
2.448190e+03,9.088538e+02
2.451083e+03,9.226483e+02
2.453976e+03,9.200717e+02
2.456868e+03,9.082596e+02
2.459761e+03,9.073203e+02
2.462654e+03,8.895984e+02
2.465547e+03,8.927820e+02
2.468439e+03,8.958748e+02
2.471332e+03,8.914665e+02
2.474225e+03,9.096012e+02
2.477117e+03,8.924645e+02
2.480010e+03,8.868936e+02
2.482903e+03,8.870201e+02
2.485795e+03,8.930663e+02
2.488688e+03,8.946865e+02
2.491581e+03,8.702834e+02
2.494474e+03,8.784746e+02
2.497366e+03,8.749915e+02
2.500259e+03,8.796644e+02
2.503152e+03,8.765642e+02
2.506044e+03,8.790727e+02
2.508937e+03,8.662743e+02
2.511830e+03,8.572350e+02
2.514722e+03,8.636472e+02
2.517615e+03,8.644547e+02
2.520508e+03,8.575593e+02
2.523401e+03,8.448687e+02
2.526293e+03,8.618096e+02
2.529186e+03,8.451965e+02
2.532079e+03,8.544202e+02
2.534971e+03,8.382408e+02
2.537864e+03,8.382576e+02
2.540757e+03,8.476150e+02
2.543649e+03,8.377410e+02
2.546542e+03,8.469642e+02
2.549435e+03,8.345738e+02
2.552328e+03,8.379843e+02
2.555220e+03,8.344831e+02
2.558113e+03,8.392535e+02
2.561006e+03,8.253178e+02
2.563898e+03,8.403580e+02
2.566791e+03,8.319427e+02
2.569684e+03,8.279911e+02
2.572576e+03,8.185827e+02
2.575469e+03,8.332719e+02
2.578362e+03,8.050349e+02
2.581255e+03,8.107535e+02
2.584147e+03,8.083786e+02
2.587040e+03,8.091607e+02
2.589933e+03,8.155635e+02
2.592825e+03,8.001151e+02
2.595718e+03,8.092372e+02
2.598611e+03,7.849824e+02
2.601503e+03,8.009363e+02
2.604396e+03,7.924283e+02
2.607289e+03,7.814646e+02
2.610182e+03,7.936335e+02
2.613074e+03,7.891006e+02
2.615967e+03,7.845117e+02
2.618860e+03,7.821700e+02
2.621752e+03,7.945360e+02
2.624645e+03,7.794025e+02
2.627538e+03,7.897599e+02
2.630430e+03,7.678127e+02
2.633323e+03,7.913014e+02
2.636216e+03,7.750855e+02
2.639109e+03,7.808926e+02
2.642001e+03,7.657692e+02
2.644894e+03,7.770433e+02
2.647787e+03,7.757913e+02
2.650679e+03,7.546212e+02
2.653572e+03,7.674320e+02
2.656465e+03,7.588944e+02
2.659357e+03,7.511472e+02
2.662250e+03,7.651082e+02
2.665143e+03,7.616003e+02
2.668036e+03,7.546279e+02
2.670928e+03,7.585522e+02
2.673821e+03,7.531686e+02
2.676714e+03,7.459540e+02
2.679606e+03,7.399808e+02
2.682499e+03,7.554167e+02
2.685392e+03,7.361686e+02
2.688284e+03,7.449122e+02
2.691177e+03,7.327289e+02
2.694070e+03,7.371063e+02
2.696963e+03,7.403182e+02
2.699855e+03,7.363454e+02
2.702748e+03,7.330448e+02
2.705641e+03,7.342458e+02
2.708533e+03,7.328057e+02
2.711426e+03,7.402143e+02
2.714319e+03,7.311424e+02
2.717211e+03,7.233107e+02
2.720104e+03,7.249901e+02
2.722997e+03,7.180227e+02
2.725890e+03,7.196719e+02
2.728782e+03,7.166829e+02
2.731675e+03,6.948555e+02
2.734568e+03,7.190890e+02
2.737460e+03,7.102282e+02
2.740353e+03,7.050779e+02
2.743246e+03,7.253266e+02
2.746138e+03,7.061823e+02
2.749031e+03,6.910197e+02
2.751924e+03,7.216452e+02
2.754817e+03,6.937866e+02
2.757709e+03,7.044007e+02
2.760602e+03,7.183309e+02
2.763495e+03,6.915266e+02
2.766387e+03,6.904901e+02
2.769280e+03,6.878633e+02
2.772173e+03,6.911277e+02
2.775065e+03,6.718986e+02
2.777958e+03,6.957225e+02
2.780851e+03,6.770096e+02
2.783744e+03,6.908297e+02
2.786636e+03,6.801459e+02
2.789529e+03,6.850986e+02
2.792422e+03,6.938709e+02
2.795314e+03,6.862207e+02
2.798207e+03,7.097952e+02
2.801100e+03,6.793854e+02
2.803992e+03,6.748685e+02
2.806885e+03,6.616106e+02
2.809778e+03,6.624337e+02
2.812671e+03,6.645627e+02
2.815563e+03,6.623250e+02
2.818456e+03,6.786324e+02
2.821349e+03,6.582301e+02
2.824241e+03,6.633047e+02
2.827134e+03,6.579199e+02
2.830027e+03,6.715204e+02
2.832919e+03,6.733777e+02
2.835812e+03,6.608510e+02
2.838705e+03,6.609363e+02
2.841598e+03,6.678661e+02
2.844490e+03,6.654625e+02
2.847383e+03,6.584167e+02
2.850276e+03,6.731205e+02
2.853168e+03,6.606730e+02
2.856061e+03,6.664241e+02
2.858954e+03,6.785519e+02
2.861846e+03,6.705276e+02
2.864739e+03,6.678495e+02
2.867632e+03,6.806404e+02
2.870525e+03,6.655270e+02
2.873417e+03,6.699499e+02
2.876310e+03,6.607591e+02
2.879203e+03,6.724628e+02
2.882095e+03,6.628568e+02
2.884988e+03,6.846539e+02
2.887881e+03,6.679778e+02
2.890773e+03,6.896910e+02
2.893666e+03,6.653807e+02
2.896559e+03,6.718307e+02
2.899452e+03,6.613180e+02
2.902344e+03,6.625781e+02
2.905237e+03,6.547149e+02
2.908130e+03,6.582969e+02
2.911022e+03,6.473937e+02
2.913915e+03,6.669987e+02
2.916808e+03,6.600980e+02
2.919700e+03,6.449534e+02
2.922593e+03,6.446096e+02
2.925486e+03,6.088582e+02
2.928379e+03,6.353380e+02
2.931271e+03,6.465519e+02
2.934164e+03,6.304435e+02
2.937057e+03,6.340948e+02
2.939949e+03,6.370780e+02
2.942842e+03,6.400286e+02
2.945735e+03,6.395023e+02
2.948627e+03,6.191812e+02
2.951520e+03,6.306110e+02
2.954413e+03,6.401671e+02
2.957306e+03,6.811558e+02
2.960198e+03,6.360586e+02
2.963091e+03,6.261530e+02
2.965984e+03,6.348399e+02
2.968876e+03,6.310643e+02
2.971769e+03,5.870256e+02
2.974662e+03,5.937037e+02
2.977554e+03,6.252836e+02
2.980447e+03,6.070526e+02
2.983340e+03,6.119907e+02
2.986233e+03,5.886119e+02
2.989125e+03,6.015880e+02
2.992018e+03,5.921780e+02
2.994911e+03,5.828106e+02
2.997803e+03,6.028654e+02
3.000696e+03,6.072764e+02
3.003589e+03,5.621948e+02
3.006481e+03,6.145768e+02
3.009374e+03,5.865471e+02
3.012267e+03,5.798593e+02
3.015160e+03,5.943487e+02
3.018052e+03,6.024932e+02
3.020945e+03,5.734181e+02
3.023838e+03,6.002719e+02
3.026730e+03,5.609078e+02
3.029623e+03,5.788264e+02
3.032516e+03,5.913588e+02
3.035408e+03,5.987179e+02
3.038301e+03,5.905256e+02
3.041194e+03,5.746006e+02
3.044087e+03,5.813771e+02
3.046979e+03,5.879875e+02
3.049872e+03,5.657507e+02
3.052765e+03,5.949630e+02
3.055657e+03,6.013848e+02
3.058550e+03,5.867604e+02
3.061443e+03,5.826173e+02
3.064335e+03,5.726871e+02
3.067228e+03,5.442285e+02
3.070121e+03,5.820382e+02
3.073014e+03,5.778552e+02
3.075906e+03,5.570711e+02
3.078799e+03,5.688299e+02
3.081692e+03,5.528094e+02
3.084584e+03,5.682947e+02
3.087477e+03,5.573917e+02
3.090370e+03,5.843685e+02
3.093262e+03,5.627872e+02
3.096155e+03,5.667414e+02
3.099048e+03,5.923568e+02
3.101941e+03,5.705515e+02
3.104833e+03,5.578257e+02
3.107726e+03,5.668945e+02
3.110619e+03,5.741246e+02
3.113511e+03,5.690179e+02
3.116404e+03,5.702474e+02
3.119297e+03,5.657764e+02
3.122189e+03,5.614752e+02
3.125082e+03,5.624371e+02
3.127975e+03,5.791865e+02
3.130868e+03,5.758506e+02
3.133760e+03,5.629952e+02
3.136653e+03,6.004004e+02
3.139546e+03,6.022725e+02
3.142438e+03,5.892574e+02
3.145331e+03,5.459188e+02
3.148224e+03,5.682692e+02
3.151116e+03,5.515468e+02
3.154009e+03,5.584477e+02
3.156902e+03,5.851326e+02
3.159795e+03,5.666387e+02
3.162687e+03,6.092292e+02
3.165580e+03,6.060711e+02
3.168473e+03,5.779075e+02
3.171365e+03,5.493509e+02
3.174258e+03,6.156403e+02
3.177151e+03,5.686699e+02
3.180043e+03,5.311037e+02
3.182936e+03,5.416761e+02
3.185829e+03,5.813007e+02
3.188722e+03,5.745682e+02
3.191614e+03,5.959075e+02
3.194507e+03,5.596913e+02
3.197400e+03,5.848011e+02
3.200292e+03,6.046061e+02
3.203185e+03,0.000000e+00
3.206078e+03,0.000000e+00
3.208970e+03,0.000000e+00
3.211863e+03,0.000000e+00
3.214756e+03,0.000000e+00
3.217649e+03,0.000000e+00
3.220541e+03,0.000000e+00
3.223434e+03,0.000000e+00
3.226327e+03,0.000000e+00
3.229219e+03,0.000000e+00
3.232112e+03,0.000000e+00
3.235005e+03,0.000000e+00
3.237897e+03,0.000000e+00
3.240790e+03,0.000000e+00
3.243683e+03,0.000000e+00
3.246576e+03,0.000000e+00
3.249468e+03,0.000000e+00
3.252361e+03,0.000000e+00
3.255254e+03,0.000000e+00
3.258146e+03,0.000000e+00
3.261039e+03,0.000000e+00
3.263932e+03,0.000000e+00
3.266824e+03,0.000000e+00
3.269717e+03,0.000000e+00
3.272610e+03,0.000000e+00
3.275503e+03,0.000000e+00
3.278395e+03,0.000000e+00
3.281288e+03,0.000000e+00
3.284181e+03,0.000000e+00
3.287073e+03,0.000000e+00
3.289966e+03,0.000000e+00
3.292859e+03,0.000000e+00
3.295751e+03,0.000000e+00
3.298644e+03,0.000000e+00
3.301537e+03,0.000000e+00
3.304430e+03,0.000000e+00
3.307322e+03,0.000000e+00
3.310215e+03,0.000000e+00
3.313108e+03,0.000000e+00
3.316000e+03,0.000000e+00
3.318893e+03,0.000000e+00
3.321786e+03,0.000000e+00
3.324678e+03,0.000000e+00
3.327571e+03,0.000000e+00
3.330464e+03,0.000000e+00
3.333357e+03,0.000000e+00
3.336249e+03,0.000000e+00
3.339142e+03,0.000000e+00
3.342035e+03,0.000000e+00
3.344927e+03,0.000000e+00
3.347820e+03,0.000000e+00
3.350713e+03,0.000000e+00
3.353605e+03,0.000000e+00
3.356498e+03,0.000000e+00
3.359391e+03,0.000000e+00
3.362284e+03,0.000000e+00
3.365176e+03,0.000000e+00
3.368069e+03,0.000000e+00
3.370962e+03,0.000000e+00
3.373854e+03,0.000000e+00
3.376747e+03,0.000000e+00
3.379640e+03,0.000000e+00
3.382532e+03,0.000000e+00
3.385425e+03,0.000000e+00
3.388318e+03,0.000000e+00
3.391211e+03,0.000000e+00
3.394103e+03,0.000000e+00
3.396996e+03,0.000000e+00
3.399889e+03,0.000000e+00
3.402781e+03,0.000000e+00
3.405674e+03,0.000000e+00
3.408567e+03,0.000000e+00
3.411459e+03,0.000000e+00
3.414352e+03,0.000000e+00
3.417245e+03,0.000000e+00
3.420138e+03,0.000000e+00
3.423030e+03,0.000000e+00
3.425923e+03,0.000000e+00
3.428816e+03,0.000000e+00
3.431708e+03,0.000000e+00
3.434601e+03,0.000000e+00
3.437494e+03,0.000000e+00
3.440386e+03,0.000000e+00
3.443279e+03,0.000000e+00
3.446172e+03,0.000000e+00
3.449065e+03,0.000000e+00
3.451957e+03,0.000000e+00
3.454850e+03,0.000000e+00
3.457743e+03,0.000000e+00
3.460635e+03,0.000000e+00
3.463528e+03,0.000000e+00
3.466421e+03,0.000000e+00
3.469313e+03,0.000000e+00
3.472206e+03,0.000000e+00
3.475099e+03,0.000000e+00
3.477992e+03,0.000000e+00
3.480884e+03,0.000000e+00
3.483777e+03,0.000000e+00
3.486670e+03,0.000000e+00
3.489563e+03,0.000000e+00
3.492455e+03,0.000000e+00
3.495348e+03,0.000000e+00
3.498240e+03,0.000000e+00
3.500169e+03,0.000000e+00