File: RAMAN_data/12022024_r2/black fibre2.CSV
9.931763e+01,0.000000e+00
1.022103e+02,0.000000e+00
1.051030e+02,0.000000e+00
1.079957e+02,0.000000e+00
1.108884e+02,0.000000e+00
1.137811e+02,0.000000e+00
1.166738e+02,0.000000e+00
1.195665e+02,0.000000e+00
1.224592e+02,0.000000e+00
1.253519e+02,0.000000e+00
1.282446e+02,0.000000e+00
1.311373e+02,0.000000e+00
1.340300e+02,0.000000e+00
1.369227e+02,0.000000e+00
1.398154e+02,0.000000e+00
1.427081e+02,0.000000e+00
1.456008e+02,0.000000e+00
1.484935e+02,0.000000e+00
1.513862e+02,0.000000e+00
1.542789e+02,0.000000e+00
1.571716e+02,0.000000e+00
1.600643e+02,0.000000e+00
1.629570e+02,0.000000e+00
1.658497e+02,0.000000e+00
1.687424e+02,0.000000e+00
1.716351e+02,0.000000e+00
1.745278e+02,0.000000e+00
1.774205e+02,0.000000e+00
1.803132e+02,0.000000e+00
1.832059e+02,0.000000e+00
1.860986e+02,0.000000e+00
1.889913e+02,0.000000e+00
1.918840e+02,0.000000e+00
1.947767e+02,0.000000e+00
1.976694e+02,0.000000e+00
2.005621e+02,1.955607e+03
2.034548e+02,1.959795e+03
2.063475e+02,1.966216e+03
2.092402e+02,1.971790e+03
2.121329e+02,1.959679e+03
2.150256e+02,1.964653e+03
2.179183e+02,1.967180e+03
2.208110e+02,1.971770e+03
2.237037e+02,1.964696e+03
2.265964e+02,1.959537e+03
2.294892e+02,1.961213e+03
2.323819e+02,1.969716e+03
2.352746e+02,1.970972e+03
2.381673e+02,1.973308e+03
2.410600e+02,1.961209e+03
2.439527e+02,1.956359e+03
2.468454e+02,1.954192e+03
2.497381e+02,1.959609e+03
2.526308e+02,1.960238e+03
2.555235e+02,1.967220e+03
2.584161e+02,1.952080e+03
2.613088e+02,1.953130e+03
2.642015e+02,1.954442e+03
2.670942e+02,1.955891e+03
2.699869e+02,1.956854e+03
2.728796e+02,1.956237e+03
2.757723e+02,1.953371e+03
2.786650e+02,1.958583e+03
2.815577e+02,1.964818e+03
2.844504e+02,1.954958e+03
2.873431e+02,1.961965e+03
2.902358e+02,1.952338e+03
2.931285e+02,1.954584e+03
2.960212e+02,1.953139e+03
2.989139e+02,1.953250e+03
3.018066e+02,1.964446e+03
3.046993e+02,1.948518e+03
3.075920e+02,1.948150e+03
3.104847e+02,1.950010e+03
3.133774e+02,1.948545e+03
3.162701e+02,1.956961e+03
3.191628e+02,1.949216e+03
3.220555e+02,1.932683e+03
3.249482e+02,1.935365e+03
3.278409e+02,1.941043e+03
3.307336e+02,1.943080e+03
3.336263e+02,1.941312e+03
3.365190e+02,1.929724e+03
3.394117e+02,1.934951e+03
3.423044e+02,1.951459e+03
3.451971e+02,1.938546e+03
3.480898e+02,1.940219e+03
3.509825e+02,1.931800e+03
3.538752e+02,1.937246e+03
3.567680e+02,1.927261e+03
3.596607e+02,1.927560e+03
3.625534e+02,1.941714e+03
3.654461e+02,1.927881e+03
3.683388e+02,1.931263e+03
3.712315e+02,1.929668e+03
3.741242e+02,1.910101e+03
3.770169e+02,1.947072e+03
3.799096e+02,1.933766e+03
3.828023e+02,1.925884e+03
3.856950e+02,1.923135e+03
3.885877e+02,1.927752e+03
3.914804e+02,1.920909e+03
3.943731e+02,1.918621e+03
3.972658e+02,1.919622e+03
4.001585e+02,1.908272e+03
4.030512e+02,1.920233e+03
4.059439e+02,1.913308e+03
4.088366e+02,1.919736e+03
4.117293e+02,1.908564e+03
4.146220e+02,1.902031e+03
4.175147e+02,1.906993e+03
4.204074e+02,1.908494e+03
4.233001e+02,1.913538e+03
4.261928e+02,1.907587e+03
4.290855e+02,1.906648e+03
4.319782e+02,1.910394e+03
4.348709e+02,1.901917e+03
4.377636e+02,1.898048e+03
4.406563e+02,1.898389e+03
4.435490e+02,1.902354e+03
4.464417e+02,1.901949e+03
4.493344e+02,1.879974e+03
4.522271e+02,1.887838e+03
4.551198e+02,1.896029e+03
4.580125e+02,1.888407e+03
4.609052e+02,1.893038e+03
4.637979e+02,1.890411e+03
4.666906e+02,1.888289e+03
4.695833e+02,1.892810e+03
4.724760e+02,1.898130e+03
4.753687e+02,1.888291e+03
4.782614e+02,1.881448e+03
4.811541e+02,1.893444e+03
4.840468e+02,1.883073e+03
4.869395e+02,1.882562e+03
4.898322e+02,1.882135e+03
4.927249e+02,1.880449e+03
4.956176e+02,1.872887e+03
4.985103e+02,1.893606e+03
5.014030e+02,1.876563e+03
5.042957e+02,1.883731e+03
5.071884e+02,1.883760e+03
5.100811e+02,1.882674e+03
5.129738e+02,1.881616e+03
5.158665e+02,1.869778e+03
5.187592e+02,1.883722e+03
5.216519e+02,1.873657e+03
5.245446e+02,1.877106e+03
5.274373e+02,1.885447e+03
5.303300e+02,1.888938e+03
5.332227e+02,1.869361e+03
5.361154e+02,1.853752e+03
5.390081e+02,1.864617e+03
5.419008e+02,1.861932e+03
5.447935e+02,1.877521e+03
5.476862e+02,1.869407e+03
5.505789e+02,1.858939e+03
5.534716e+02,1.845555e+03
5.563643e+02,1.853142e+03
5.592570e+02,1.852772e+03
5.621497e+02,1.861651e+03
5.650424e+02,1.868439e+03
5.679351e+02,1.854106e+03
5.708278e+02,1.854557e+03
5.737205e+02,1.857260e+03
5.766132e+02,1.856313e+03
5.795059e+02,1.853737e+03
5.823986e+02,1.863436e+03
5.852913e+02,1.863677e+03
5.881840e+02,1.855269e+03
5.910767e+02,1.859008e+03
5.939694e+02,1.860330e+03
5.968621e+02,1.848873e+03
5.997548e+02,1.845044e+03
6.026475e+02,1.854354e+03
6.055402e+02,1.859178e+03
6.084329e+02,1.838655e+03
6.113256e+02,1.838114e+03
6.142183e+02,1.839072e+03
6.171110e+02,1.834531e+03
6.200037e+02,1.821552e+03
6.228964e+02,1.828135e+03
6.257891e+02,1.842565e+03
6.286818e+02,1.830693e+03
6.315745e+02,1.833884e+03
6.344672e+02,1.832626e+03
6.373599e+02,1.820469e+03
6.402526e+02,1.822413e+03
6.431453e+02,1.815326e+03
6.460380e+02,1.801845e+03
6.489307e+02,1.817575e+03
6.518234e+02,1.809512e+03
6.547161e+02,1.812123e+03
6.576088e+02,1.809910e+03
6.605015e+02,1.820487e+03
6.633942e+02,1.800038e+03
6.662869e+02,1.810395e+03
6.691796e+02,1.807531e+03
6.720723e+02,1.806103e+03
6.749650e+02,1.795496e+03
6.778577e+02,1.802258e+03
6.807504e+02,1.796943e+03
6.836431e+02,1.792861e+03
6.865358e+02,1.794171e+03
6.894285e+02,1.780759e+03
6.923212e+02,1.799653e+03
6.952139e+02,1.778498e+03
6.981066e+02,1.783430e+03
7.009993e+02,1.799984e+03
7.038920e+02,1.789511e+03
7.067847e+02,1.775983e+03
7.096774e+02,1.767324e+03
7.125701e+02,1.777722e+03
7.154628e+02,1.782521e+03
7.183555e+02,1.777957e+03
7.212482e+02,1.770880e+03
7.241409e+02,1.772822e+03
7.270336e+02,1.766887e+03
7.299263e+02,1.756790e+03
7.328190e+02,1.765692e+03
7.357117e+02,1.768290e+03
7.386044e+02,1.764735e+03
7.414971e+02,1.763518e+03
7.443898e+02,1.754492e+03
7.472825e+02,1.758003e+03
7.501752e+02,1.766748e+03
7.530679e+02,1.744547e+03
7.559606e+02,1.742452e+03
7.588533e+02,1.757668e+03
7.617460e+02,1.753881e+03
7.646387e+02,1.759493e+03
7.675314e+02,1.753113e+03
7.704241e+02,1.743582e+03
7.733168e+02,1.741236e+03
7.762095e+02,1.744772e+03
7.791022e+02,1.743556e+03
7.819949e+02,1.731863e+03
7.848876e+02,1.731790e+03
7.877803e+02,1.744578e+03
7.906730e+02,1.738133e+03
7.935657e+02,1.730464e+03
7.964584e+02,1.732758e+03
7.993511e+02,1.718869e+03
8.022438e+02,1.724986e+03
8.051365e+02,1.725788e+03
8.080292e+02,1.732642e+03
8.109219e+02,1.746583e+03
8.138146e+02,1.732998e+03
8.167073e+02,1.716823e+03
8.196000e+02,1.724849e+03
8.224927e+02,1.720415e+03
8.253854e+02,1.711058e+03
8.282781e+02,1.713385e+03
8.311708e+02,1.714383e+03
8.340635e+02,1.712935e+03
8.369562e+02,1.716994e+03
8.398489e+02,1.720761e+03
8.427416e+02,1.733146e+03
8.456343e+02,1.721570e+03
8.485270e+02,1.722556e+03
8.514197e+02,1.704389e+03
8.543124e+02,1.710477e+03
8.572051e+02,1.707414e+03
8.600978e+02,1.710864e+03
8.629905e+02,1.694112e+03
8.658832e+02,1.697353e+03
8.687759e+02,1.694242e+03
8.716686e+02,1.704490e+03
8.745613e+02,1.693744e+03
8.774540e+02,1.692358e+03
8.803467e+02,1.699249e+03
8.832394e+02,1.695685e+03
8.861321e+02,1.699356e+03
8.890248e+02,1.693352e+03
8.919175e+02,1.686921e+03
8.948102e+02,1.679468e+03
8.977029e+02,1.670673e+03
9.005956e+02,1.684075e+03
9.034883e+02,1.684542e+03
9.063810e+02,1.670453e+03
9.092737e+02,1.660632e+03
9.121664e+02,1.663369e+03
9.150591e+02,1.678846e+03
9.179518e+02,1.665633e+03
9.208445e+02,1.656841e+03
9.237372e+02,1.663272e+03
9.266299e+02,1.652654e+03
9.295226e+02,1.661283e+03
9.324153e+02,1.663733e+03
9.353080e+02,1.667167e+03
9.382007e+02,1.644832e+03
9.410934e+02,1.658626e+03
9.439861e+02,1.649312e+03
9.468788e+02,1.636131e+03
9.497715e+02,1.648248e+03
9.526642e+02,1.648919e+03
9.555569e+02,1.647816e+03
9.584496e+02,1.639390e+03
9.613423e+02,1.649350e+03
9.642350e+02,1.656123e+03
9.671277e+02,1.650656e+03
9.700204e+02,1.633609e+03
9.729131e+02,1.630662e+03
9.758058e+02,1.626335e+03
9.786985e+02,1.638108e+03
9.815912e+02,1.644963e+03
9.844839e+02,1.624355e+03
9.873766e+02,1.628336e+03
9.902693e+02,1.624649e+03
9.931620e+02,1.621933e+03
9.960547e+02,1.615024e+03
9.989474e+02,1.616986e+03
1.001840e+03,1.621025e+03
1.004733e+03,1.613822e+03
1.007626e+03,1.622720e+03
1.010518e+03,1.617343e+03
1.013411e+03,1.609264e+03
1.016304e+03,1.611732e+03
1.019196e+03,1.608386e+03
1.022089e+03,1.604177e+03
1.024982e+03,1.604621e+03
1.027875e+03,1.610580e+03
1.030767e+03,1.607350e+03
1.033660e+03,1.601677e+03
1.036552e+03,1.592267e+03
1.039445e+03,1.598480e+03
1.042338e+03,1.591855e+03
1.045231e+03,1.594560e+03
1.048123e+03,1.592389e+03
1.051016e+03,1.596038e+03
1.053909e+03,1.603760e+03
1.056802e+03,1.591297e+03
1.059694e+03,1.586439e+03
1.062587e+03,1.592810e+03
1.065479e+03,1.589025e+03
1.068372e+03,1.587286e+03
1.071265e+03,1.588351e+03
1.074158e+03,1.577640e+03
1.077050e+03,1.588575e+03
1.079943e+03,1.582383e+03
1.082836e+03,1.589662e+03
1.085729e+03,1.574718e+03
1.088621e+03,1.587430e+03
1.091514e+03,1.573099e+03
1.094406e+03,1.560153e+03
1.097299e+03,1.575465e+03
1.100192e+03,1.566589e+03
1.103085e+03,1.570030e+03
1.105977e+03,1.570097e+03
1.108870e+03,1.577602e+03
1.111763e+03,1.551971e+03
1.114656e+03,1.554650e+03
1.117548e+03,1.557578e+03
1.120441e+03,1.572879e+03
1.123334e+03,1.571690e+03
1.126226e+03,1.556332e+03
1.129119e+03,1.554093e+03
1.132012e+03,1.557519e+03
1.134904e+03,1.556267e+03
1.137797e+03,1.557513e+03
1.140690e+03,1.558936e+03
1.143583e+03,1.564549e+03
1.146475e+03,1.568087e+03
1.149368e+03,1.569718e+03
1.152261e+03,1.555505e+03
1.155153e+03,1.544462e+03
1.158046e+03,1.536907e+03
1.160939e+03,1.545836e+03
1.163831e+03,1.558943e+03
1.166724e+03,1.546528e+03
1.169617e+03,1.537201e+03
1.172510e+03,1.551165e+03
1.175402e+03,1.540382e+03
1.178295e+03,1.544801e+03
1.181188e+03,1.550234e+03
1.184080e+03,1.531968e+03
1.186973e+03,1.530124e+03
1.189866e+03,1.544267e+03
1.192758e+03,1.536480e+03
1.195651e+03,1.536629e+03
1.198544e+03,1.533307e+03
1.201437e+03,1.522672e+03
1.204329e+03,1.524920e+03
1.207222e+03,1.534486e+03
1.210115e+03,1.536752e+03
1.213007e+03,1.536224e+03
1.215900e+03,1.524425e+03
1.218793e+03,1.531260e+03
1.221685e+03,1.521000e+03
1.224578e+03,1.518192e+03
1.227471e+03,1.531126e+03
1.230364e+03,1.531985e+03
1.233256e+03,1.518063e+03
1.236149e+03,1.528279e+03
1.239042e+03,1.522049e+03
1.241934e+03,1.516638e+03
1.244827e+03,1.523082e+03
1.247720e+03,1.513530e+03
1.250612e+03,1.526643e+03
1.253505e+03,1.512766e+03
1.256398e+03,1.515787e+03
1.259291e+03,1.522370e+03
1.262183e+03,1.521920e+03
1.265076e+03,1.512293e+03
1.267969e+03,1.515482e+03
1.270861e+03,1.522762e+03
1.273754e+03,1.527250e+03
1.276647e+03,1.529205e+03
1.279539e+03,1.523938e+03
1.282432e+03,1.526127e+03
1.285325e+03,1.522018e+03
1.288218e+03,1.516935e+03
1.291110e+03,1.532165e+03
1.294003e+03,1.523899e+03
1.296896e+03,1.522865e+03
1.299788e+03,1.521534e+03
1.302681e+03,1.526312e+03
1.305574e+03,1.538591e+03
1.308466e+03,1.543984e+03
1.311359e+03,1.559219e+03
1.314252e+03,1.571758e+03
1.317145e+03,1.585377e+03
1.320037e+03,1.611122e+03
1.322930e+03,1.603432e+03
1.325823e+03,1.595850e+03
1.328715e+03,1.577997e+03
1.331608e+03,1.579978e+03
1.334501e+03,1.564510e+03
1.337393e+03,1.544780e+03
1.340286e+03,1.548769e+03
1.343179e+03,1.542403e+03
1.346072e+03,1.548863e+03
1.348964e+03,1.551285e+03
1.351857e+03,1.549357e+03
1.354750e+03,1.564920e+03
1.357642e+03,1.536742e+03
1.360535e+03,1.521443e+03
1.363428e+03,1.514766e+03
1.366320e+03,1.491055e+03
1.369213e+03,1.475969e+03
1.372106e+03,1.477759e+03
1.374999e+03,1.466915e+03
1.377891e+03,1.471937e+03
1.380784e+03,1.464896e+03
1.383677e+03,1.469528e+03
1.386569e+03,1.474215e+03
1.389462e+03,1.469505e+03
1.392355e+03,1.461840e+03
1.395247e+03,1.467118e+03
1.398140e+03,1.457340e+03
1.401033e+03,1.451138e+03
1.403926e+03,1.448029e+03
1.406818e+03,1.445360e+03
1.409711e+03,1.445976e+03
1.412604e+03,1.438845e+03
1.415496e+03,1.447626e+03
1.418389e+03,1.439512e+03
1.421282e+03,1.430972e+03
1.424174e+03,1.438780e+03
1.427067e+03,1.432040e+03
1.429960e+03,1.434997e+03
1.432853e+03,1.428776e+03
1.435745e+03,1.433380e+03
1.438638e+03,1.419901e+03
1.441531e+03,1.425581e+03
1.444423e+03,1.429694e+03
1.447316e+03,1.409998e+03
1.450209e+03,1.415704e+03
1.453101e+03,1.411413e+03
1.455994e+03,1.414251e+03
1.458887e+03,1.413931e+03
1.461780e+03,1.403513e+03
1.464672e+03,1.405032e+03
1.467565e+03,1.406348e+03
1.470458e+03,1.401944e+03
1.473350e+03,1.408273e+03
1.476243e+03,1.398380e+03
1.479136e+03,1.395343e+03
1.482028e+03,1.383738e+03
1.484921e+03,1.400668e+03
1.487814e+03,1.385415e+03
1.490707e+03,1.396674e+03
1.493599e+03,1.391806e+03
1.496492e+03,1.386933e+03
1.499385e+03,1.385765e+03
1.502277e+03,1.376151e+03
1.505170e+03,1.378902e+03
1.508063e+03,1.381100e+03
1.510955e+03,1.362870e+03
1.513848e+03,1.370002e+03
1.516741e+03,1.367007e+03
1.519634e+03,1.363362e+03
1.522526e+03,1.363948e+03
1.525419e+03,1.363334e+03
1.528312e+03,1.363424e+03
1.531204e+03,1.351720e+03
1.534097e+03,1.357180e+03
1.536990e+03,1.362875e+03
1.539882e+03,1.359906e+03
1.542775e+03,1.356163e+03
1.545668e+03,1.361032e+03
1.548561e+03,1.364587e+03
1.551453e+03,1.363897e+03
1.554346e+03,1.359587e+03
1.557239e+03,1.361177e+03
1.560131e+03,1.347325e+03
1.563024e+03,1.356123e+03
1.565917e+03,1.354002e+03
1.568809e+03,1.358089e+03
1.571702e+03,1.354368e+03
1.574595e+03,1.352038e+03
1.577488e+03,1.354762e+03
1.580380e+03,1.357862e+03
1.583273e+03,1.354831e+03
1.586166e+03,1.360928e+03
1.589058e+03,1.353858e+03
1.591951e+03,1.357409e+03
1.594844e+03,1.366350e+03
1.597736e+03,1.350328e+03
1.600629e+03,1.358897e+03
1.603522e+03,1.354502e+03
1.606415e+03,1.339615e+03
1.609307e+03,1.347891e+03
1.612200e+03,1.342686e+03
1.615093e+03,1.323400e+03
1.617985e+03,1.331666e+03
1.620878e+03,1.322066e+03
1.623771e+03,1.318362e+03
1.626663e+03,1.310155e+03
1.629556e+03,1.316563e+03
1.632449e+03,1.314077e+03
1.635342e+03,1.297457e+03
1.638234e+03,1.309374e+03
1.641127e+03,1.302786e+03
1.644020e+03,1.296530e+03
1.646912e+03,1.294371e+03
1.649805e+03,1.294450e+03
1.652698e+03,1.280957e+03
1.655590e+03,1.289961e+03
1.658483e+03,1.279834e+03
1.661376e+03,1.275630e+03
1.664269e+03,1.277035e+03
1.667161e+03,1.279149e+03
1.670054e+03,1.274366e+03
1.672947e+03,1.266485e+03
1.675839e+03,1.258979e+03
1.678732e+03,1.261469e+03
1.681625e+03,1.260605e+03
1.684517e+03,1.272738e+03
1.687410e+03,1.260302e+03
1.690303e+03,1.258078e+03
1.693196e+03,1.251630e+03
1.696088e+03,1.244533e+03
1.698981e+03,1.243552e+03
1.701874e+03,1.256380e+03
1.704766e+03,1.238457e+03
1.707659e+03,1.248479e+03
1.710552e+03,1.237184e+03
1.713444e+03,1.232036e+03
1.716337e+03,1.243740e+03
1.719230e+03,1.241432e+03
1.722123e+03,1.222691e+03
1.725015e+03,1.226780e+03
1.727908e+03,1.220346e+03
1.730801e+03,1.230451e+03
1.733693e+03,1.216991e+03
1.736586e+03,1.230525e+03
1.739479e+03,1.213522e+03
1.742371e+03,1.225842e+03
1.745264e+03,1.210420e+03
1.748157e+03,1.214687e+03
1.751050e+03,1.213836e+03
1.753942e+03,1.209082e+03
1.756835e+03,1.219409e+03
1.759728e+03,1.217037e+03
1.762620e+03,1.211093e+03
1.765513e+03,1.216642e+03
1.768406e+03,1.214113e+03
1.771298e+03,1.214292e+03
1.774191e+03,1.209379e+03
1.777084e+03,1.202930e+03
1.779977e+03,1.199240e+03
1.782869e+03,1.195945e+03
1.785762e+03,1.199840e+03
1.788655e+03,1.197113e+03
1.791547e+03,1.202576e+03
1.794440e+03,1.195193e+03
1.797333e+03,1.178368e+03
1.800225e+03,1.182865e+03
1.803118e+03,1.192238e+03
1.806011e+03,1.166736e+03
1.808904e+03,1.199647e+03
1.811796e+03,1.181081e+03
1.814689e+03,1.178991e+03
1.817582e+03,1.183660e+03
1.820474e+03,1.177660e+03
1.823367e+03,1.169684e+03
1.826260e+03,1.178244e+03
1.829152e+03,1.166542e+03
1.832045e+03,1.170279e+03
1.834938e+03,1.166554e+03
1.837831e+03,1.152485e+03
1.840723e+03,1.153291e+03
1.843616e+03,1.180201e+03
1.846509e+03,1.168039e+03
1.849401e+03,1.151592e+03
1.852294e+03,1.150242e+03
1.855187e+03,1.162498e+03
1.858079e+03,1.156255e+03
1.860972e+03,1.147498e+03
1.863865e+03,1.155727e+03
1.866758e+03,1.135867e+03
1.869650e+03,1.148950e+03
1.872543e+03,1.147953e+03
1.875436e+03,1.157229e+03
1.878328e+03,1.144827e+03
1.881221e+03,1.146009e+03
1.884114e+03,1.138161e+03
1.887006e+03,1.123911e+03
1.889899e+03,1.124836e+03
1.892792e+03,1.136545e+03
1.895685e+03,1.135034e+03
1.898577e+03,1.127079e+03
1.901470e+03,1.126824e+03
1.904363e+03,1.123302e+03
1.907255e+03,1.127767e+03
1.910148e+03,1.116380e+03
1.913041e+03,1.118961e+03
1.915933e+03,1.125051e+03
1.918826e+03,1.115468e+03
1.921719e+03,1.103972e+03
1.924612e+03,1.105315e+03
1.927504e+03,1.112072e+03
1.930397e+03,1.116909e+03
1.933290e+03,1.101828e+03
1.936182e+03,1.106089e+03
1.939075e+03,1.102246e+03
1.941968e+03,1.106379e+03
1.944860e+03,1.097873e+03
1.947753e+03,1.083624e+03
1.950646e+03,1.089162e+03
1.953539e+03,1.079117e+03
1.956431e+03,1.086971e+03
1.959324e+03,1.084025e+03
1.962217e+03,1.081239e+03
1.965109e+03,1.080122e+03
1.968002e+03,1.084035e+03
1.970895e+03,1.086378e+03
1.973787e+03,1.090733e+03
1.976680e+03,1.060669e+03
1.979573e+03,1.066879e+03
1.982466e+03,1.071936e+03
1.985358e+03,1.063879e+03
1.988251e+03,1.064994e+03
1.991144e+03,1.068241e+03
1.994036e+03,1.060975e+03
1.996929e+03,1.059165e+03
1.999822e+03,1.070484e+03
2.002714e+03,1.058721e+03
2.005607e+03,1.059726e+03
2.008500e+03,1.053737e+03
2.011393e+03,1.063947e+03
2.014285e+03,1.045596e+03
2.017178e+03,1.050874e+03
2.020071e+03,1.040598e+03
2.022963e+03,1.047443e+03
2.025856e+03,1.035198e+03
2.028749e+03,1.041206e+03
2.031641e+03,1.048602e+03
2.034534e+03,1.017335e+03
2.037427e+03,1.036981e+03
2.040320e+03,1.023412e+03
2.043212e+03,1.028372e+03
2.046105e+03,1.030396e+03
2.048998e+03,1.031611e+03
2.051890e+03,1.022904e+03
2.054783e+03,1.012564e+03
2.057676e+03,1.014074e+03
2.060568e+03,1.009990e+03
2.063461e+03,1.009244e+03
2.066354e+03,1.015575e+03
2.069247e+03,1.011310e+03
2.072139e+03,9.947605e+02
2.075032e+03,1.005885e+03
2.077925e+03,1.015612e+03
2.080817e+03,1.000605e+03
2.083710e+03,9.943084e+02
2.086603e+03,9.889183e+02
2.089496e+03,9.995558e+02
2.092388e+03,9.843008e+02
2.095281e+03,9.971117e+02
2.098174e+03,1.003795e+03
2.101066e+03,9.953368e+02
2.103959e+03,9.908562e+02
2.106852e+03,9.803503e+02
2.109744e+03,9.792012e+02
2.112637e+03,9.761536e+02
2.115530e+03,9.781154e+02
2.118422e+03,9.724520e+02
2.121315e+03,9.768888e+02
2.124208e+03,9.747830e+02
2.127101e+03,9.749979e+02
2.129993e+03,9.407351e+02
2.132886e+03,9.561216e+02
2.135779e+03,9.617849e+02
2.138671e+03,9.687928e+02
2.141564e+03,9.680869e+02
2.144457e+03,9.656017e+02
2.147350e+03,9.478922e+02
2.150242e+03,9.565797e+02
2.153135e+03,9.587579e+02
2.156028e+03,9.446689e+02
2.158920e+03,9.481954e+02
2.161813e+03,9.483978e+02
2.164706e+03,9.457669e+02
2.167598e+03,9.355385e+02
2.170491e+03,9.354825e+02
2.173384e+03,9.444776e+02
2.176277e+03,9.274643e+02
2.179169e+03,9.203195e+02
2.182062e+03,9.147822e+02
2.184955e+03,9.263703e+02
2.187847e+03,9.209225e+02
2.190740e+03,9.179108e+02
2.193633e+03,9.172731e+02
2.196525e+03,9.273396e+02
2.199418e+03,9.032705e+02
2.202311e+03,9.131670e+02
2.205204e+03,9.120639e+02
2.208096e+03,9.160568e+02
2.210989e+03,9.001808e+02
2.213882e+03,9.045839e+02
2.216774e+03,8.960668e+02
2.219667e+03,9.088371e+02
2.222560e+03,9.038066e+02
2.225452e+03,8.903063e+02
2.228345e+03,8.911411e+02
2.231238e+03,8.951267e+02
2.234131e+03,9.069261e+02
2.237023e+03,8.976126e+02
2.239916e+03,8.786879e+02
2.242809e+03,8.782336e+02
2.245701e+03,8.734023e+02
2.248594e+03,8.887382e+02
2.251487e+03,8.831477e+02
2.254379e+03,8.731159e+02
2.257272e+03,8.631895e+02
2.260165e+03,8.716373e+02
2.263058e+03,8.840014e+02
2.265950e+03,8.701854e+02
2.268843e+03,8.640329e+02
2.271736e+03,8.506310e+02
2.274628e+03,8.631194e+02
2.277521e+03,8.650087e+02
2.280414e+03,8.521578e+02
2.283306e+03,8.451810e+02
2.286199e+03,8.448936e+02
2.289092e+03,8.624576e+02
2.291985e+03,8.399163e+02
2.294877e+03,8.390354e+02
2.297770e+03,8.559174e+02
2.300663e+03,8.452565e+02
2.303555e+03,8.404932e+02
2.306448e+03,8.256786e+02
2.309341e+03,8.525553e+02
2.312233e+03,8.435045e+02
2.315126e+03,8.367219e+02
2.318019e+03,8.257986e+02
2.320912e+03,8.351598e+02
2.323804e+03,8.192296e+02
2.326697e+03,8.315310e+02
2.329590e+03,8.235072e+02
2.332482e+03,8.155226e+02
2.335375e+03,8.104528e+02
2.338268e+03,8.103847e+02
2.341160e+03,8.185759e+02
2.344053e+03,8.216578e+02
2.346946e+03,8.192385e+02
2.349839e+03,8.042557e+02
2.352731e+03,8.130306e+02
2.355624e+03,8.034425e+02
2.358517e+03,8.085735e+02
2.361409e+03,8.135286e+02
2.364302e+03,8.023372e+02
2.367195e+03,7.828992e+02
2.370087e+03,8.131223e+02
2.372980e+03,8.037625e+02
2.375873e+03,7.930878e+02
2.378766e+03,7.878876e+02
2.381658e+03,7.861000e+02
2.384551e+03,7.878130e+02
2.387444e+03,7.872888e+02
2.390336e+03,7.889161e+02
2.393229e+03,7.750115e+02
2.396122e+03,7.845703e+02
2.399014e+03,7.741725e+02
2.401907e+03,7.787657e+02
2.404800e+03,7.708046e+02
2.407693e+03,7.730330e+02
2.410585e+03,7.871209e+02
2.413478e+03,7.780107e+02
2.416371e+03,7.739625e+02
2.419263e+03,7.648495e+02
2.422156e+03,7.739924e+02
2.425049e+03,7.626263e+02
2.427941e+03,7.697461e+02
2.430834e+03,7.591006e+02
2.433727e+03,7.651761e+02
2.436620e+03,7.640527e+02
2.439512e+03,7.634695e+02
2.442405e+03,7.536729e+02
2.445298e+03,7.374982e+02
2.448190e+03,7.525273e+02
2.451083e+03,7.468820e+02
2.453976e+03,7.566546e+02
2.456868e+03,7.517036e+02
2.459761e+03,7.415165e+02
2.462654e+03,7.500717e+02
2.465547e+03,7.296165e+02
2.468439e+03,7.342381e+02
2.471332e+03,7.408629e+02
2.474225e+03,7.468445e+02
2.477117e+03,7.302781e+02
2.480010e+03,7.391884e+02
2.482903e+03,7.388334e+02
2.485795e+03,7.330513e+02
2.488688e+03,7.357994e+02
2.491581e+03,7.257396e+02
2.494474e+03,7.249291e+02
2.497366e+03,7.383474e+02
2.500259e+03,7.325564e+02
2.503152e+03,7.224452e+02
2.506044e+03,7.307939e+02
2.508937e+03,7.152568e+02
2.511830e+03,7.256536e+02
2.514722e+03,7.218197e+02
2.517615e+03,7.146689e+02
2.520508e+03,7.273363e+02
2.523401e+03,7.157122e+02
2.526293e+03,7.088536e+02
2.529186e+03,7.136210e+02
2.532079e+03,7.220618e+02
2.534971e+03,7.092152e+02
2.537864e+03,6.932959e+02
2.540757e+03,7.096104e+02
2.543649e+03,7.182536e+02
2.546542e+03,7.164876e+02
2.549435e+03,7.087278e+02
2.552328e+03,7.067470e+02
2.555220e+03,7.072018e+02
2.558113e+03,7.153742e+02
2.561006e+03,7.103206e+02
2.563898e+03,7.181463e+02
2.566791e+03,7.007418e+02
2.569684e+03,7.144885e+02
2.572576e+03,7.021729e+02
2.575469e+03,7.136252e+02
2.578362e+03,6.916996e+02
2.581255e+03,6.829809e+02
2.584147e+03,6.891555e+02
2.587040e+03,6.891412e+02
2.589933e+03,6.911599e+02
2.592825e+03,6.880400e+02
2.595718e+03,6.765892e+02
2.598611e+03,6.827803e+02
2.601503e+03,6.817434e+02
2.604396e+03,6.671060e+02
2.607289e+03,6.873614e+02
2.610182e+03,6.903322e+02
2.613074e+03,6.805079e+02
2.615967e+03,6.674974e+02
2.618860e+03,6.792022e+02
2.621752e+03,6.774830e+02
2.624645e+03,6.723430e+02
2.627538e+03,6.698386e+02
2.630430e+03,6.663845e+02
2.633323e+03,6.665422e+02
2.636216e+03,6.678781e+02
2.639109e+03,6.665919e+02
2.642001e+03,6.704148e+02
2.644894e+03,6.629811e+02
2.647787e+03,6.560526e+02
2.650679e+03,6.631412e+02
2.653572e+03,6.459642e+02
2.656465e+03,6.744050e+02
2.659357e+03,6.622363e+02
2.662250e+03,6.516302e+02
2.665143e+03,6.737761e+02
2.668036e+03,6.635739e+02
2.670928e+03,6.607842e+02
2.673821e+03,6.476428e+02
2.676714e+03,6.571924e+02
2.679606e+03,6.536263e+02
2.682499e+03,6.529800e+02
2.685392e+03,6.470203e+02
2.688284e+03,6.550421e+02
2.691177e+03,6.575754e+02
2.694070e+03,6.385100e+02
2.696963e+03,6.506360e+02
2.699855e+03,6.484819e+02
2.702748e+03,6.570179e+02
2.705641e+03,6.339247e+02
2.708533e+03,6.511609e+02
2.711426e+03,6.223516e+02
2.714319e+03,6.506902e+02
2.717211e+03,6.554160e+02
2.720104e+03,6.523132e+02
2.722997e+03,6.386908e+02
2.725890e+03,6.350657e+02
2.728782e+03,6.361467e+02
2.731675e+03,6.233831e+02
2.734568e+03,6.329537e+02
2.737460e+03,6.360305e+02
2.740353e+03,6.410071e+02
2.743246e+03,6.175135e+02
2.746138e+03,6.335035e+02
2.749031e+03,6.267029e+02
2.751924e+03,6.139620e+02
2.754817e+03,6.341332e+02
2.757709e+03,6.311901e+02
2.760602e+03,6.298569e+02
2.763495e+03,6.226338e+02
2.766387e+03,6.395029e+02
2.769280e+03,6.169904e+02
2.772173e+03,6.253976e+02
2.775065e+03,6.167189e+02
2.777958e+03,6.122031e+02
2.780851e+03,6.111754e+02
2.783744e+03,6.268799e+02
2.786636e+03,6.112495e+02
2.789529e+03,6.186578e+02
2.792422e+03,6.225683e+02
2.795314e+03,6.094346e+02
2.798207e+03,6.206677e+02
2.801100e+03,6.017086e+02
2.803992e+03,5.985875e+02
2.806885e+03,5.985283e+02
2.809778e+03,6.102597e+02
2.812671e+03,6.181763e+02
2.815563e+03,6.002841e+02
2.818456e+03,6.058280e+02
2.821349e+03,6.361091e+02
2.824241e+03,6.152762e+02
2.827134e+03,6.040912e+02
2.830027e+03,5.952554e+02
2.832919e+03,6.173772e+02
2.835812e+03,6.237733e+02
2.838705e+03,5.987300e+02
2.841598e+03,6.097404e+02
2.844490e+03,6.160294e+02
2.847383e+03,6.120355e+02
2.850276e+03,6.090158e+02
2.853168e+03,6.071755e+02
2.856061e+03,6.178073e+02
2.858954e+03,6.052825e+02
2.861846e+03,5.940114e+02
2.864739e+03,6.115421e+02
2.867632e+03,6.132939e+02
2.870525e+03,6.197252e+02
2.873417e+03,5.941967e+02
2.876310e+03,6.082930e+02
2.879203e+03,6.153229e+02
2.882095e+03,5.878306e+02
2.884988e+03,6.092758e+02
2.887881e+03,5.866190e+02
2.890773e+03,5.873494e+02
2.893666e+03,6.028757e+02
2.896559e+03,6.134356e+02
2.899452e+03,6.037831e+02
2.902344e+03,6.136481e+02
2.905237e+03,5.692804e+02
2.908130e+03,5.937986e+02
2.911022e+03,5.940872e+02
2.913915e+03,5.885363e+02
2.916808e+03,6.073265e+02
2.919700e+03,5.799686e+02
2.922593e+03,5.937748e+02
2.925486e+03,5.957972e+02
2.928379e+03,5.840560e+02
2.931271e+03,5.967016e+02
2.934164e+03,6.099318e+02
2.937057e+03,5.767540e+02
2.939949e+03,5.931930e+02
2.942842e+03,5.672226e+02
2.945735e+03,5.870539e+02
2.948627e+03,5.834410e+02
2.951520e+03,5.957675e+02
2.954413e+03,5.815578e+02
2.957306e+03,6.213712e+02
2.960198e+03,5.818529e+02
2.963091e+03,5.924747e+02
2.965984e+03,5.843932e+02
2.968876e+03,5.863824e+02
2.971769e+03,5.688568e+02
2.974662e+03,5.683944e+02
2.977554e+03,5.815193e+02
2.980447e+03,5.642495e+02
2.983340e+03,5.693781e+02
2.986233e+03,5.583503e+02
2.989125e+03,5.514764e+02
2.992018e+03,5.700040e+02
2.994911e+03,5.791357e+02
2.997803e+03,5.573381e+02
3.000696e+03,5.617083e+02
3.003589e+03,5.712299e+02
3.006481e+03,5.748049e+02
3.009374e+03,5.662466e+02
3.012267e+03,5.761105e+02
3.015160e+03,5.433281e+02
3.018052e+03,5.621232e+02
3.020945e+03,5.573030e+02
3.023838e+03,5.228755e+02
3.026730e+03,5.602129e+02
3.029623e+03,5.414925e+02
3.032516e+03,5.483445e+02
3.035408e+03,5.389554e+02
3.038301e+03,5.575485e+02
3.041194e+03,5.713193e+02
3.044087e+03,5.616952e+02
3.046979e+03,5.538577e+02
3.049872e+03,5.360374e+02
3.052765e+03,5.485500e+02
3.055657e+03,5.569359e+02
3.058550e+03,5.500569e+02
3.061443e+03,5.247907e+02
3.064335e+03,5.272339e+02
3.067228e+03,5.251765e+02
3.070121e+03,5.365502e+02
3.073014e+03,5.379279e+02
3.075906e+03,5.510717e+02
3.078799e+03,5.645441e+02
3.081692e+03,5.376811e+02
3.084584e+03,5.368619e+02
3.087477e+03,5.612388e+02
3.090370e+03,5.517782e+02
3.093262e+03,5.277015e+02
3.096155e+03,5.294744e+02
3.099048e+03,5.410327e+02
3.101941e+03,5.490559e+02
3.104833e+03,5.430046e+02
3.107726e+03,5.503875e+02
3.110619e+03,5.151459e+02
3.113511e+03,5.415984e+02
3.116404e+03,5.445031e+02
3.119297e+03,5.343903e+02
3.122189e+03,5.285641e+02
3.125082e+03,5.371186e+02
3.127975e+03,5.649550e+02
3.130868e+03,5.349547e+02
3.133760e+03,5.859625e+02
3.136653e+03,5.360911e+02
3.139546e+03,5.591114e+02
3.142438e+03,5.423779e+02
3.145331e+03,5.026480e+02
3.148224e+03,5.440624e+02
3.151116e+03,5.456971e+02
3.154009e+03,5.724662e+02
3.156902e+03,5.217180e+02
3.159795e+03,5.230933e+02
3.162687e+03,5.230555e+02
3.165580e+03,5.023487e+02
3.168473e+03,5.597695e+02
3.171365e+03,5.410051e+02
3.174258e+03,5.477192e+02
3.177151e+03,5.112530e+02
3.180043e+03,5.491297e+02
3.182936e+03,5.647995e+02
3.185829e+03,5.575290e+02
3.188722e+03,5.476265e+02
3.191614e+03,5.452689e+02
3.194507e+03,5.664404e+02
3.197400e+03,5.270821e+02
3.200292e+03,5.557450e+02
3.203185e+03,0.000000e+00
3.206078e+03,0.000000e+00
3.208970e+03,0.000000e+00
3.211863e+03,0.000000e+00
3.214756e+03,0.000000e+00
3.217649e+03,0.000000e+00
3.220541e+03,0.000000e+00
3.223434e+03,0.000000e+00
3.226327e+03,0.000000e+00
3.229219e+03,0.000000e+00
3.232112e+03,0.000000e+00
3.235005e+03,0.000000e+00
3.237897e+03,0.000000e+00
3.240790e+03,0.000000e+00
3.243683e+03,0.000000e+00
3.246576e+03,0.000000e+00
3.249468e+03,0.000000e+00
3.252361e+03,0.000000e+00
3.255254e+03,0.000000e+00
3.258146e+03,0.000000e+00
3.261039e+03,0.000000e+00
3.263932e+03,0.000000e+00
3.266824e+03,0.000000e+00
3.269717e+03,0.000000e+00
3.272610e+03,0.000000e+00
3.275503e+03,0.000000e+00
3.278395e+03,0.000000e+00
3.281288e+03,0.000000e+00
3.284181e+03,0.000000e+00
3.287073e+03,0.000000e+00
3.289966e+03,0.000000e+00
3.292859e+03,0.000000e+00
3.295751e+03,0.000000e+00
3.298644e+03,0.000000e+00
3.301537e+03,0.000000e+00
3.304430e+03,0.000000e+00
3.307322e+03,0.000000e+00
3.310215e+03,0.000000e+00
3.313108e+03,0.000000e+00
3.316000e+03,0.000000e+00
3.318893e+03,0.000000e+00
3.321786e+03,0.000000e+00
3.324678e+03,0.000000e+00
3.327571e+03,0.000000e+00
3.330464e+03,0.000000e+00
3.333357e+03,0.000000e+00
3.336249e+03,0.000000e+00
3.339142e+03,0.000000e+00
3.342035e+03,0.000000e+00
3.344927e+03,0.000000e+00
3.347820e+03,0.000000e+00
3.350713e+03,0.000000e+00
3.353605e+03,0.000000e+00
3.356498e+03,0.000000e+00
3.359391e+03,0.000000e+00
3.362284e+03,0.000000e+00
3.365176e+03,0.000000e+00
3.368069e+03,0.000000e+00
3.370962e+03,0.000000e+00
3.373854e+03,0.000000e+00
3.376747e+03,0.000000e+00
3.379640e+03,0.000000e+00
3.382532e+03,0.000000e+00
3.385425e+03,0.000000e+00
3.388318e+03,0.000000e+00
3.391211e+03,0.000000e+00
3.394103e+03,0.000000e+00
3.396996e+03,0.000000e+00
3.399889e+03,0.000000e+00
3.402781e+03,0.000000e+00
3.405674e+03,0.000000e+00
3.408567e+03,0.000000e+00
3.411459e+03,0.000000e+00
3.414352e+03,0.000000e+00
3.417245e+03,0.000000e+00
3.420138e+03,0.000000e+00
3.423030e+03,0.000000e+00
3.425923e+03,0.000000e+00
3.428816e+03,0.000000e+00
3.431708e+03,0.000000e+00
3.434601e+03,0.000000e+00
3.437494e+03,0.000000e+00
3.440386e+03,0.000000e+00
3.443279e+03,0.000000e+00
3.446172e+03,0.000000e+00
3.449065e+03,0.000000e+00
3.451957e+03,0.000000e+00
3.454850e+03,0.000000e+00
3.457743e+03,0.000000e+00
3.460635e+03,0.000000e+00
3.463528e+03,0.000000e+00
3.466421e+03,0.000000e+00
3.469313e+03,0.000000e+00
3.472206e+03,0.000000e+00
3.475099e+03,0.000000e+00
3.477992e+03,0.000000e+00
3.480884e+03,0.000000e+00
3.483777e+03,0.000000e+00
3.486670e+03,0.000000e+00
3.489563e+03,0.000000e+00
3.492455e+03,0.000000e+00
3.495348e+03,0.000000e+00
3.498240e+03,0.000000e+00
3.500169e+03,0.000000e+00