File: RAMAN_data/12022024_r2/black fibre3.CSV
9.931763e+01,0.000000e+00
1.022103e+02,0.000000e+00
1.051030e+02,0.000000e+00
1.079957e+02,0.000000e+00
1.108884e+02,0.000000e+00
1.137811e+02,0.000000e+00
1.166738e+02,0.000000e+00
1.195665e+02,0.000000e+00
1.224592e+02,0.000000e+00
1.253519e+02,0.000000e+00
1.282446e+02,0.000000e+00
1.311373e+02,0.000000e+00
1.340300e+02,0.000000e+00
1.369227e+02,0.000000e+00
1.398154e+02,0.000000e+00
1.427081e+02,0.000000e+00
1.456008e+02,0.000000e+00
1.484935e+02,0.000000e+00
1.513862e+02,0.000000e+00
1.542789e+02,0.000000e+00
1.571716e+02,0.000000e+00
1.600643e+02,0.000000e+00
1.629570e+02,0.000000e+00
1.658497e+02,0.000000e+00
1.687424e+02,0.000000e+00
1.716351e+02,0.000000e+00
1.745278e+02,0.000000e+00
1.774205e+02,0.000000e+00
1.803132e+02,0.000000e+00
1.832059e+02,0.000000e+00
1.860986e+02,0.000000e+00
1.889913e+02,0.000000e+00
1.918840e+02,0.000000e+00
1.947767e+02,0.000000e+00
1.976694e+02,0.000000e+00
2.005621e+02,6.671146e+02
2.034548e+02,6.649938e+02
2.063475e+02,6.648120e+02
2.092402e+02,6.605438e+02
2.121329e+02,6.597401e+02
2.150256e+02,6.679297e+02
2.179183e+02,6.691511e+02
2.208110e+02,6.619711e+02
2.237037e+02,6.592450e+02
2.265964e+02,6.657157e+02
2.294892e+02,6.602677e+02
2.323819e+02,6.642237e+02
2.352746e+02,6.619020e+02
2.381673e+02,6.618476e+02
2.410600e+02,6.610309e+02
2.439527e+02,6.579520e+02
2.468454e+02,6.582664e+02
2.497381e+02,6.686982e+02
2.526308e+02,6.615328e+02
2.555235e+02,6.628409e+02
2.584161e+02,6.602747e+02
2.613088e+02,6.618207e+02
2.642015e+02,6.675565e+02
2.670942e+02,6.631699e+02
2.699869e+02,6.628471e+02
2.728796e+02,6.681943e+02
2.757723e+02,6.609359e+02
2.786650e+02,6.607805e+02
2.815577e+02,6.620672e+02
2.844504e+02,6.579771e+02
2.873431e+02,6.594420e+02
2.902358e+02,6.635914e+02
2.931285e+02,6.653021e+02
2.960212e+02,6.570058e+02
2.989139e+02,6.647595e+02
3.018066e+02,6.636189e+02
3.046993e+02,6.663482e+02
3.075920e+02,6.657020e+02
3.104847e+02,6.656190e+02
3.133774e+02,6.641080e+02
3.162701e+02,6.673173e+02
3.191628e+02,6.737428e+02
3.220555e+02,6.731293e+02
3.249482e+02,6.731274e+02
3.278409e+02,6.768275e+02
3.307336e+02,6.722277e+02
3.336263e+02,6.709743e+02
3.365190e+02,6.706818e+02
3.394117e+02,6.736892e+02
3.423044e+02,6.800750e+02
3.451971e+02,6.743957e+02
3.480898e+02,6.700095e+02
3.509825e+02,6.668123e+02
3.538752e+02,6.730115e+02
3.567680e+02,6.647213e+02
3.596607e+02,6.716125e+02
3.625534e+02,6.769775e+02
3.654461e+02,6.670291e+02
3.683388e+02,6.766534e+02
3.712315e+02,6.820821e+02
3.741242e+02,6.888217e+02
3.770169e+02,6.961609e+02
3.799096e+02,6.914901e+02
3.828023e+02,6.851765e+02
3.856950e+02,6.762078e+02
3.885877e+02,6.742881e+02
3.914804e+02,6.722755e+02
3.943731e+02,6.664409e+02
3.972658e+02,6.592599e+02
4.001585e+02,6.641824e+02
4.030512e+02,6.689182e+02
4.059439e+02,6.627186e+02
4.088366e+02,6.650966e+02
4.117293e+02,6.663152e+02
4.146220e+02,6.604059e+02
4.175147e+02,6.642556e+02
4.204074e+02,6.634277e+02
4.233001e+02,6.730519e+02
4.261928e+02,6.678522e+02
4.290855e+02,6.786918e+02
4.319782e+02,6.791557e+02
4.348709e+02,6.787379e+02
4.377636e+02,6.759041e+02
4.406563e+02,6.672039e+02
4.435490e+02,6.596506e+02
4.464417e+02,6.734423e+02
4.493344e+02,6.709857e+02
4.522271e+02,6.733902e+02
4.551198e+02,6.770363e+02
4.580125e+02,6.773278e+02
4.609052e+02,6.713807e+02
4.637979e+02,6.663669e+02
4.666906e+02,6.638607e+02
4.695833e+02,6.547314e+02
4.724760e+02,6.668900e+02
4.753687e+02,6.677766e+02
4.782614e+02,6.633734e+02
4.811541e+02,6.659836e+02
4.840468e+02,6.616082e+02
4.869395e+02,6.616922e+02
4.898322e+02,6.697480e+02
4.927249e+02,6.667975e+02
4.956176e+02,6.669938e+02
4.985103e+02,6.670248e+02
5.014030e+02,6.680052e+02
5.042957e+02,6.628369e+02
5.071884e+02,6.612641e+02
5.100811e+02,6.603529e+02
5.129738e+02,6.683718e+02
5.158665e+02,6.675242e+02
5.187592e+02,6.627241e+02
5.216519e+02,6.590889e+02
5.245446e+02,6.555768e+02
5.274373e+02,6.627940e+02
5.303300e+02,6.664279e+02
5.332227e+02,6.576869e+02
5.361154e+02,6.513549e+02
5.390081e+02,6.533067e+02
5.419008e+02,6.596276e+02
5.447935e+02,6.537405e+02
5.476862e+02,6.486003e+02
5.505789e+02,6.509521e+02
5.534716e+02,6.524324e+02
5.563643e+02,6.508542e+02
5.592570e+02,6.551182e+02
5.621497e+02,6.675850e+02
5.650424e+02,6.565554e+02
5.679351e+02,6.568027e+02
5.708278e+02,6.572048e+02
5.737205e+02,6.571871e+02
5.766132e+02,6.611755e+02
5.795059e+02,6.531619e+02
5.823986e+02,6.553730e+02
5.852913e+02,6.643195e+02
5.881840e+02,6.538602e+02
5.910767e+02,6.541453e+02
5.939694e+02,6.559525e+02
5.968621e+02,6.482584e+02
5.997548e+02,6.622918e+02
6.026475e+02,6.607601e+02
6.055402e+02,6.609650e+02
6.084329e+02,6.566238e+02
6.113256e+02,6.591730e+02
6.142183e+02,6.579507e+02
6.171110e+02,6.499086e+02
6.200037e+02,6.514910e+02
6.228964e+02,6.494970e+02
6.257891e+02,6.487383e+02
6.286818e+02,6.482626e+02
6.315745e+02,6.546118e+02
6.344672e+02,6.569404e+02
6.373599e+02,6.475097e+02
6.402526e+02,6.536336e+02
6.431453e+02,6.576437e+02
6.460380e+02,6.563810e+02
6.489307e+02,6.540821e+02
6.518234e+02,6.516446e+02
6.547161e+02,6.465045e+02
6.576088e+02,6.466299e+02
6.605015e+02,6.550018e+02
6.633942e+02,6.522438e+02
6.662869e+02,6.531718e+02
6.691796e+02,6.496100e+02
6.720723e+02,6.396247e+02
6.749650e+02,6.472142e+02
6.778577e+02,6.464791e+02
6.807504e+02,6.480145e+02
6.836431e+02,6.501722e+02
6.865358e+02,6.515807e+02
6.894285e+02,6.510570e+02
6.923212e+02,6.577408e+02
6.952139e+02,6.448732e+02
6.981066e+02,6.549963e+02
7.009993e+02,6.503106e+02
7.038920e+02,6.458289e+02
7.067847e+02,6.496815e+02
7.096774e+02,6.442128e+02
7.125701e+02,6.513580e+02
7.154628e+02,6.464020e+02
7.183555e+02,6.493828e+02
7.212482e+02,6.543522e+02
7.241409e+02,6.512853e+02
7.270336e+02,6.490773e+02
7.299263e+02,6.480095e+02
7.328190e+02,6.461259e+02
7.357117e+02,6.566058e+02
7.386044e+02,6.440176e+02
7.414971e+02,6.518267e+02
7.443898e+02,6.381013e+02
7.472825e+02,6.436543e+02
7.501752e+02,6.514455e+02
7.530679e+02,6.486683e+02
7.559606e+02,6.441594e+02
7.588533e+02,6.426149e+02
7.617460e+02,6.490101e+02
7.646387e+02,6.496609e+02
7.675314e+02,6.562791e+02
7.704241e+02,6.476983e+02
7.733168e+02,6.487581e+02
7.762095e+02,6.443317e+02
7.791022e+02,6.507751e+02
7.819949e+02,6.503138e+02
7.848876e+02,6.452481e+02
7.877803e+02,6.454946e+02
7.906730e+02,6.411141e+02
7.935657e+02,6.487155e+02
7.964584e+02,6.563787e+02
7.993511e+02,6.457595e+02
8.022438e+02,6.466973e+02
8.051365e+02,6.463560e+02
8.080292e+02,6.457353e+02
8.109219e+02,6.470871e+02
8.138146e+02,6.468152e+02
8.167073e+02,6.422877e+02
8.196000e+02,6.453145e+02
8.224927e+02,6.410214e+02
8.253854e+02,6.432438e+02
8.282781e+02,6.414863e+02
8.311708e+02,6.410316e+02
8.340635e+02,6.429877e+02
8.369562e+02,6.525544e+02
8.398489e+02,6.482549e+02
8.427416e+02,6.427637e+02
8.456343e+02,6.465468e+02
8.485270e+02,6.453222e+02
8.514197e+02,6.416938e+02
8.543124e+02,6.424544e+02
8.572051e+02,6.403782e+02
8.600978e+02,6.449042e+02
8.629905e+02,6.456149e+02
8.658832e+02,6.452600e+02
8.687759e+02,6.466071e+02
8.716686e+02,6.395076e+02
8.745613e+02,6.425114e+02
8.774540e+02,6.513021e+02
8.803467e+02,6.492958e+02
8.832394e+02,6.485566e+02
8.861321e+02,6.519040e+02
8.890248e+02,6.536854e+02
8.919175e+02,6.467035e+02
8.948102e+02,6.511046e+02
8.977029e+02,6.424778e+02
9.005956e+02,6.450450e+02
9.034883e+02,6.490402e+02
9.063810e+02,6.433226e+02
9.092737e+02,6.460656e+02
9.121664e+02,6.404916e+02
9.150591e+02,6.473209e+02
9.179518e+02,6.431332e+02
9.208445e+02,6.370149e+02
9.237372e+02,6.410540e+02
9.266299e+02,6.389537e+02
9.295226e+02,6.319569e+02
9.324153e+02,6.398754e+02
9.353080e+02,6.437474e+02
9.382007e+02,6.274481e+02
9.410934e+02,6.335778e+02
9.439861e+02,6.330324e+02
9.468788e+02,6.409099e+02
9.497715e+02,6.392392e+02
9.526642e+02,6.303922e+02
9.555569e+02,6.452039e+02
9.584496e+02,6.389380e+02
9.613423e+02,6.470225e+02
9.642350e+02,6.386697e+02
9.671277e+02,6.411960e+02
9.700204e+02,6.435772e+02
9.729131e+02,6.301599e+02
9.758058e+02,6.347018e+02
9.786985e+02,6.352899e+02
9.815912e+02,6.466427e+02
9.844839e+02,6.423066e+02
9.873766e+02,6.364772e+02
9.902693e+02,6.443018e+02
9.931620e+02,6.442732e+02
9.960547e+02,6.480513e+02
9.989474e+02,6.396849e+02
1.001840e+03,6.405827e+02
1.004733e+03,6.382980e+02
1.007626e+03,6.368640e+02
1.010518e+03,6.368388e+02
1.013411e+03,6.389359e+02
1.016304e+03,6.448778e+02
1.019196e+03,6.418227e+02
1.022089e+03,6.311363e+02
1.024982e+03,6.430511e+02
1.027875e+03,6.455966e+02
1.030767e+03,6.429486e+02
1.033660e+03,6.417733e+02
1.036552e+03,6.502410e+02
1.039445e+03,6.378185e+02
1.042338e+03,6.431428e+02
1.045231e+03,6.389400e+02
1.048123e+03,6.462496e+02
1.051016e+03,6.427463e+02
1.053909e+03,6.436505e+02
1.056802e+03,6.473564e+02
1.059694e+03,6.461120e+02
1.062587e+03,6.464503e+02
1.065479e+03,6.474501e+02
1.068372e+03,6.482697e+02
1.071265e+03,6.522211e+02
1.074158e+03,6.466815e+02
1.077050e+03,6.509989e+02
1.079943e+03,6.586872e+02
1.082836e+03,6.597097e+02
1.085729e+03,6.675599e+02
1.088621e+03,6.716050e+02
1.091514e+03,6.860322e+02
1.094406e+03,6.902783e+02
1.097299e+03,6.788088e+02
1.100192e+03,6.704365e+02
1.103085e+03,6.661965e+02
1.105977e+03,6.628776e+02
1.108870e+03,6.618850e+02
1.111763e+03,6.663806e+02
1.114656e+03,6.712928e+02
1.117548e+03,6.786452e+02
1.120441e+03,6.733286e+02
1.123334e+03,6.665880e+02
1.126226e+03,6.652906e+02
1.129119e+03,6.622057e+02
1.132012e+03,6.597653e+02
1.134904e+03,6.538033e+02
1.137797e+03,6.453885e+02
1.140690e+03,6.520027e+02
1.143583e+03,6.586230e+02
1.146475e+03,6.557562e+02
1.149368e+03,6.566124e+02
1.152261e+03,6.598656e+02
1.155153e+03,6.530345e+02
1.158046e+03,6.420541e+02
1.160939e+03,6.548854e+02
1.163831e+03,6.543984e+02
1.166724e+03,6.479661e+02
1.169617e+03,6.457814e+02
1.172510e+03,6.436573e+02
1.175402e+03,6.418226e+02
1.178295e+03,6.436615e+02
1.181188e+03,6.521186e+02
1.184080e+03,6.369159e+02
1.186973e+03,6.458264e+02
1.189866e+03,6.492523e+02
1.192758e+03,6.480705e+02
1.195651e+03,6.438981e+02
1.198544e+03,6.467601e+02
1.201437e+03,6.474673e+02
1.204329e+03,6.559984e+02
1.207222e+03,6.493253e+02
1.210115e+03,6.561957e+02
1.213007e+03,6.454266e+02
1.215900e+03,6.482639e+02
1.218793e+03,6.449711e+02
1.221685e+03,6.510355e+02
1.224578e+03,6.533888e+02
1.227471e+03,6.496774e+02
1.230364e+03,6.522598e+02
1.233256e+03,6.508241e+02
1.236149e+03,6.575135e+02
1.239042e+03,6.591531e+02
1.241934e+03,6.572654e+02
1.244827e+03,6.611541e+02
1.247720e+03,6.569718e+02
1.250612e+03,6.598677e+02
1.253505e+03,6.620409e+02
1.256398e+03,6.624818e+02
1.259291e+03,6.548648e+02
1.262183e+03,6.686240e+02
1.265076e+03,6.711920e+02
1.267969e+03,6.523810e+02
1.270861e+03,6.635939e+02
1.273754e+03,6.657925e+02
1.276647e+03,6.691202e+02
1.279539e+03,6.700194e+02
1.282432e+03,6.643679e+02
1.285325e+03,6.677603e+02
1.288218e+03,6.702396e+02
1.291110e+03,6.708187e+02
1.294003e+03,6.721691e+02
1.296896e+03,6.728309e+02
1.299788e+03,6.739228e+02
1.302681e+03,6.704464e+02
1.305574e+03,6.793970e+02
1.308466e+03,6.699315e+02
1.311359e+03,6.821447e+02
1.314252e+03,6.804383e+02
1.317145e+03,6.877136e+02
1.320037e+03,6.840891e+02
1.322930e+03,6.781668e+02
1.325823e+03,6.825518e+02
1.328715e+03,6.895884e+02
1.331608e+03,6.883971e+02
1.334501e+03,6.888515e+02
1.337393e+03,6.832053e+02
1.340286e+03,6.883575e+02
1.343179e+03,6.867953e+02
1.346072e+03,6.840070e+02
1.348964e+03,6.808268e+02
1.351857e+03,6.890424e+02
1.354750e+03,6.783630e+02
1.357642e+03,6.801067e+02
1.360535e+03,6.888162e+02
1.363428e+03,6.868888e+02
1.366320e+03,6.840485e+02
1.369213e+03,6.884460e+02
1.372106e+03,6.944229e+02
1.374999e+03,6.857574e+02
1.377891e+03,6.886283e+02
1.380784e+03,6.887175e+02
1.383677e+03,6.851185e+02
1.386569e+03,6.716261e+02
1.389462e+03,6.781411e+02
1.392355e+03,6.654423e+02
1.395247e+03,6.725266e+02
1.398140e+03,6.667777e+02
1.401033e+03,6.710126e+02
1.403926e+03,6.720875e+02
1.406818e+03,6.644439e+02
1.409711e+03,6.637761e+02
1.412604e+03,6.627924e+02
1.415496e+03,6.648544e+02
1.418389e+03,6.622537e+02
1.421282e+03,6.665135e+02
1.424174e+03,6.581955e+02
1.427067e+03,6.561733e+02
1.429960e+03,6.624755e+02
1.432853e+03,6.634183e+02
1.435745e+03,6.567171e+02
1.438638e+03,6.574128e+02
1.441531e+03,6.578478e+02
1.444423e+03,6.582217e+02
1.447316e+03,6.627355e+02
1.450209e+03,6.585862e+02
1.453101e+03,6.561119e+02
1.455994e+03,6.575078e+02
1.458887e+03,6.557009e+02
1.461780e+03,6.591580e+02
1.464672e+03,6.637847e+02
1.467565e+03,6.576003e+02
1.470458e+03,6.515052e+02
1.473350e+03,6.574172e+02
1.476243e+03,6.626595e+02
1.479136e+03,6.581290e+02
1.482028e+03,6.555702e+02
1.484921e+03,6.538047e+02
1.487814e+03,6.499238e+02
1.490707e+03,6.489639e+02
1.493599e+03,6.498663e+02
1.496492e+03,6.485662e+02
1.499385e+03,6.463926e+02
1.502277e+03,6.506721e+02
1.505170e+03,6.467983e+02
1.508063e+03,6.438362e+02
1.510955e+03,6.448566e+02
1.513848e+03,6.519872e+02
1.516741e+03,6.543852e+02
1.519634e+03,6.443211e+02
1.522526e+03,6.487888e+02
1.525419e+03,6.468580e+02
1.528312e+03,6.496248e+02
1.531204e+03,6.501197e+02
1.534097e+03,6.522701e+02
1.536990e+03,6.575015e+02
1.539882e+03,6.535840e+02
1.542775e+03,6.560082e+02
1.545668e+03,6.631390e+02
1.548561e+03,6.554916e+02
1.551453e+03,6.531664e+02
1.554346e+03,6.614258e+02
1.557239e+03,6.616684e+02
1.560131e+03,6.670564e+02
1.563024e+03,6.686375e+02
1.565917e+03,6.675801e+02
1.568809e+03,6.709245e+02
1.571702e+03,6.763304e+02
1.574595e+03,6.702985e+02
1.577488e+03,6.700063e+02
1.580380e+03,6.750169e+02
1.583273e+03,6.710189e+02
1.586166e+03,6.726579e+02
1.589058e+03,6.646259e+02
1.591951e+03,6.705705e+02
1.594844e+03,6.753395e+02
1.597736e+03,6.708515e+02
1.600629e+03,6.696300e+02
1.603522e+03,6.743005e+02
1.606415e+03,6.661056e+02
1.609307e+03,6.627144e+02
1.612200e+03,6.647323e+02
1.615093e+03,6.616800e+02
1.617985e+03,6.625736e+02
1.620878e+03,6.545005e+02
1.623771e+03,6.508082e+02
1.626663e+03,6.474268e+02
1.629556e+03,6.490372e+02
1.632449e+03,6.419471e+02
1.635342e+03,6.430009e+02
1.638234e+03,6.323770e+02
1.641127e+03,6.337360e+02
1.644020e+03,6.382618e+02
1.646912e+03,6.444861e+02
1.649805e+03,6.360557e+02
1.652698e+03,6.407331e+02
1.655590e+03,6.321486e+02
1.658483e+03,6.278130e+02
1.661376e+03,6.299252e+02
1.664269e+03,6.348765e+02
1.667161e+03,6.392592e+02
1.670054e+03,6.381027e+02
1.672947e+03,6.339919e+02
1.675839e+03,6.290801e+02
1.678732e+03,6.276906e+02
1.681625e+03,6.287538e+02
1.684517e+03,6.391005e+02
1.687410e+03,6.303397e+02
1.690303e+03,6.315763e+02
1.693196e+03,6.258245e+02
1.696088e+03,6.271519e+02
1.698981e+03,6.158096e+02
1.701874e+03,6.345704e+02
1.704766e+03,6.205611e+02
1.707659e+03,6.266891e+02
1.710552e+03,6.227483e+02
1.713444e+03,6.231912e+02
1.716337e+03,6.274523e+02
1.719230e+03,6.288500e+02
1.722123e+03,6.265106e+02
1.725015e+03,6.172145e+02
1.727908e+03,6.270634e+02
1.730801e+03,6.174889e+02
1.733693e+03,6.330088e+02
1.736586e+03,6.229821e+02
1.739479e+03,6.366679e+02
1.742371e+03,6.253150e+02
1.745264e+03,6.278414e+02
1.748157e+03,6.212054e+02
1.751050e+03,6.204721e+02
1.753942e+03,6.232391e+02
1.756835e+03,6.209874e+02
1.759728e+03,6.240333e+02
1.762620e+03,6.178458e+02
1.765513e+03,6.284154e+02
1.768406e+03,6.262164e+02
1.771298e+03,6.167195e+02
1.774191e+03,6.194754e+02
1.777084e+03,6.195437e+02
1.779977e+03,6.236942e+02
1.782869e+03,6.157643e+02
1.785762e+03,6.174093e+02
1.788655e+03,6.113147e+02
1.791547e+03,6.193337e+02
1.794440e+03,6.157398e+02
1.797333e+03,6.097518e+02
1.800225e+03,6.169642e+02
1.803118e+03,6.205362e+02
1.806011e+03,6.087811e+02
1.808904e+03,6.186918e+02
1.811796e+03,6.167038e+02
1.814689e+03,6.195407e+02
1.817582e+03,6.173463e+02
1.820474e+03,6.109202e+02
1.823367e+03,6.109232e+02
1.826260e+03,6.115231e+02
1.829152e+03,6.147621e+02
1.832045e+03,6.143939e+02
1.834938e+03,6.175203e+02
1.837831e+03,6.123593e+02
1.840723e+03,6.248586e+02
1.843616e+03,6.194650e+02
1.846509e+03,6.172646e+02
1.849401e+03,6.083418e+02
1.852294e+03,6.192802e+02
1.855187e+03,6.126032e+02
1.858079e+03,6.186140e+02
1.860972e+03,6.160090e+02
1.863865e+03,6.182800e+02
1.866758e+03,6.222011e+02
1.869650e+03,6.055519e+02
1.872543e+03,6.026371e+02
1.875436e+03,6.061772e+02
1.878328e+03,6.073517e+02
1.881221e+03,6.176155e+02
1.884114e+03,6.148564e+02
1.887006e+03,6.038366e+02
1.889899e+03,6.061339e+02
1.892792e+03,6.041668e+02
1.895685e+03,6.103137e+02
1.898577e+03,6.080305e+02
1.901470e+03,6.158009e+02
1.904363e+03,6.076658e+02
1.907255e+03,6.090244e+02
1.910148e+03,6.084186e+02
1.913041e+03,6.130045e+02
1.915933e+03,6.037893e+02
1.918826e+03,6.075159e+02
1.921719e+03,6.054766e+02
1.924612e+03,6.074219e+02
1.927504e+03,6.141195e+02
1.930397e+03,6.003482e+02
1.933290e+03,5.903846e+02
1.936182e+03,6.095090e+02
1.939075e+03,5.987607e+02
1.941968e+03,6.085118e+02
1.944860e+03,5.936924e+02
1.947753e+03,6.008149e+02
1.950646e+03,6.048828e+02
1.953539e+03,6.060308e+02
1.956431e+03,5.919733e+02
1.959324e+03,5.926784e+02
1.962217e+03,5.961479e+02
1.965109e+03,5.978526e+02
1.968002e+03,6.090853e+02
1.970895e+03,5.957477e+02
1.973787e+03,6.040492e+02
1.976680e+03,5.904688e+02
1.979573e+03,6.056834e+02
1.982466e+03,5.968437e+02
1.985358e+03,6.042198e+02
1.988251e+03,5.991769e+02
1.991144e+03,5.971168e+02
1.994036e+03,5.930456e+02
1.996929e+03,5.880500e+02
1.999822e+03,5.995538e+02
2.002714e+03,5.991140e+02
2.005607e+03,6.034172e+02
2.008500e+03,5.843239e+02
2.011393e+03,5.929163e+02
2.014285e+03,5.841795e+02
2.017178e+03,5.960032e+02
2.020071e+03,5.889182e+02
2.022963e+03,5.862754e+02
2.025856e+03,5.925424e+02
2.028749e+03,6.070909e+02
2.031641e+03,5.916888e+02
2.034534e+03,5.899033e+02
2.037427e+03,5.953659e+02
2.040320e+03,5.901274e+02
2.043212e+03,5.840275e+02
2.046105e+03,5.970127e+02
2.048998e+03,5.866443e+02
2.051890e+03,5.931046e+02
2.054783e+03,5.912248e+02
2.057676e+03,5.825311e+02
2.060568e+03,5.966918e+02
2.063461e+03,5.835007e+02
2.066354e+03,5.798477e+02
2.069247e+03,5.874767e+02
2.072139e+03,5.799294e+02
2.075032e+03,5.722267e+02
2.077925e+03,5.870537e+02
2.080817e+03,5.754963e+02
2.083710e+03,5.831761e+02
2.086603e+03,5.746144e+02
2.089496e+03,5.837146e+02
2.092388e+03,5.842727e+02
2.095281e+03,5.757263e+02
2.098174e+03,5.731379e+02
2.101066e+03,5.816797e+02
2.103959e+03,5.782732e+02
2.106852e+03,5.701273e+02
2.109744e+03,5.792608e+02
2.112637e+03,5.748580e+02
2.115530e+03,5.775579e+02
2.118422e+03,5.890784e+02
2.121315e+03,5.788500e+02
2.124208e+03,5.846493e+02
2.127101e+03,5.651272e+02
2.129993e+03,5.771512e+02
2.132886e+03,5.656363e+02
2.135779e+03,5.733721e+02
2.138671e+03,5.799415e+02
2.141564e+03,5.828983e+02
2.144457e+03,5.718341e+02
2.147350e+03,5.650950e+02
2.150242e+03,5.817776e+02
2.153135e+03,5.788458e+02
2.156028e+03,5.758731e+02
2.158920e+03,5.710925e+02
2.161813e+03,5.710443e+02
2.164706e+03,5.655734e+02
2.167598e+03,5.663729e+02
2.170491e+03,5.680945e+02
2.173384e+03,5.616552e+02
2.176277e+03,5.688878e+02
2.179169e+03,5.671985e+02
2.182062e+03,5.574012e+02
2.184955e+03,5.722211e+02
2.187847e+03,5.704440e+02
2.190740e+03,5.711838e+02
2.193633e+03,5.670428e+02
2.196525e+03,5.708447e+02
2.199418e+03,5.664598e+02
2.202311e+03,5.725137e+02
2.205204e+03,5.787869e+02
2.208096e+03,5.681252e+02
2.210989e+03,5.633441e+02
2.213882e+03,5.612068e+02
2.216774e+03,5.698597e+02
2.219667e+03,5.566086e+02
2.222560e+03,5.604286e+02
2.225452e+03,5.586365e+02
2.228345e+03,5.602464e+02
2.231238e+03,5.598044e+02
2.234131e+03,5.479464e+02
2.237023e+03,5.687397e+02
2.239916e+03,5.641758e+02
2.242809e+03,5.548321e+02
2.245701e+03,5.538887e+02
2.248594e+03,5.580793e+02
2.251487e+03,5.583135e+02
2.254379e+03,5.572720e+02
2.257272e+03,5.471358e+02
2.260165e+03,5.466110e+02
2.263058e+03,5.549269e+02
2.265950e+03,5.526931e+02
2.268843e+03,5.433039e+02
2.271736e+03,5.383401e+02
2.274628e+03,5.535873e+02
2.277521e+03,5.642821e+02
2.280414e+03,5.550938e+02
2.283306e+03,5.494284e+02
2.286199e+03,5.537201e+02
2.289092e+03,5.513792e+02
2.291985e+03,5.448867e+02
2.294877e+03,5.424417e+02
2.297770e+03,5.464345e+02
2.300663e+03,5.414225e+02
2.303555e+03,5.476934e+02
2.306448e+03,5.428442e+02
2.309341e+03,5.491722e+02
2.312233e+03,5.481241e+02
2.315126e+03,5.424821e+02
2.318019e+03,5.485444e+02
2.320912e+03,5.494432e+02
2.323804e+03,5.389273e+02
2.326697e+03,5.523954e+02
2.329590e+03,5.452327e+02
2.332482e+03,5.487169e+02
2.335375e+03,5.408744e+02
2.338268e+03,5.460117e+02
2.341160e+03,5.508434e+02
2.344053e+03,5.494961e+02
2.346946e+03,5.428807e+02
2.349839e+03,5.411196e+02
2.352731e+03,5.440041e+02
2.355624e+03,5.387055e+02
2.358517e+03,5.432390e+02
2.361409e+03,5.455167e+02
2.364302e+03,5.378635e+02
2.367195e+03,5.358708e+02
2.370087e+03,5.394320e+02
2.372980e+03,5.363350e+02
2.375873e+03,5.392879e+02
2.378766e+03,5.346070e+02
2.381658e+03,5.392388e+02
2.384551e+03,5.335437e+02
2.387444e+03,5.431941e+02
2.390336e+03,5.303934e+02
2.393229e+03,5.276238e+02
2.396122e+03,5.355597e+02
2.399014e+03,5.294724e+02
2.401907e+03,5.391656e+02
2.404800e+03,5.312441e+02
2.407693e+03,5.333610e+02
2.410585e+03,5.381810e+02
2.413478e+03,5.296540e+02
2.416371e+03,5.357883e+02
2.419263e+03,5.372163e+02
2.422156e+03,5.399350e+02
2.425049e+03,5.304146e+02
2.427941e+03,5.424616e+02
2.430834e+03,5.280427e+02
2.433727e+03,5.358748e+02
2.436620e+03,5.287811e+02
2.439512e+03,5.365723e+02
2.442405e+03,5.227085e+02
2.445298e+03,5.415043e+02
2.448190e+03,5.275989e+02
2.451083e+03,5.302927e+02
2.453976e+03,5.232726e+02
2.456868e+03,5.325075e+02
2.459761e+03,5.375204e+02
2.462654e+03,5.374892e+02
2.465547e+03,5.275970e+02
2.468439e+03,5.409580e+02
2.471332e+03,5.139866e+02
2.474225e+03,5.222372e+02
2.477117e+03,5.335190e+02
2.480010e+03,5.347706e+02
2.482903e+03,5.261497e+02
2.485795e+03,5.398989e+02
2.488688e+03,5.341273e+02
2.491581e+03,5.201097e+02
2.494474e+03,5.230679e+02
2.497366e+03,5.261125e+02
2.500259e+03,5.362136e+02
2.503152e+03,5.284642e+02
2.506044e+03,5.204442e+02
2.508937e+03,5.246115e+02
2.511830e+03,5.285874e+02
2.514722e+03,5.163790e+02
2.517615e+03,5.354329e+02
2.520508e+03,5.177900e+02
2.523401e+03,5.414631e+02
2.526293e+03,5.197244e+02
2.529186e+03,5.294736e+02
2.532079e+03,5.255276e+02
2.534971e+03,5.297407e+02
2.537864e+03,5.340598e+02
2.540757e+03,5.294141e+02
2.543649e+03,5.230440e+02
2.546542e+03,5.484490e+02
2.549435e+03,5.220515e+02
2.552328e+03,5.308665e+02
2.555220e+03,5.404301e+02
2.558113e+03,5.277880e+02
2.561006e+03,5.373857e+02
2.563898e+03,5.366136e+02
2.566791e+03,5.255268e+02
2.569684e+03,5.389734e+02
2.572576e+03,5.334995e+02
2.575469e+03,5.258134e+02
2.578362e+03,5.290995e+02
2.581255e+03,5.147947e+02
2.584147e+03,5.231130e+02
2.587040e+03,5.167496e+02
2.589933e+03,5.198146e+02
2.592825e+03,5.304482e+02
2.595718e+03,5.200335e+02
2.598611e+03,5.246418e+02
2.601503e+03,5.378469e+02
2.604396e+03,5.197688e+02
2.607289e+03,5.309096e+02
2.610182e+03,5.160484e+02
2.613074e+03,5.279627e+02
2.615967e+03,5.300109e+02
2.618860e+03,5.189802e+02
2.621752e+03,5.101385e+02
2.624645e+03,5.111202e+02
2.627538e+03,5.205981e+02
2.630430e+03,5.293863e+02
2.633323e+03,5.183962e+02
2.636216e+03,5.222497e+02
2.639109e+03,5.225973e+02
2.642001e+03,5.240519e+02
2.644894e+03,5.065434e+02
2.647787e+03,5.104121e+02
2.650679e+03,5.104180e+02
2.653572e+03,5.332313e+02
2.656465e+03,5.180060e+02
2.659357e+03,5.230907e+02
2.662250e+03,5.208478e+02
2.665143e+03,5.244809e+02
2.668036e+03,5.243762e+02
2.670928e+03,5.165500e+02
2.673821e+03,5.268964e+02
2.676714e+03,5.284691e+02
2.679606e+03,5.148739e+02
2.682499e+03,5.316937e+02
2.685392e+03,5.112088e+02
2.688284e+03,5.278405e+02
2.691177e+03,5.183004e+02
2.694070e+03,5.134858e+02
2.696963e+03,5.119176e+02
2.699855e+03,5.107763e+02
2.702748e+03,5.153224e+02
2.705641e+03,5.206228e+02
2.708533e+03,5.142315e+02
2.711426e+03,5.178492e+02
2.714319e+03,5.205701e+02
2.717211e+03,5.301227e+02
2.720104e+03,5.150964e+02
2.722997e+03,5.217382e+02
2.725890e+03,5.212249e+02
2.728782e+03,5.178728e+02
2.731675e+03,5.161425e+02
2.734568e+03,5.117132e+02
2.737460e+03,5.139579e+02
2.740353e+03,5.238340e+02
2.743246e+03,5.078096e+02
2.746138e+03,5.114507e+02
2.749031e+03,5.216090e+02
2.751924e+03,5.124707e+02
2.754817e+03,5.178901e+02
2.757709e+03,5.134088e+02
2.760602e+03,5.158612e+02
2.763495e+03,5.112682e+02
2.766387e+03,5.137332e+02
2.769280e+03,5.095382e+02
2.772173e+03,5.066007e+02
2.775065e+03,5.146276e+02
2.777958e+03,5.173687e+02
2.780851e+03,5.141699e+02
2.783744e+03,5.084598e+02
2.786636e+03,5.173844e+02
2.789529e+03,5.186639e+02
2.792422e+03,5.220902e+02
2.795314e+03,4.983940e+02
2.798207e+03,5.100792e+02
2.801100e+03,5.413550e+02
2.803992e+03,5.180542e+02
2.806885e+03,5.211107e+02
2.809778e+03,5.122546e+02
2.812671e+03,5.244364e+02
2.815563e+03,4.946127e+02
2.818456e+03,5.230338e+02
2.821349e+03,5.157118e+02
2.824241e+03,5.200215e+02
2.827134e+03,5.123795e+02
2.830027e+03,5.125448e+02
2.832919e+03,5.098249e+02
2.835812e+03,5.241693e+02
2.838705e+03,5.285226e+02
2.841598e+03,5.323889e+02
2.844490e+03,5.153860e+02
2.847383e+03,5.161284e+02
2.850276e+03,5.279181e+02
2.853168e+03,5.469775e+02
2.856061e+03,5.379982e+02
2.858954e+03,5.272331e+02
2.861846e+03,5.418657e+02
2.864739e+03,5.315824e+02
2.867632e+03,5.435886e+02
2.870525e+03,5.493845e+02
2.873417e+03,5.375507e+02
2.876310e+03,5.448461e+02
2.879203e+03,5.480416e+02
2.882095e+03,5.424919e+02
2.884988e+03,5.373612e+02
2.887881e+03,5.546318e+02
2.890773e+03,5.587768e+02
2.893666e+03,5.468347e+02
2.896559e+03,5.577610e+02
2.899452e+03,5.636437e+02
2.902344e+03,5.592297e+02
2.905237e+03,5.308031e+02
2.908130e+03,5.526100e+02
2.911022e+03,5.570765e+02
2.913915e+03,5.227368e+02
2.916808e+03,5.343524e+02
2.919700e+03,5.416921e+02
2.922593e+03,5.356454e+02
2.925486e+03,5.366727e+02
2.928379e+03,5.259590e+02
2.931271e+03,5.362275e+02
2.934164e+03,5.333483e+02
2.937057e+03,5.315972e+02
2.939949e+03,5.126582e+02
2.942842e+03,5.327751e+02
2.945735e+03,5.436491e+02
2.948627e+03,5.482566e+02
2.951520e+03,5.321806e+02
2.954413e+03,5.260297e+02
2.957306e+03,5.634440e+02
2.960198e+03,5.495189e+02
2.963091e+03,5.480218e+02
2.965984e+03,5.153180e+02
2.968876e+03,5.425826e+02
2.971769e+03,5.116931e+02
2.974662e+03,5.260138e+02
2.977554e+03,5.228698e+02
2.980447e+03,5.023723e+02
2.983340e+03,5.185995e+02
2.986233e+03,4.886489e+02
2.989125e+03,4.957754e+02
2.992018e+03,5.150092e+02
2.994911e+03,4.936022e+02
2.997803e+03,5.017451e+02
3.000696e+03,4.876440e+02
3.003589e+03,4.968389e+02
3.006481e+03,5.280089e+02
3.009374e+03,5.116880e+02
3.012267e+03,5.037000e+02
3.015160e+03,4.987557e+02
3.018052e+03,4.994656e+02
3.020945e+03,5.064309e+02
3.023838e+03,4.970019e+02
3.026730e+03,4.959922e+02
3.029623e+03,4.930097e+02
3.032516e+03,4.934014e+02
3.035408e+03,4.744614e+02
3.038301e+03,5.036891e+02
3.041194e+03,4.915560e+02
3.044087e+03,5.039851e+02
3.046979e+03,5.110144e+02
3.049872e+03,4.964574e+02
3.052765e+03,4.874344e+02
3.055657e+03,4.854419e+02
3.058550e+03,5.237919e+02
3.061443e+03,4.967389e+02
3.064335e+03,4.896803e+02
3.067228e+03,5.105243e+02
3.070121e+03,4.908750e+02
3.073014e+03,5.035616e+02
3.075906e+03,5.086747e+02
3.078799e+03,4.911438e+02
3.081692e+03,5.062257e+02
3.084584e+03,5.099128e+02
3.087477e+03,4.795023e+02
3.090370e+03,5.203185e+02
3.093262e+03,4.786171e+02
3.096155e+03,4.980465e+02
3.099048e+03,4.961445e+02
3.101941e+03,5.102264e+02
3.104833e+03,4.891983e+02
3.107726e+03,5.329201e+02
3.110619e+03,5.054032e+02
3.113511e+03,4.993517e+02
3.116404e+03,5.112743e+02
3.119297e+03,5.230012e+02
3.122189e+03,4.984159e+02
3.125082e+03,5.111526e+02
3.127975e+03,4.890736e+02
3.130868e+03,5.046313e+02
3.133760e+03,5.397861e+02
3.136653e+03,4.740590e+02
3.139546e+03,4.836054e+02
3.142438e+03,5.190769e+02
3.145331e+03,4.926684e+02
3.148224e+03,5.081563e+02
3.151116e+03,4.952458e+02
3.154009e+03,5.219053e+02
3.156902e+03,5.013823e+02
3.159795e+03,4.951466e+02
3.162687e+03,5.126905e+02
3.165580e+03,5.124037e+02
3.168473e+03,5.246239e+02
3.171365e+03,4.984814e+02
3.174258e+03,5.133015e+02
3.177151e+03,5.248351e+02
3.180043e+03,4.954288e+02
3.182936e+03,5.011866e+02
3.185829e+03,4.951314e+02
3.188722e+03,4.910148e+02
3.191614e+03,5.341849e+02
3.194507e+03,5.238289e+02
3.197400e+03,4.894411e+02
3.200292e+03,5.375706e+02
3.203185e+03,0.000000e+00
3.206078e+03,0.000000e+00
3.208970e+03,0.000000e+00
3.211863e+03,0.000000e+00
3.214756e+03,0.000000e+00
3.217649e+03,0.000000e+00
3.220541e+03,0.000000e+00
3.223434e+03,0.000000e+00
3.226327e+03,0.000000e+00
3.229219e+03,0.000000e+00
3.232112e+03,0.000000e+00
3.235005e+03,0.000000e+00
3.237897e+03,0.000000e+00
3.240790e+03,0.000000e+00
3.243683e+03,0.000000e+00
3.246576e+03,0.000000e+00
3.249468e+03,0.000000e+00
3.252361e+03,0.000000e+00
3.255254e+03,0.000000e+00
3.258146e+03,0.000000e+00
3.261039e+03,0.000000e+00
3.263932e+03,0.000000e+00
3.266824e+03,0.000000e+00
3.269717e+03,0.000000e+00
3.272610e+03,0.000000e+00
3.275503e+03,0.000000e+00
3.278395e+03,0.000000e+00
3.281288e+03,0.000000e+00
3.284181e+03,0.000000e+00
3.287073e+03,0.000000e+00
3.289966e+03,0.000000e+00
3.292859e+03,0.000000e+00
3.295751e+03,0.000000e+00
3.298644e+03,0.000000e+00
3.301537e+03,0.000000e+00
3.304430e+03,0.000000e+00
3.307322e+03,0.000000e+00
3.310215e+03,0.000000e+00
3.313108e+03,0.000000e+00
3.316000e+03,0.000000e+00
3.318893e+03,0.000000e+00
3.321786e+03,0.000000e+00
3.324678e+03,0.000000e+00
3.327571e+03,0.000000e+00
3.330464e+03,0.000000e+00
3.333357e+03,0.000000e+00
3.336249e+03,0.000000e+00
3.339142e+03,0.000000e+00
3.342035e+03,0.000000e+00
3.344927e+03,0.000000e+00
3.347820e+03,0.000000e+00
3.350713e+03,0.000000e+00
3.353605e+03,0.000000e+00
3.356498e+03,0.000000e+00
3.359391e+03,0.000000e+00
3.362284e+03,0.000000e+00
3.365176e+03,0.000000e+00
3.368069e+03,0.000000e+00
3.370962e+03,0.000000e+00
3.373854e+03,0.000000e+00
3.376747e+03,0.000000e+00
3.379640e+03,0.000000e+00
3.382532e+03,0.000000e+00
3.385425e+03,0.000000e+00
3.388318e+03,0.000000e+00
3.391211e+03,0.000000e+00
3.394103e+03,0.000000e+00
3.396996e+03,0.000000e+00
3.399889e+03,0.000000e+00
3.402781e+03,0.000000e+00
3.405674e+03,0.000000e+00
3.408567e+03,0.000000e+00
3.411459e+03,0.000000e+00
3.414352e+03,0.000000e+00
3.417245e+03,0.000000e+00
3.420138e+03,0.000000e+00
3.423030e+03,0.000000e+00
3.425923e+03,0.000000e+00
3.428816e+03,0.000000e+00
3.431708e+03,0.000000e+00
3.434601e+03,0.000000e+00
3.437494e+03,0.000000e+00
3.440386e+03,0.000000e+00
3.443279e+03,0.000000e+00
3.446172e+03,0.000000e+00
3.449065e+03,0.000000e+00
3.451957e+03,0.000000e+00
3.454850e+03,0.000000e+00
3.457743e+03,0.000000e+00
3.460635e+03,0.000000e+00
3.463528e+03,0.000000e+00
3.466421e+03,0.000000e+00
3.469313e+03,0.000000e+00
3.472206e+03,0.000000e+00
3.475099e+03,0.000000e+00
3.477992e+03,0.000000e+00
3.480884e+03,0.000000e+00
3.483777e+03,0.000000e+00
3.486670e+03,0.000000e+00
3.489563e+03,0.000000e+00
3.492455e+03,0.000000e+00
3.495348e+03,0.000000e+00
3.498240e+03,0.000000e+00
3.500169e+03,0.000000e+00