File: RAMAN_data/12022024_r2/black fibre4.CSV
9.931763e+01,0.000000e+00
1.022103e+02,0.000000e+00
1.051030e+02,0.000000e+00
1.079957e+02,0.000000e+00
1.108884e+02,0.000000e+00
1.137811e+02,0.000000e+00
1.166738e+02,0.000000e+00
1.195665e+02,0.000000e+00
1.224592e+02,0.000000e+00
1.253519e+02,0.000000e+00
1.282446e+02,0.000000e+00
1.311373e+02,0.000000e+00
1.340300e+02,0.000000e+00
1.369227e+02,0.000000e+00
1.398154e+02,0.000000e+00
1.427081e+02,0.000000e+00
1.456008e+02,0.000000e+00
1.484935e+02,0.000000e+00
1.513862e+02,0.000000e+00
1.542789e+02,0.000000e+00
1.571716e+02,0.000000e+00
1.600643e+02,0.000000e+00
1.629570e+02,0.000000e+00
1.658497e+02,0.000000e+00
1.687424e+02,0.000000e+00
1.716351e+02,0.000000e+00
1.745278e+02,0.000000e+00
1.774205e+02,0.000000e+00
1.803132e+02,0.000000e+00
1.832059e+02,0.000000e+00
1.860986e+02,0.000000e+00
1.889913e+02,0.000000e+00
1.918840e+02,0.000000e+00
1.947767e+02,0.000000e+00
1.976694e+02,0.000000e+00
2.005621e+02,7.321494e+02
2.034548e+02,7.310317e+02
2.063475e+02,7.336047e+02
2.092402e+02,7.276324e+02
2.121329e+02,7.209559e+02
2.150256e+02,7.283531e+02
2.179183e+02,7.266924e+02
2.208110e+02,7.238763e+02
2.237037e+02,7.207907e+02
2.265964e+02,7.241710e+02
2.294892e+02,7.258918e+02
2.323819e+02,7.230248e+02
2.352746e+02,7.231503e+02
2.381673e+02,7.182429e+02
2.410600e+02,7.133764e+02
2.439527e+02,7.177386e+02
2.468454e+02,7.146581e+02
2.497381e+02,7.177237e+02
2.526308e+02,7.176443e+02
2.555235e+02,7.096974e+02
2.584161e+02,7.006374e+02
2.613088e+02,7.073639e+02
2.642015e+02,7.098603e+02
2.670942e+02,7.067471e+02
2.699869e+02,7.093538e+02
2.728796e+02,7.110479e+02
2.757723e+02,7.042348e+02
2.786650e+02,7.031037e+02
2.815577e+02,6.982318e+02
2.844504e+02,6.998720e+02
2.873431e+02,7.015776e+02
2.902358e+02,7.013868e+02
2.931285e+02,6.965234e+02
2.960212e+02,6.979846e+02
2.989139e+02,6.973641e+02
3.018066e+02,6.937911e+02
3.046993e+02,6.966102e+02
3.075920e+02,6.949990e+02
3.104847e+02,6.937267e+02
3.133774e+02,6.933763e+02
3.162701e+02,6.907487e+02
3.191628e+02,6.924517e+02
3.220555e+02,6.898209e+02
3.249482e+02,6.979935e+02
3.278409e+02,6.966196e+02
3.307336e+02,6.954400e+02
3.336263e+02,6.908823e+02
3.365190e+02,6.935026e+02
3.394117e+02,6.924493e+02
3.423044e+02,6.932496e+02
3.451971e+02,6.926310e+02
3.480898e+02,6.851869e+02
3.509825e+02,6.836550e+02
3.538752e+02,6.835269e+02
3.567680e+02,6.930252e+02
3.596607e+02,6.911570e+02
3.625534e+02,6.882214e+02
3.654461e+02,6.814364e+02
3.683388e+02,6.775761e+02
3.712315e+02,6.909915e+02
3.741242e+02,6.922964e+02
3.770169e+02,6.980668e+02
3.799096e+02,6.964073e+02
3.828023e+02,6.834343e+02
3.856950e+02,6.805218e+02
3.885877e+02,6.757156e+02
3.914804e+02,6.790677e+02
3.943731e+02,6.761779e+02
3.972658e+02,6.689410e+02
4.001585e+02,6.653526e+02
4.030512e+02,6.768416e+02
4.059439e+02,6.716223e+02
4.088366e+02,6.697042e+02
4.117293e+02,6.719576e+02
4.146220e+02,6.634026e+02
4.175147e+02,6.630239e+02
4.204074e+02,6.687346e+02
4.233001e+02,6.602197e+02
4.261928e+02,6.735684e+02
4.290855e+02,6.765078e+02
4.319782e+02,6.778725e+02
4.348709e+02,6.729807e+02
4.377636e+02,6.731161e+02
4.406563e+02,6.631056e+02
4.435490e+02,6.662299e+02
4.464417e+02,6.656797e+02
4.493344e+02,6.638792e+02
4.522271e+02,6.666794e+02
4.551198e+02,6.729598e+02
4.580125e+02,6.672682e+02
4.609052e+02,6.604535e+02
4.637979e+02,6.570698e+02
4.666906e+02,6.584202e+02
4.695833e+02,6.536467e+02
4.724760e+02,6.565289e+02
4.753687e+02,6.563329e+02
4.782614e+02,6.577431e+02
4.811541e+02,6.475743e+02
4.840468e+02,6.517401e+02
4.869395e+02,6.535713e+02
4.898322e+02,6.587279e+02
4.927249e+02,6.539593e+02
4.956176e+02,6.526305e+02
4.985103e+02,6.495049e+02
5.014030e+02,6.537852e+02
5.042957e+02,6.512096e+02
5.071884e+02,6.557318e+02
5.100811e+02,6.479261e+02
5.129738e+02,6.501951e+02
5.158665e+02,6.485987e+02
5.187592e+02,6.455515e+02
5.216519e+02,6.446767e+02
5.245446e+02,6.467108e+02
5.274373e+02,6.404655e+02
5.303300e+02,6.408369e+02
5.332227e+02,6.411320e+02
5.361154e+02,6.372396e+02
5.390081e+02,6.451025e+02
5.419008e+02,6.426590e+02
5.447935e+02,6.402169e+02
5.476862e+02,6.382952e+02
5.505789e+02,6.360363e+02
5.534716e+02,6.319513e+02
5.563643e+02,6.371417e+02
5.592570e+02,6.443737e+02
5.621497e+02,6.451927e+02
5.650424e+02,6.397723e+02
5.679351e+02,6.420071e+02
5.708278e+02,6.339720e+02
5.737205e+02,6.305706e+02
5.766132e+02,6.374584e+02
5.795059e+02,6.404747e+02
5.823986e+02,6.324172e+02
5.852913e+02,6.400958e+02
5.881840e+02,6.335786e+02
5.910767e+02,6.348709e+02
5.939694e+02,6.410246e+02
5.968621e+02,6.309503e+02
5.997548e+02,6.396496e+02
6.026475e+02,6.404193e+02
6.055402e+02,6.376086e+02
6.084329e+02,6.359658e+02
6.113256e+02,6.375636e+02
6.142183e+02,6.350187e+02
6.171110e+02,6.311386e+02
6.200037e+02,6.336039e+02
6.228964e+02,6.363502e+02
6.257891e+02,6.290816e+02
6.286818e+02,6.283366e+02
6.315745e+02,6.299360e+02
6.344672e+02,6.311705e+02
6.373599e+02,6.256881e+02
6.402526e+02,6.344362e+02
6.431453e+02,6.275223e+02
6.460380e+02,6.261828e+02
6.489307e+02,6.246805e+02
6.518234e+02,6.283189e+02
6.547161e+02,6.240848e+02
6.576088e+02,6.226721e+02
6.605015e+02,6.176277e+02
6.633942e+02,6.269366e+02
6.662869e+02,6.253259e+02
6.691796e+02,6.305912e+02
6.720723e+02,6.227955e+02
6.749650e+02,6.178657e+02
6.778577e+02,6.245501e+02
6.807504e+02,6.266584e+02
6.836431e+02,6.235463e+02
6.865358e+02,6.192514e+02
6.894285e+02,6.188674e+02
6.923212e+02,6.303702e+02
6.952139e+02,6.121927e+02
6.981066e+02,6.233536e+02
7.009993e+02,6.180341e+02
7.038920e+02,6.170153e+02
7.067847e+02,6.226270e+02
7.096774e+02,6.234376e+02
7.125701e+02,6.216388e+02
7.154628e+02,6.156872e+02
7.183555e+02,6.157978e+02
7.212482e+02,6.156298e+02
7.241409e+02,6.193907e+02
7.270336e+02,6.231264e+02
7.299263e+02,6.115167e+02
7.328190e+02,6.145594e+02
7.357117e+02,6.217664e+02
7.386044e+02,6.144714e+02
7.414971e+02,6.181931e+02
7.443898e+02,6.132656e+02
7.472825e+02,6.177602e+02
7.501752e+02,6.157839e+02
7.530679e+02,6.126074e+02
7.559606e+02,6.176766e+02
7.588533e+02,6.184920e+02
7.617460e+02,6.147586e+02
7.646387e+02,6.200178e+02
7.675314e+02,6.135950e+02
7.704241e+02,6.064427e+02
7.733168e+02,6.139796e+02
7.762095e+02,6.150963e+02
7.791022e+02,6.144941e+02
7.819949e+02,6.180897e+02
7.848876e+02,6.173844e+02
7.877803e+02,6.110129e+02
7.906730e+02,6.116721e+02
7.935657e+02,6.180547e+02
7.964584e+02,6.142296e+02
7.993511e+02,6.171868e+02
8.022438e+02,6.142653e+02
8.051365e+02,6.076083e+02
8.080292e+02,6.106926e+02
8.109219e+02,6.048621e+02
8.138146e+02,6.091239e+02
8.167073e+02,6.111410e+02
8.196000e+02,6.113502e+02
8.224927e+02,6.107864e+02
8.253854e+02,6.088632e+02
8.282781e+02,6.105865e+02
8.311708e+02,6.039969e+02
8.340635e+02,6.141533e+02
8.369562e+02,6.112632e+02
8.398489e+02,6.052285e+02
8.427416e+02,6.127948e+02
8.456343e+02,6.081309e+02
8.485270e+02,6.095847e+02
8.514197e+02,6.198636e+02
8.543124e+02,6.126370e+02
8.572051e+02,6.065610e+02
8.600978e+02,6.149816e+02
8.629905e+02,6.094889e+02
8.658832e+02,6.103708e+02
8.687759e+02,6.087236e+02
8.716686e+02,6.076807e+02
8.745613e+02,6.179237e+02
8.774540e+02,6.070595e+02
8.803467e+02,6.130754e+02
8.832394e+02,6.129283e+02
8.861321e+02,6.185327e+02
8.890248e+02,6.105091e+02
8.919175e+02,6.120555e+02
8.948102e+02,6.140629e+02
8.977029e+02,6.124840e+02
9.005956e+02,6.120696e+02
9.034883e+02,6.050872e+02
9.063810e+02,6.118627e+02
9.092737e+02,6.101559e+02
9.121664e+02,6.098874e+02
9.150591e+02,6.013279e+02
9.179518e+02,6.045196e+02
9.208445e+02,6.083978e+02
9.237372e+02,6.030426e+02
9.266299e+02,5.991017e+02
9.295226e+02,5.988095e+02
9.324153e+02,6.001539e+02
9.353080e+02,6.048958e+02
9.382007e+02,6.010163e+02
9.410934e+02,6.025947e+02
9.439861e+02,6.023600e+02
9.468788e+02,5.998467e+02
9.497715e+02,6.069498e+02
9.526642e+02,6.046938e+02
9.555569e+02,6.010906e+02
9.584496e+02,5.972451e+02
9.613423e+02,6.029124e+02
9.642350e+02,6.048288e+02
9.671277e+02,6.017189e+02
9.700204e+02,6.061135e+02
9.729131e+02,5.964683e+02
9.758058e+02,5.967717e+02
9.786985e+02,5.977890e+02
9.815912e+02,6.036462e+02
9.844839e+02,6.026951e+02
9.873766e+02,6.011209e+02
9.902693e+02,5.966061e+02
9.931620e+02,5.983826e+02
9.960547e+02,6.017150e+02
9.989474e+02,6.001492e+02
1.001840e+03,5.935757e+02
1.004733e+03,5.965161e+02
1.007626e+03,6.020936e+02
1.010518e+03,6.008782e+02
1.013411e+03,5.994755e+02
1.016304e+03,5.987781e+02
1.019196e+03,5.932077e+02
1.022089e+03,5.973217e+02
1.024982e+03,5.957234e+02
1.027875e+03,5.948652e+02
1.030767e+03,6.045625e+02
1.033660e+03,6.025011e+02
1.036552e+03,5.966697e+02
1.039445e+03,5.999421e+02
1.042338e+03,6.010026e+02
1.045231e+03,6.045468e+02
1.048123e+03,6.005945e+02
1.051016e+03,6.088463e+02
1.053909e+03,6.051611e+02
1.056802e+03,6.078156e+02
1.059694e+03,6.035214e+02
1.062587e+03,6.068288e+02
1.065479e+03,6.038578e+02
1.068372e+03,6.013342e+02
1.071265e+03,6.061629e+02
1.074158e+03,6.048431e+02
1.077050e+03,6.081311e+02
1.079943e+03,6.101771e+02
1.082836e+03,6.091657e+02
1.085729e+03,6.288450e+02
1.088621e+03,6.258980e+02
1.091514e+03,6.339781e+02
1.094406e+03,6.338366e+02
1.097299e+03,6.284904e+02
1.100192e+03,6.240779e+02
1.103085e+03,6.157449e+02
1.105977e+03,6.225364e+02
1.108870e+03,6.178829e+02
1.111763e+03,6.171243e+02
1.114656e+03,6.201750e+02
1.117548e+03,6.213945e+02
1.120441e+03,6.184229e+02
1.123334e+03,6.209572e+02
1.126226e+03,6.126032e+02
1.129119e+03,6.102592e+02
1.132012e+03,6.055331e+02
1.134904e+03,6.027321e+02
1.137797e+03,5.952161e+02
1.140690e+03,6.063538e+02
1.143583e+03,6.004522e+02
1.146475e+03,6.076338e+02
1.149368e+03,6.061072e+02
1.152261e+03,6.039628e+02
1.155153e+03,6.003047e+02
1.158046e+03,5.991635e+02
1.160939e+03,6.042066e+02
1.163831e+03,6.111890e+02
1.166724e+03,6.017236e+02
1.169617e+03,6.066609e+02
1.172510e+03,5.979481e+02
1.175402e+03,5.968598e+02
1.178295e+03,5.993976e+02
1.181188e+03,6.011631e+02
1.184080e+03,6.020206e+02
1.186973e+03,5.969202e+02
1.189866e+03,5.978508e+02
1.192758e+03,5.931458e+02
1.195651e+03,6.035099e+02
1.198544e+03,6.050748e+02
1.201437e+03,5.997745e+02
1.204329e+03,6.077453e+02
1.207222e+03,6.028924e+02
1.210115e+03,6.024396e+02
1.213007e+03,6.015529e+02
1.215900e+03,6.005400e+02
1.218793e+03,6.030125e+02
1.221685e+03,6.018196e+02
1.224578e+03,6.047380e+02
1.227471e+03,6.080193e+02
1.230364e+03,6.091799e+02
1.233256e+03,6.065749e+02
1.236149e+03,6.117698e+02
1.239042e+03,6.113849e+02
1.241934e+03,6.116398e+02
1.244827e+03,6.107552e+02
1.247720e+03,6.077061e+02
1.250612e+03,6.094460e+02
1.253505e+03,6.134232e+02
1.256398e+03,6.090958e+02
1.259291e+03,6.133036e+02
1.262183e+03,6.126519e+02
1.265076e+03,6.123767e+02
1.267969e+03,6.098025e+02
1.270861e+03,6.164707e+02
1.273754e+03,6.212624e+02
1.276647e+03,6.216149e+02
1.279539e+03,6.176464e+02
1.282432e+03,6.190551e+02
1.285325e+03,6.218430e+02
1.288218e+03,6.172194e+02
1.291110e+03,6.235861e+02
1.294003e+03,6.182382e+02
1.296896e+03,6.214817e+02
1.299788e+03,6.166317e+02
1.302681e+03,6.222487e+02
1.305574e+03,6.232725e+02
1.308466e+03,6.302051e+02
1.311359e+03,6.260656e+02
1.314252e+03,6.237498e+02
1.317145e+03,6.258359e+02
1.320037e+03,6.325450e+02
1.322930e+03,6.304171e+02
1.325823e+03,6.353597e+02
1.328715e+03,6.307399e+02
1.331608e+03,6.317260e+02
1.334501e+03,6.338782e+02
1.337393e+03,6.376146e+02
1.340286e+03,6.408030e+02
1.343179e+03,6.290629e+02
1.346072e+03,6.373909e+02
1.348964e+03,6.306617e+02
1.351857e+03,6.339838e+02
1.354750e+03,6.271497e+02
1.357642e+03,6.275777e+02
1.360535e+03,6.187385e+02
1.363428e+03,6.259553e+02
1.366320e+03,6.331473e+02
1.369213e+03,6.311955e+02
1.372106e+03,6.263930e+02
1.374999e+03,6.261202e+02
1.377891e+03,6.271107e+02
1.380784e+03,6.243665e+02
1.383677e+03,6.240787e+02
1.386569e+03,6.186569e+02
1.389462e+03,6.048834e+02
1.392355e+03,6.139826e+02
1.395247e+03,6.087022e+02
1.398140e+03,6.016710e+02
1.401033e+03,6.066896e+02
1.403926e+03,6.105755e+02
1.406818e+03,6.064207e+02
1.409711e+03,6.077596e+02
1.412604e+03,6.077424e+02
1.415496e+03,6.067037e+02
1.418389e+03,6.048672e+02
1.421282e+03,6.036835e+02
1.424174e+03,5.923494e+02
1.427067e+03,6.000203e+02
1.429960e+03,6.068666e+02
1.432853e+03,6.008760e+02
1.435745e+03,5.921226e+02
1.438638e+03,5.994890e+02
1.441531e+03,5.959715e+02
1.444423e+03,6.040753e+02
1.447316e+03,5.906597e+02
1.450209e+03,5.929275e+02
1.453101e+03,5.967396e+02
1.455994e+03,5.990339e+02
1.458887e+03,5.989407e+02
1.461780e+03,5.935939e+02
1.464672e+03,5.920906e+02
1.467565e+03,5.945476e+02
1.470458e+03,5.941367e+02
1.473350e+03,5.977407e+02
1.476243e+03,6.013747e+02
1.479136e+03,5.855317e+02
1.482028e+03,5.971859e+02
1.484921e+03,5.904363e+02
1.487814e+03,5.977635e+02
1.490707e+03,5.838552e+02
1.493599e+03,5.855092e+02
1.496492e+03,5.879687e+02
1.499385e+03,5.861374e+02
1.502277e+03,5.894230e+02
1.505170e+03,5.884261e+02
1.508063e+03,5.828992e+02
1.510955e+03,5.926315e+02
1.513848e+03,5.883172e+02
1.516741e+03,5.905328e+02
1.519634e+03,5.864030e+02
1.522526e+03,5.847995e+02
1.525419e+03,5.857700e+02
1.528312e+03,5.891129e+02
1.531204e+03,5.908477e+02
1.534097e+03,5.900302e+02
1.536990e+03,5.831690e+02
1.539882e+03,5.898630e+02
1.542775e+03,5.956584e+02
1.545668e+03,5.903092e+02
1.548561e+03,5.891298e+02
1.551453e+03,6.021641e+02
1.554346e+03,5.961629e+02
1.557239e+03,6.006465e+02
1.560131e+03,6.032646e+02
1.563024e+03,5.966663e+02
1.565917e+03,6.038389e+02
1.568809e+03,5.994620e+02
1.571702e+03,6.035052e+02
1.574595e+03,6.046747e+02
1.577488e+03,6.054551e+02
1.580380e+03,6.023613e+02
1.583273e+03,5.953404e+02
1.586166e+03,6.015379e+02
1.589058e+03,6.012939e+02
1.591951e+03,6.025361e+02
1.594844e+03,5.914359e+02
1.597736e+03,5.938915e+02
1.600629e+03,5.956456e+02
1.603522e+03,5.964744e+02
1.606415e+03,5.985003e+02
1.609307e+03,5.892753e+02
1.612200e+03,5.877154e+02
1.615093e+03,5.839634e+02
1.617985e+03,5.869422e+02
1.620878e+03,5.695694e+02
1.623771e+03,5.786981e+02
1.626663e+03,5.769532e+02
1.629556e+03,5.725593e+02
1.632449e+03,5.700469e+02
1.635342e+03,5.661588e+02
1.638234e+03,5.736473e+02
1.641127e+03,5.660453e+02
1.644020e+03,5.685212e+02
1.646912e+03,5.689948e+02
1.649805e+03,5.587093e+02
1.652698e+03,5.574946e+02
1.655590e+03,5.630317e+02
1.658483e+03,5.561066e+02
1.661376e+03,5.640592e+02
1.664269e+03,5.501024e+02
1.667161e+03,5.529822e+02
1.670054e+03,5.520872e+02
1.672947e+03,5.516917e+02
1.675839e+03,5.483045e+02
1.678732e+03,5.545104e+02
1.681625e+03,5.530960e+02
1.684517e+03,5.487039e+02
1.687410e+03,5.441462e+02
1.690303e+03,5.549785e+02
1.693196e+03,5.543894e+02
1.696088e+03,5.464314e+02
1.698981e+03,5.504991e+02
1.701874e+03,5.478969e+02
1.704766e+03,5.511857e+02
1.707659e+03,5.476496e+02
1.710552e+03,5.550754e+02
1.713444e+03,5.555731e+02
1.716337e+03,5.441403e+02
1.719230e+03,5.443021e+02
1.722123e+03,5.417594e+02
1.725015e+03,5.512966e+02
1.727908e+03,5.454247e+02
1.730801e+03,5.456331e+02
1.733693e+03,5.400290e+02
1.736586e+03,5.444332e+02
1.739479e+03,5.465037e+02
1.742371e+03,5.488147e+02
1.745264e+03,5.489440e+02
1.748157e+03,5.406526e+02
1.751050e+03,5.463928e+02
1.753942e+03,5.416851e+02
1.756835e+03,5.474529e+02
1.759728e+03,5.491523e+02
1.762620e+03,5.403969e+02
1.765513e+03,5.431806e+02
1.768406e+03,5.426386e+02
1.771298e+03,5.453679e+02
1.774191e+03,5.277824e+02
1.777084e+03,5.389969e+02
1.779977e+03,5.429651e+02
1.782869e+03,5.398558e+02
1.785762e+03,5.375698e+02
1.788655e+03,5.348180e+02
1.791547e+03,5.385267e+02
1.794440e+03,5.385544e+02
1.797333e+03,5.423331e+02
1.800225e+03,5.363798e+02
1.803118e+03,5.351769e+02
1.806011e+03,5.351007e+02
1.808904e+03,5.366292e+02
1.811796e+03,5.293294e+02
1.814689e+03,5.291368e+02
1.817582e+03,5.321619e+02
1.820474e+03,5.418047e+02
1.823367e+03,5.304385e+02
1.826260e+03,5.351764e+02
1.829152e+03,5.342294e+02
1.832045e+03,5.380482e+02
1.834938e+03,5.329869e+02
1.837831e+03,5.350153e+02
1.840723e+03,5.228608e+02
1.843616e+03,5.362307e+02
1.846509e+03,5.341956e+02
1.849401e+03,5.210045e+02
1.852294e+03,5.309825e+02
1.855187e+03,5.268973e+02
1.858079e+03,5.282067e+02
1.860972e+03,5.262919e+02
1.863865e+03,5.326218e+02
1.866758e+03,5.203936e+02
1.869650e+03,5.222669e+02
1.872543e+03,5.254576e+02
1.875436e+03,5.296856e+02
1.878328e+03,5.220600e+02
1.881221e+03,5.237922e+02
1.884114e+03,5.241286e+02
1.887006e+03,5.214389e+02
1.889899e+03,5.237347e+02
1.892792e+03,5.220599e+02
1.895685e+03,5.157609e+02
1.898577e+03,5.214999e+02
1.901470e+03,5.269843e+02
1.904363e+03,5.172908e+02
1.907255e+03,5.218382e+02
1.910148e+03,5.283975e+02
1.913041e+03,5.191142e+02
1.915933e+03,5.273004e+02
1.918826e+03,5.271207e+02
1.921719e+03,5.267188e+02
1.924612e+03,5.298710e+02
1.927504e+03,5.314828e+02
1.930397e+03,5.195978e+02
1.933290e+03,5.294249e+02
1.936182e+03,5.283774e+02
1.939075e+03,5.141041e+02
1.941968e+03,5.182188e+02
1.944860e+03,5.219748e+02
1.947753e+03,5.172134e+02
1.950646e+03,5.170527e+02
1.953539e+03,5.153729e+02
1.956431e+03,5.123092e+02
1.959324e+03,5.162912e+02
1.962217e+03,5.238965e+02
1.965109e+03,5.133676e+02
1.968002e+03,5.186670e+02
1.970895e+03,5.137307e+02
1.973787e+03,5.174490e+02
1.976680e+03,5.156075e+02
1.979573e+03,5.130174e+02
1.982466e+03,5.166565e+02
1.985358e+03,5.217905e+02
1.988251e+03,5.203478e+02
1.991144e+03,5.100189e+02
1.994036e+03,5.126859e+02
1.996929e+03,5.051763e+02
1.999822e+03,5.166895e+02
2.002714e+03,5.153351e+02
2.005607e+03,5.007396e+02
2.008500e+03,5.101681e+02
2.011393e+03,5.054716e+02
2.014285e+03,5.049073e+02
2.017178e+03,5.130453e+02
2.020071e+03,4.985370e+02
2.022963e+03,5.133961e+02
2.025856e+03,5.070550e+02
2.028749e+03,5.003180e+02
2.031641e+03,5.100368e+02
2.034534e+03,5.029560e+02
2.037427e+03,5.155722e+02
2.040320e+03,4.961997e+02
2.043212e+03,5.012583e+02
2.046105e+03,5.096780e+02
2.048998e+03,5.111773e+02
2.051890e+03,5.014453e+02
2.054783e+03,5.080854e+02
2.057676e+03,5.099229e+02
2.060568e+03,4.961668e+02
2.063461e+03,5.107766e+02
2.066354e+03,4.988721e+02
2.069247e+03,4.978319e+02
2.072139e+03,5.017337e+02
2.075032e+03,4.874420e+02
2.077925e+03,4.957216e+02
2.080817e+03,4.902133e+02
2.083710e+03,4.936113e+02
2.086603e+03,5.011787e+02
2.089496e+03,4.990757e+02
2.092388e+03,4.919110e+02
2.095281e+03,4.961045e+02
2.098174e+03,5.017380e+02
2.101066e+03,4.858781e+02
2.103959e+03,4.920254e+02
2.106852e+03,4.838460e+02
2.109744e+03,4.893428e+02
2.112637e+03,4.777197e+02
2.115530e+03,4.980511e+02
2.118422e+03,4.866569e+02
2.121315e+03,4.990504e+02
2.124208e+03,4.992711e+02
2.127101e+03,4.911174e+02
2.129993e+03,4.895978e+02
2.132886e+03,4.883399e+02
2.135779e+03,4.885092e+02
2.138671e+03,4.870844e+02
2.141564e+03,5.000031e+02
2.144457e+03,4.990040e+02
2.147350e+03,4.828419e+02
2.150242e+03,4.868154e+02
2.153135e+03,4.860097e+02
2.156028e+03,4.980887e+02
2.158920e+03,4.811744e+02
2.161813e+03,4.916409e+02
2.164706e+03,4.909356e+02
2.167598e+03,4.943040e+02
2.170491e+03,4.834006e+02
2.173384e+03,4.892497e+02
2.176277e+03,4.883339e+02
2.179169e+03,4.802542e+02
2.182062e+03,4.843139e+02
2.184955e+03,4.890172e+02
2.187847e+03,4.794472e+02
2.190740e+03,4.840611e+02
2.193633e+03,4.754546e+02
2.196525e+03,4.746849e+02
2.199418e+03,4.804370e+02
2.202311e+03,4.794713e+02
2.205204e+03,4.880363e+02
2.208096e+03,4.843675e+02
2.210989e+03,4.753569e+02
2.213882e+03,4.848310e+02
2.216774e+03,4.863438e+02
2.219667e+03,4.853121e+02
2.222560e+03,4.799200e+02
2.225452e+03,4.731475e+02
2.228345e+03,4.838963e+02
2.231238e+03,4.713332e+02
2.234131e+03,4.762382e+02
2.237023e+03,4.746137e+02
2.239916e+03,4.798782e+02
2.242809e+03,4.633100e+02
2.245701e+03,4.730343e+02
2.248594e+03,4.699022e+02
2.251487e+03,4.779458e+02
2.254379e+03,4.719701e+02
2.257272e+03,4.790926e+02
2.260165e+03,4.748635e+02
2.263058e+03,4.659381e+02
2.265950e+03,4.741934e+02
2.268843e+03,4.726776e+02
2.271736e+03,4.668853e+02
2.274628e+03,4.720644e+02
2.277521e+03,4.698379e+02
2.280414e+03,4.730012e+02
2.283306e+03,4.702962e+02
2.286199e+03,4.637940e+02
2.289092e+03,4.624255e+02
2.291985e+03,4.638555e+02
2.294877e+03,4.629940e+02
2.297770e+03,4.731342e+02
2.300663e+03,4.708689e+02
2.303555e+03,4.600699e+02
2.306448e+03,4.525768e+02
2.309341e+03,4.624947e+02
2.312233e+03,4.600426e+02
2.315126e+03,4.654893e+02
2.318019e+03,4.654149e+02
2.320912e+03,4.590860e+02
2.323804e+03,4.640816e+02
2.326697e+03,4.648582e+02
2.329590e+03,4.694457e+02
2.332482e+03,4.595756e+02
2.335375e+03,4.644506e+02
2.338268e+03,4.557351e+02
2.341160e+03,4.709863e+02
2.344053e+03,4.646543e+02
2.346946e+03,4.604233e+02
2.349839e+03,4.601910e+02
2.352731e+03,4.620875e+02
2.355624e+03,4.621521e+02
2.358517e+03,4.620816e+02
2.361409e+03,4.775011e+02
2.364302e+03,4.597156e+02
2.367195e+03,4.605686e+02
2.370087e+03,4.522842e+02
2.372980e+03,4.698698e+02
2.375873e+03,4.650300e+02
2.378766e+03,4.611707e+02
2.381658e+03,4.479120e+02
2.384551e+03,4.608600e+02
2.387444e+03,4.599055e+02
2.390336e+03,4.507334e+02
2.393229e+03,4.590771e+02
2.396122e+03,4.447530e+02
2.399014e+03,4.508633e+02
2.401907e+03,4.578280e+02
2.404800e+03,4.543014e+02
2.407693e+03,4.515444e+02
2.410585e+03,4.543707e+02
2.413478e+03,4.499608e+02
2.416371e+03,4.573292e+02
2.419263e+03,4.519489e+02
2.422156e+03,4.547937e+02
2.425049e+03,4.458303e+02
2.427941e+03,4.559307e+02
2.430834e+03,4.587514e+02
2.433727e+03,4.489977e+02
2.436620e+03,4.544917e+02
2.439512e+03,4.536403e+02
2.442405e+03,4.518124e+02
2.445298e+03,4.523328e+02
2.448190e+03,4.510242e+02
2.451083e+03,4.491769e+02
2.453976e+03,4.465585e+02
2.456868e+03,4.478791e+02
2.459761e+03,4.484710e+02
2.462654e+03,4.541828e+02
2.465547e+03,4.453409e+02
2.468439e+03,4.530675e+02
2.471332e+03,4.513412e+02
2.474225e+03,4.469449e+02
2.477117e+03,4.469794e+02
2.480010e+03,4.531867e+02
2.482903e+03,4.524404e+02
2.485795e+03,4.557065e+02
2.488688e+03,4.553575e+02
2.491581e+03,4.512116e+02
2.494474e+03,4.373939e+02
2.497366e+03,4.432201e+02
2.500259e+03,4.518656e+02
2.503152e+03,4.508316e+02
2.506044e+03,4.443662e+02
2.508937e+03,4.483629e+02
2.511830e+03,4.487281e+02
2.514722e+03,4.461507e+02
2.517615e+03,4.562580e+02
2.520508e+03,4.496716e+02
2.523401e+03,4.484895e+02
2.526293e+03,4.462909e+02
2.529186e+03,4.367202e+02
2.532079e+03,4.489936e+02
2.534971e+03,4.401074e+02
2.537864e+03,4.346691e+02
2.540757e+03,4.509989e+02
2.543649e+03,4.418269e+02
2.546542e+03,4.623241e+02
2.549435e+03,4.506721e+02
2.552328e+03,4.567909e+02
2.555220e+03,4.634956e+02
2.558113e+03,4.515752e+02
2.561006e+03,4.527763e+02
2.563898e+03,4.478371e+02
2.566791e+03,4.516083e+02
2.569684e+03,4.577642e+02
2.572576e+03,4.527545e+02
2.575469e+03,4.503793e+02
2.578362e+03,4.552731e+02
2.581255e+03,4.462889e+02
2.584147e+03,4.475118e+02
2.587040e+03,4.534552e+02
2.589933e+03,4.365929e+02
2.592825e+03,4.391568e+02
2.595718e+03,4.421541e+02
2.598611e+03,4.375805e+02
2.601503e+03,4.412958e+02
2.604396e+03,4.388058e+02
2.607289e+03,4.392287e+02
2.610182e+03,4.493381e+02
2.613074e+03,4.349258e+02
2.615967e+03,4.540051e+02
2.618860e+03,4.456666e+02
2.621752e+03,4.430975e+02
2.624645e+03,4.555567e+02
2.627538e+03,4.415276e+02
2.630430e+03,4.283186e+02
2.633323e+03,4.462282e+02
2.636216e+03,4.489011e+02
2.639109e+03,4.489209e+02
2.642001e+03,4.454256e+02
2.644894e+03,4.390207e+02
2.647787e+03,4.320730e+02
2.650679e+03,4.535804e+02
2.653572e+03,4.392695e+02
2.656465e+03,4.473497e+02
2.659357e+03,4.411286e+02
2.662250e+03,4.412023e+02
2.665143e+03,4.452279e+02
2.668036e+03,4.672101e+02
2.670928e+03,4.344420e+02
2.673821e+03,4.414493e+02
2.676714e+03,4.297569e+02
2.679606e+03,4.433516e+02
2.682499e+03,4.436758e+02
2.685392e+03,4.482469e+02
2.688284e+03,4.475817e+02
2.691177e+03,4.561526e+02
2.694070e+03,4.490600e+02
2.696963e+03,4.410437e+02
2.699855e+03,4.396181e+02
2.702748e+03,4.301933e+02
2.705641e+03,4.350051e+02
2.708533e+03,4.516063e+02
2.711426e+03,4.287188e+02
2.714319e+03,4.517749e+02
2.717211e+03,4.526348e+02
2.720104e+03,4.620637e+02
2.722997e+03,4.314057e+02
2.725890e+03,4.238405e+02
2.728782e+03,4.413258e+02
2.731675e+03,4.458197e+02
2.734568e+03,4.433766e+02
2.737460e+03,4.412183e+02
2.740353e+03,4.505545e+02
2.743246e+03,4.452997e+02
2.746138e+03,4.395656e+02
2.749031e+03,4.403604e+02
2.751924e+03,4.466809e+02
2.754817e+03,4.368466e+02
2.757709e+03,4.449798e+02
2.760602e+03,4.330864e+02
2.763495e+03,4.408291e+02
2.766387e+03,4.396877e+02
2.769280e+03,4.386329e+02
2.772173e+03,4.441551e+02
2.775065e+03,4.449068e+02
2.777958e+03,4.398331e+02
2.780851e+03,4.451913e+02
2.783744e+03,4.537560e+02
2.786636e+03,4.431069e+02
2.789529e+03,4.472730e+02
2.792422e+03,4.504086e+02
2.795314e+03,4.490746e+02
2.798207e+03,4.529610e+02
2.801100e+03,4.416898e+02
2.803992e+03,4.394249e+02
2.806885e+03,4.263982e+02
2.809778e+03,4.466194e+02
2.812671e+03,4.551190e+02
2.815563e+03,4.433545e+02
2.818456e+03,4.438553e+02
2.821349e+03,4.346582e+02
2.824241e+03,4.392597e+02
2.827134e+03,4.431445e+02
2.830027e+03,4.519302e+02
2.832919e+03,4.281951e+02
2.835812e+03,4.441590e+02
2.838705e+03,4.429879e+02
2.841598e+03,4.489387e+02
2.844490e+03,4.446904e+02
2.847383e+03,4.543398e+02
2.850276e+03,4.498913e+02
2.853168e+03,4.668794e+02
2.856061e+03,4.671480e+02
2.858954e+03,4.631797e+02
2.861846e+03,4.565550e+02
2.864739e+03,4.379507e+02
2.867632e+03,4.758580e+02
2.870525e+03,4.685909e+02
2.873417e+03,4.833999e+02
2.876310e+03,4.611968e+02
2.879203e+03,4.621698e+02
2.882095e+03,4.558492e+02
2.884988e+03,4.564057e+02
2.887881e+03,4.624537e+02
2.890773e+03,4.793105e+02
2.893666e+03,4.753609e+02
2.896559e+03,4.746049e+02
2.899452e+03,4.753618e+02
2.902344e+03,4.768339e+02
2.905237e+03,4.677453e+02
2.908130e+03,4.790076e+02
2.911022e+03,4.839931e+02
2.913915e+03,4.524614e+02
2.916808e+03,4.652398e+02
2.919700e+03,4.693089e+02
2.922593e+03,4.528589e+02
2.925486e+03,4.583855e+02
2.928379e+03,4.643634e+02
2.931271e+03,4.571600e+02
2.934164e+03,4.576043e+02
2.937057e+03,4.764416e+02
2.939949e+03,4.520583e+02
2.942842e+03,4.495067e+02
2.945735e+03,4.660848e+02
2.948627e+03,4.607357e+02
2.951520e+03,4.781187e+02
2.954413e+03,4.464040e+02
2.957306e+03,4.865676e+02
2.960198e+03,4.617342e+02
2.963091e+03,4.592697e+02
2.965984e+03,4.456500e+02
2.968876e+03,4.533110e+02
2.971769e+03,4.528073e+02
2.974662e+03,4.566730e+02
2.977554e+03,4.473605e+02
2.980447e+03,4.403599e+02
2.983340e+03,4.532017e+02
2.986233e+03,4.469881e+02
2.989125e+03,4.430684e+02
2.992018e+03,4.485885e+02
2.994911e+03,4.361075e+02
2.997803e+03,4.415646e+02
3.000696e+03,4.600666e+02
3.003589e+03,4.260531e+02
3.006481e+03,4.633061e+02
3.009374e+03,4.257957e+02
3.012267e+03,4.505093e+02
3.015160e+03,4.493737e+02
3.018052e+03,4.268037e+02
3.020945e+03,4.306646e+02
3.023838e+03,4.256268e+02
3.026730e+03,4.346586e+02
3.029623e+03,4.250767e+02
3.032516e+03,4.578077e+02
3.035408e+03,4.201069e+02
3.038301e+03,4.476338e+02
3.041194e+03,4.352925e+02
3.044087e+03,4.223399e+02
3.046979e+03,4.704546e+02
3.049872e+03,4.352820e+02
3.052765e+03,4.386339e+02
3.055657e+03,4.192111e+02
3.058550e+03,4.405334e+02
3.061443e+03,4.500970e+02
3.064335e+03,4.371080e+02
3.067228e+03,4.261514e+02
3.070121e+03,4.565184e+02
3.073014e+03,4.452334e+02
3.075906e+03,4.445572e+02
3.078799e+03,4.304341e+02
3.081692e+03,4.590627e+02
3.084584e+03,4.390298e+02
3.087477e+03,4.577035e+02
3.090370e+03,4.300656e+02
3.093262e+03,4.190611e+02
3.096155e+03,4.442403e+02
3.099048e+03,4.337805e+02
3.101941e+03,4.364013e+02
3.104833e+03,4.393949e+02
3.107726e+03,4.591012e+02
3.110619e+03,4.450549e+02
3.113511e+03,4.659526e+02
3.116404e+03,4.549886e+02
3.119297e+03,4.570923e+02
3.122189e+03,4.653646e+02
3.125082e+03,4.680284e+02
3.127975e+03,4.578431e+02
3.130868e+03,4.659438e+02
3.133760e+03,4.657674e+02
3.136653e+03,4.588072e+02
3.139546e+03,4.409833e+02
3.142438e+03,4.709423e+02
3.145331e+03,4.147993e+02
3.148224e+03,4.541219e+02
3.151116e+03,4.554357e+02
3.154009e+03,4.492422e+02
3.156902e+03,4.705056e+02
3.159795e+03,4.326546e+02
3.162687e+03,4.534156e+02
3.165580e+03,4.672805e+02
3.168473e+03,4.610485e+02
3.171365e+03,4.741927e+02
3.174258e+03,4.450653e+02
3.177151e+03,4.524164e+02
3.180043e+03,4.620508e+02
3.182936e+03,4.438302e+02
3.185829e+03,4.710600e+02
3.188722e+03,4.453739e+02
3.191614e+03,4.815501e+02
3.194507e+03,4.826861e+02
3.197400e+03,4.360385e+02
3.200292e+03,4.792867e+02
3.203185e+03,0.000000e+00
3.206078e+03,0.000000e+00
3.208970e+03,0.000000e+00
3.211863e+03,0.000000e+00
3.214756e+03,0.000000e+00
3.217649e+03,0.000000e+00
3.220541e+03,0.000000e+00
3.223434e+03,0.000000e+00
3.226327e+03,0.000000e+00
3.229219e+03,0.000000e+00
3.232112e+03,0.000000e+00
3.235005e+03,0.000000e+00
3.237897e+03,0.000000e+00
3.240790e+03,0.000000e+00
3.243683e+03,0.000000e+00
3.246576e+03,0.000000e+00
3.249468e+03,0.000000e+00
3.252361e+03,0.000000e+00
3.255254e+03,0.000000e+00
3.258146e+03,0.000000e+00
3.261039e+03,0.000000e+00
3.263932e+03,0.000000e+00
3.266824e+03,0.000000e+00
3.269717e+03,0.000000e+00
3.272610e+03,0.000000e+00
3.275503e+03,0.000000e+00
3.278395e+03,0.000000e+00
3.281288e+03,0.000000e+00
3.284181e+03,0.000000e+00
3.287073e+03,0.000000e+00
3.289966e+03,0.000000e+00
3.292859e+03,0.000000e+00
3.295751e+03,0.000000e+00
3.298644e+03,0.000000e+00
3.301537e+03,0.000000e+00
3.304430e+03,0.000000e+00
3.307322e+03,0.000000e+00
3.310215e+03,0.000000e+00
3.313108e+03,0.000000e+00
3.316000e+03,0.000000e+00
3.318893e+03,0.000000e+00
3.321786e+03,0.000000e+00
3.324678e+03,0.000000e+00
3.327571e+03,0.000000e+00
3.330464e+03,0.000000e+00
3.333357e+03,0.000000e+00
3.336249e+03,0.000000e+00
3.339142e+03,0.000000e+00
3.342035e+03,0.000000e+00
3.344927e+03,0.000000e+00
3.347820e+03,0.000000e+00
3.350713e+03,0.000000e+00
3.353605e+03,0.000000e+00
3.356498e+03,0.000000e+00
3.359391e+03,0.000000e+00
3.362284e+03,0.000000e+00
3.365176e+03,0.000000e+00
3.368069e+03,0.000000e+00
3.370962e+03,0.000000e+00
3.373854e+03,0.000000e+00
3.376747e+03,0.000000e+00
3.379640e+03,0.000000e+00
3.382532e+03,0.000000e+00
3.385425e+03,0.000000e+00
3.388318e+03,0.000000e+00
3.391211e+03,0.000000e+00
3.394103e+03,0.000000e+00
3.396996e+03,0.000000e+00
3.399889e+03,0.000000e+00
3.402781e+03,0.000000e+00
3.405674e+03,0.000000e+00
3.408567e+03,0.000000e+00
3.411459e+03,0.000000e+00
3.414352e+03,0.000000e+00
3.417245e+03,0.000000e+00
3.420138e+03,0.000000e+00
3.423030e+03,0.000000e+00
3.425923e+03,0.000000e+00
3.428816e+03,0.000000e+00
3.431708e+03,0.000000e+00
3.434601e+03,0.000000e+00
3.437494e+03,0.000000e+00
3.440386e+03,0.000000e+00
3.443279e+03,0.000000e+00
3.446172e+03,0.000000e+00
3.449065e+03,0.000000e+00
3.451957e+03,0.000000e+00
3.454850e+03,0.000000e+00
3.457743e+03,0.000000e+00
3.460635e+03,0.000000e+00
3.463528e+03,0.000000e+00
3.466421e+03,0.000000e+00
3.469313e+03,0.000000e+00
3.472206e+03,0.000000e+00
3.475099e+03,0.000000e+00
3.477992e+03,0.000000e+00
3.480884e+03,0.000000e+00
3.483777e+03,0.000000e+00
3.486670e+03,0.000000e+00
3.489563e+03,0.000000e+00
3.492455e+03,0.000000e+00
3.495348e+03,0.000000e+00
3.498240e+03,0.000000e+00
3.500169e+03,0.000000e+00