File: RAMAN_data/12022024_r2/black fibre9.CSV
9.931763e+01,0.000000e+00
1.022103e+02,0.000000e+00
1.051030e+02,0.000000e+00
1.079957e+02,0.000000e+00
1.108884e+02,0.000000e+00
1.137811e+02,0.000000e+00
1.166738e+02,0.000000e+00
1.195665e+02,0.000000e+00
1.224592e+02,0.000000e+00
1.253519e+02,0.000000e+00
1.282446e+02,0.000000e+00
1.311373e+02,0.000000e+00
1.340300e+02,0.000000e+00
1.369227e+02,0.000000e+00
1.398154e+02,0.000000e+00
1.427081e+02,0.000000e+00
1.456008e+02,0.000000e+00
1.484935e+02,0.000000e+00
1.513862e+02,0.000000e+00
1.542789e+02,0.000000e+00
1.571716e+02,0.000000e+00
1.600643e+02,0.000000e+00
1.629570e+02,0.000000e+00
1.658497e+02,0.000000e+00
1.687424e+02,0.000000e+00
1.716351e+02,0.000000e+00
1.745278e+02,0.000000e+00
1.774205e+02,0.000000e+00
1.803132e+02,0.000000e+00
1.832059e+02,0.000000e+00
1.860986e+02,0.000000e+00
1.889913e+02,0.000000e+00
1.918840e+02,0.000000e+00
1.947767e+02,0.000000e+00
1.976694e+02,0.000000e+00
2.005621e+02,5.188861e+03
2.034548e+02,5.204392e+03
2.063475e+02,5.222154e+03
2.092402e+02,5.241531e+03
2.121329e+02,5.225712e+03
2.150256e+02,5.240034e+03
2.179183e+02,5.254842e+03
2.208110e+02,5.282224e+03
2.237037e+02,5.291961e+03
2.265964e+02,5.285479e+03
2.294892e+02,5.287915e+03
2.323819e+02,5.307166e+03
2.352746e+02,5.324003e+03
2.381673e+02,5.340562e+03
2.410600e+02,5.354038e+03
2.439527e+02,5.347940e+03
2.468454e+02,5.356896e+03
2.497381e+02,5.362267e+03
2.526308e+02,5.395334e+03
2.555235e+02,5.394698e+03
2.584161e+02,5.399968e+03
2.613088e+02,5.427042e+03
2.642015e+02,5.436591e+03
2.670942e+02,5.448157e+03
2.699869e+02,5.466320e+03
2.728796e+02,5.466664e+03
2.757723e+02,5.457565e+03
2.786650e+02,5.470350e+03
2.815577e+02,5.495818e+03
2.844504e+02,5.501205e+03
2.873431e+02,5.511420e+03
2.902358e+02,5.493030e+03
2.931285e+02,5.510939e+03
2.960212e+02,5.516041e+03
2.989139e+02,5.513753e+03
3.018066e+02,5.525567e+03
3.046993e+02,5.546069e+03
3.075920e+02,5.528637e+03
3.104847e+02,5.545396e+03
3.133774e+02,5.560779e+03
3.162701e+02,5.580292e+03
3.191628e+02,5.575406e+03
3.220555e+02,5.587657e+03
3.249482e+02,5.583815e+03
3.278409e+02,5.600116e+03
3.307336e+02,5.591833e+03
3.336263e+02,5.596338e+03
3.365190e+02,5.601376e+03
3.394117e+02,5.622477e+03
3.423044e+02,5.619904e+03
3.451971e+02,5.635627e+03
3.480898e+02,5.641443e+03
3.509825e+02,5.635620e+03
3.538752e+02,5.644342e+03
3.567680e+02,5.672695e+03
3.596607e+02,5.673994e+03
3.625534e+02,5.678302e+03
3.654461e+02,5.662263e+03
3.683388e+02,5.667675e+03
3.712315e+02,5.687523e+03
3.741242e+02,5.722285e+03
3.770169e+02,5.731047e+03
3.799096e+02,5.734067e+03
3.828023e+02,5.700647e+03
3.856950e+02,5.717118e+03
3.885877e+02,5.713528e+03
3.914804e+02,5.731825e+03
3.943731e+02,5.721989e+03
3.972658e+02,5.719732e+03
4.001585e+02,5.738475e+03
4.030512e+02,5.730769e+03
4.059439e+02,5.751804e+03
4.088366e+02,5.752295e+03
4.117293e+02,5.752125e+03
4.146220e+02,5.741123e+03
4.175147e+02,5.754249e+03
4.204074e+02,5.773374e+03
4.233001e+02,5.764858e+03
4.261928e+02,5.780040e+03
4.290855e+02,5.770150e+03
4.319782e+02,5.770375e+03
4.348709e+02,5.777112e+03
4.377636e+02,5.782728e+03
4.406563e+02,5.783912e+03
4.435490e+02,5.782520e+03
4.464417e+02,5.789665e+03
4.493344e+02,5.786414e+03
4.522271e+02,5.827941e+03
4.551198e+02,5.824424e+03
4.580125e+02,5.796216e+03
4.609052e+02,5.798661e+03
4.637979e+02,5.817915e+03
4.666906e+02,5.828673e+03
4.695833e+02,5.837845e+03
4.724760e+02,5.817675e+03
4.753687e+02,5.823788e+03
4.782614e+02,5.821016e+03
4.811541e+02,5.816141e+03
4.840468e+02,5.829109e+03
4.869395e+02,5.833896e+03
4.898322e+02,5.856172e+03
4.927249e+02,5.833531e+03
4.956176e+02,5.821873e+03
4.985103e+02,5.830576e+03
5.014030e+02,5.858672e+03
5.042957e+02,5.859118e+03
5.071884e+02,5.842718e+03
5.100811e+02,5.837136e+03
5.129738e+02,5.867836e+03
5.158665e+02,5.896551e+03
5.187592e+02,5.899274e+03
5.216519e+02,5.869491e+03
5.245446e+02,5.866208e+03
5.274373e+02,5.868885e+03
5.303300e+02,5.896929e+03
5.332227e+02,5.874873e+03
5.361154e+02,5.892072e+03
5.390081e+02,5.880589e+03
5.419008e+02,5.879969e+03
5.447935e+02,5.901774e+03
5.476862e+02,5.901563e+03
5.505789e+02,5.869677e+03
5.534716e+02,5.866175e+03
5.563643e+02,5.915409e+03
5.592570e+02,5.912995e+03
5.621497e+02,5.911863e+03
5.650424e+02,5.907769e+03
5.679351e+02,5.907112e+03
5.708278e+02,5.895238e+03
5.737205e+02,5.882833e+03
5.766132e+02,5.922087e+03
5.795059e+02,5.908595e+03
5.823986e+02,5.904334e+03
5.852913e+02,5.913514e+03
5.881840e+02,5.914906e+03
5.910767e+02,5.930428e+03
5.939694e+02,5.933201e+03
5.968621e+02,5.927159e+03
5.997548e+02,5.918253e+03
6.026475e+02,5.957804e+03
6.055402e+02,5.963468e+03
6.084329e+02,5.930229e+03
6.113256e+02,5.922289e+03
6.142183e+02,5.921664e+03
6.171110e+02,5.941940e+03
6.200037e+02,5.970453e+03
6.228964e+02,5.958996e+03
6.257891e+02,5.945803e+03
6.286818e+02,5.945251e+03
6.315745e+02,5.939392e+03
6.344672e+02,5.942573e+03
6.373599e+02,5.955656e+03
6.402526e+02,5.938086e+03
6.431453e+02,5.950616e+03
6.460380e+02,5.915387e+03
6.489307e+02,5.956370e+03
6.518234e+02,5.951424e+03
6.547161e+02,5.954739e+03
6.576088e+02,5.934063e+03
6.605015e+02,5.925604e+03
6.633942e+02,5.937417e+03
6.662869e+02,5.962412e+03
6.691796e+02,5.954435e+03
6.720723e+02,5.954786e+03
6.749650e+02,5.938406e+03
6.778577e+02,5.943649e+03
6.807504e+02,5.959829e+03
6.836431e+02,5.962254e+03
6.865358e+02,5.939232e+03
6.894285e+02,5.943022e+03
6.923212e+02,5.948796e+03
6.952139e+02,5.961133e+03
6.981066e+02,5.950178e+03
7.009993e+02,5.974550e+03
7.038920e+02,5.959742e+03
7.067847e+02,5.962969e+03
7.096774e+02,5.962319e+03
7.125701e+02,5.981009e+03
7.154628e+02,5.959297e+03
7.183555e+02,5.962083e+03
7.212482e+02,5.952061e+03
7.241409e+02,5.946686e+03
7.270336e+02,5.953781e+03
7.299263e+02,5.968077e+03
7.328190e+02,5.967577e+03
7.357117e+02,5.953283e+03
7.386044e+02,5.953388e+03
7.414971e+02,5.980476e+03
7.443898e+02,5.953923e+03
7.472825e+02,5.980702e+03
7.501752e+02,5.955981e+03
7.530679e+02,5.950540e+03
7.559606e+02,5.965928e+03
7.588533e+02,5.966968e+03
7.617460e+02,5.994185e+03
7.646387e+02,5.981655e+03
7.675314e+02,5.962116e+03
7.704241e+02,5.960334e+03
7.733168e+02,5.943159e+03
7.762095e+02,5.966516e+03
7.791022e+02,5.996784e+03
7.819949e+02,6.005814e+03
7.848876e+02,5.964912e+03
7.877803e+02,5.998869e+03
7.906730e+02,6.000538e+03
7.935657e+02,5.978116e+03
7.964584e+02,5.959469e+03
7.993511e+02,5.974276e+03
8.022438e+02,5.959486e+03
8.051365e+02,5.978624e+03
8.080292e+02,5.988899e+03
8.109219e+02,5.983096e+03
8.138146e+02,5.967736e+03
8.167073e+02,5.986821e+03
8.196000e+02,5.988453e+03
8.224927e+02,5.979950e+03
8.253854e+02,5.982065e+03
8.282781e+02,5.993976e+03
8.311708e+02,5.992713e+03
8.340635e+02,5.979711e+03
8.369562e+02,5.985469e+03
8.398489e+02,6.006361e+03
8.427416e+02,5.991186e+03
8.456343e+02,6.001653e+03
8.485270e+02,5.994742e+03
8.514197e+02,5.997567e+03
8.543124e+02,6.022368e+03
8.572051e+02,6.015010e+03
8.600978e+02,5.996891e+03
8.629905e+02,5.985661e+03
8.658832e+02,5.980452e+03
8.687759e+02,6.009557e+03
8.716686e+02,6.032531e+03
8.745613e+02,6.017855e+03
8.774540e+02,6.005652e+03
8.803467e+02,6.008250e+03
8.832394e+02,6.036604e+03
8.861321e+02,6.017994e+03
8.890248e+02,6.012003e+03
8.919175e+02,5.996028e+03
8.948102e+02,6.010838e+03
8.977029e+02,6.014641e+03
9.005956e+02,6.027518e+03
9.034883e+02,6.018728e+03
9.063810e+02,6.039264e+03
9.092737e+02,6.009193e+03
9.121664e+02,6.027513e+03
9.150591e+02,6.024734e+03
9.179518e+02,6.042694e+03
9.208445e+02,6.010558e+03
9.237372e+02,6.007979e+03
9.266299e+02,6.005228e+03
9.295226e+02,6.018188e+03
9.324153e+02,6.023866e+03
9.353080e+02,6.024237e+03
9.382007e+02,6.028102e+03
9.410934e+02,6.023543e+03
9.439861e+02,6.026914e+03
9.468788e+02,6.038940e+03
9.497715e+02,6.024789e+03
9.526642e+02,6.028494e+03
9.555569e+02,6.012173e+03
9.584496e+02,6.014039e+03
9.613423e+02,6.051042e+03
9.642350e+02,6.037361e+03
9.671277e+02,6.028281e+03
9.700204e+02,6.029200e+03
9.729131e+02,6.010418e+03
9.758058e+02,6.034446e+03
9.786985e+02,6.040899e+03
9.815912e+02,6.054534e+03
9.844839e+02,6.006261e+03
9.873766e+02,6.051992e+03
9.902693e+02,6.045416e+03
9.931620e+02,6.081820e+03
9.960547e+02,6.080524e+03
9.989474e+02,6.055297e+03
1.001840e+03,6.056346e+03
1.004733e+03,6.062615e+03
1.007626e+03,6.068282e+03
1.010518e+03,6.067710e+03
1.013411e+03,6.070344e+03
1.016304e+03,6.059285e+03
1.019196e+03,6.045408e+03
1.022089e+03,6.066737e+03
1.024982e+03,6.092664e+03
1.027875e+03,6.076204e+03
1.030767e+03,6.086657e+03
1.033660e+03,6.089592e+03
1.036552e+03,6.115011e+03
1.039445e+03,6.088113e+03
1.042338e+03,6.092106e+03
1.045231e+03,6.097708e+03
1.048123e+03,6.107761e+03
1.051016e+03,6.084232e+03
1.053909e+03,6.124995e+03
1.056802e+03,6.112894e+03
1.059694e+03,6.103451e+03
1.062587e+03,6.088654e+03
1.065479e+03,6.126127e+03
1.068372e+03,6.129485e+03
1.071265e+03,6.151247e+03
1.074158e+03,6.149968e+03
1.077050e+03,6.128197e+03
1.079943e+03,6.143126e+03
1.082836e+03,6.141144e+03
1.085729e+03,6.149668e+03
1.088621e+03,6.165000e+03
1.091514e+03,6.169836e+03
1.094406e+03,6.161570e+03
1.097299e+03,6.156744e+03
1.100192e+03,6.162522e+03
1.103085e+03,6.173323e+03
1.105977e+03,6.166740e+03
1.108870e+03,6.149063e+03
1.111763e+03,6.190950e+03
1.114656e+03,6.173720e+03
1.117548e+03,6.209676e+03
1.120441e+03,6.208104e+03
1.123334e+03,6.200173e+03
1.126226e+03,6.165011e+03
1.129119e+03,6.181656e+03
1.132012e+03,6.195235e+03
1.134904e+03,6.221099e+03
1.137797e+03,6.213477e+03
1.140690e+03,6.220956e+03
1.143583e+03,6.228510e+03
1.146475e+03,6.230001e+03
1.149368e+03,6.235137e+03
1.152261e+03,6.268004e+03
1.155153e+03,6.238483e+03
1.158046e+03,6.248498e+03
1.160939e+03,6.261017e+03
1.163831e+03,6.271026e+03
1.166724e+03,6.280564e+03
1.169617e+03,6.255012e+03
1.172510e+03,6.265886e+03
1.175402e+03,6.263244e+03
1.178295e+03,6.288364e+03
1.181188e+03,6.294377e+03
1.184080e+03,6.300722e+03
1.186973e+03,6.298693e+03
1.189866e+03,6.311065e+03
1.192758e+03,6.313368e+03
1.195651e+03,6.333664e+03
1.198544e+03,6.357567e+03
1.201437e+03,6.330674e+03
1.204329e+03,6.302593e+03
1.207222e+03,6.346539e+03
1.210115e+03,6.359022e+03
1.213007e+03,6.384442e+03
1.215900e+03,6.376659e+03
1.218793e+03,6.366483e+03
1.221685e+03,6.369470e+03
1.224578e+03,6.389763e+03
1.227471e+03,6.416358e+03
1.230364e+03,6.431321e+03
1.233256e+03,6.371969e+03
1.236149e+03,6.384485e+03
1.239042e+03,6.434783e+03
1.241934e+03,6.430475e+03
1.244827e+03,6.426158e+03
1.247720e+03,6.409224e+03
1.250612e+03,6.399737e+03
1.253505e+03,6.416774e+03
1.256398e+03,6.408738e+03
1.259291e+03,6.424513e+03
1.262183e+03,6.424167e+03
1.265076e+03,6.407249e+03
1.267969e+03,6.414672e+03
1.270861e+03,6.448006e+03
1.273754e+03,6.437560e+03
1.276647e+03,6.462849e+03
1.279539e+03,6.446820e+03
1.282432e+03,6.442167e+03
1.285325e+03,6.454670e+03
1.288218e+03,6.487310e+03
1.291110e+03,6.467704e+03
1.294003e+03,6.472693e+03
1.296896e+03,6.461959e+03
1.299788e+03,6.427864e+03
1.302681e+03,6.480322e+03
1.305574e+03,6.505907e+03
1.308466e+03,6.501015e+03
1.311359e+03,6.480709e+03
1.314252e+03,6.522689e+03
1.317145e+03,6.506504e+03
1.320037e+03,6.547102e+03
1.322930e+03,6.545693e+03
1.325823e+03,6.527229e+03
1.328715e+03,6.514091e+03
1.331608e+03,6.554298e+03
1.334501e+03,6.586135e+03
1.337393e+03,6.563989e+03
1.340286e+03,6.578902e+03
1.343179e+03,6.557575e+03
1.346072e+03,6.563354e+03
1.348964e+03,6.562583e+03
1.351857e+03,6.570119e+03
1.354750e+03,6.547269e+03
1.357642e+03,6.544689e+03
1.360535e+03,6.524295e+03
1.363428e+03,6.542647e+03
1.366320e+03,6.566401e+03
1.369213e+03,6.551550e+03
1.372106e+03,6.515453e+03
1.374999e+03,6.511596e+03
1.377891e+03,6.546051e+03
1.380784e+03,6.523384e+03
1.383677e+03,6.522718e+03
1.386569e+03,6.516729e+03
1.389462e+03,6.508987e+03
1.392355e+03,6.496548e+03
1.395247e+03,6.522944e+03
1.398140e+03,6.488297e+03
1.401033e+03,6.507092e+03
1.403926e+03,6.500708e+03
1.406818e+03,6.517811e+03
1.409711e+03,6.511456e+03
1.412604e+03,6.524436e+03
1.415496e+03,6.515122e+03
1.418389e+03,6.499499e+03
1.421282e+03,6.501031e+03
1.424174e+03,6.499514e+03
1.427067e+03,6.503369e+03
1.429960e+03,6.522809e+03
1.432853e+03,6.519783e+03
1.435745e+03,6.504642e+03
1.438638e+03,6.499064e+03
1.441531e+03,6.496188e+03
1.444423e+03,6.502553e+03
1.447316e+03,6.497666e+03
1.450209e+03,6.494965e+03
1.453101e+03,6.476588e+03
1.455994e+03,6.481589e+03
1.458887e+03,6.495288e+03
1.461780e+03,6.499779e+03
1.464672e+03,6.485125e+03
1.467565e+03,6.465279e+03
1.470458e+03,6.498644e+03
1.473350e+03,6.467340e+03
1.476243e+03,6.518785e+03
1.479136e+03,6.480402e+03
1.482028e+03,6.474925e+03
1.484921e+03,6.486552e+03
1.487814e+03,6.506750e+03
1.490707e+03,6.509454e+03
1.493599e+03,6.479308e+03
1.496492e+03,6.487241e+03
1.499385e+03,6.499771e+03
1.502277e+03,6.462882e+03
1.505170e+03,6.510689e+03
1.508063e+03,6.496966e+03
1.510955e+03,6.480599e+03
1.513848e+03,6.477320e+03
1.516741e+03,6.491033e+03
1.519634e+03,6.485263e+03
1.522526e+03,6.505763e+03
1.525419e+03,6.476961e+03
1.528312e+03,6.497023e+03
1.531204e+03,6.486159e+03
1.534097e+03,6.486906e+03
1.536990e+03,6.500585e+03
1.539882e+03,6.495236e+03
1.542775e+03,6.518407e+03
1.545668e+03,6.498007e+03
1.548561e+03,6.534146e+03
1.551453e+03,6.542889e+03
1.554346e+03,6.528937e+03
1.557239e+03,6.546132e+03
1.560131e+03,6.540749e+03
1.563024e+03,6.504655e+03
1.565917e+03,6.565536e+03
1.568809e+03,6.598168e+03
1.571702e+03,6.564265e+03
1.574595e+03,6.566945e+03
1.577488e+03,6.564359e+03
1.580380e+03,6.582454e+03
1.583273e+03,6.594871e+03
1.586166e+03,6.583874e+03
1.589058e+03,6.566452e+03
1.591951e+03,6.567664e+03
1.594844e+03,6.586605e+03
1.597736e+03,6.576505e+03
1.600629e+03,6.566803e+03
1.603522e+03,6.558002e+03
1.606415e+03,6.506939e+03
1.609307e+03,6.534667e+03
1.612200e+03,6.494828e+03
1.615093e+03,6.500920e+03
1.617985e+03,6.488978e+03
1.620878e+03,6.474407e+03
1.623771e+03,6.459181e+03
1.626663e+03,6.450636e+03
1.629556e+03,6.423118e+03
1.632449e+03,6.441221e+03
1.635342e+03,6.406267e+03
1.638234e+03,6.417119e+03
1.641127e+03,6.424511e+03
1.644020e+03,6.373575e+03
1.646912e+03,6.383507e+03
1.649805e+03,6.357747e+03
1.652698e+03,6.381403e+03
1.655590e+03,6.367879e+03
1.658483e+03,6.373143e+03
1.661376e+03,6.368035e+03
1.664269e+03,6.375981e+03
1.667161e+03,6.378230e+03
1.670054e+03,6.331201e+03
1.672947e+03,6.333379e+03
1.675839e+03,6.348820e+03
1.678732e+03,6.341547e+03
1.681625e+03,6.347946e+03
1.684517e+03,6.331402e+03
1.687410e+03,6.351518e+03
1.690303e+03,6.328333e+03
1.693196e+03,6.324874e+03
1.696088e+03,6.346107e+03
1.698981e+03,6.335728e+03
1.701874e+03,6.332135e+03
1.704766e+03,6.311852e+03
1.707659e+03,6.320367e+03
1.710552e+03,6.301721e+03
1.713444e+03,6.317369e+03
1.716337e+03,6.285382e+03
1.719230e+03,6.290546e+03
1.722123e+03,6.288177e+03
1.725015e+03,6.277515e+03
1.727908e+03,6.266324e+03
1.730801e+03,6.270753e+03
1.733693e+03,6.280373e+03
1.736586e+03,6.300890e+03
1.739479e+03,6.288817e+03
1.742371e+03,6.257013e+03
1.745264e+03,6.248463e+03
1.748157e+03,6.245365e+03
1.751050e+03,6.260145e+03
1.753942e+03,6.239028e+03
1.756835e+03,6.276335e+03
1.759728e+03,6.246774e+03
1.762620e+03,6.227568e+03
1.765513e+03,6.238983e+03
1.768406e+03,6.217220e+03
1.771298e+03,6.222140e+03
1.774191e+03,6.194596e+03
1.777084e+03,6.207967e+03
1.779977e+03,6.188175e+03
1.782869e+03,6.201548e+03
1.785762e+03,6.226048e+03
1.788655e+03,6.206193e+03
1.791547e+03,6.188112e+03
1.794440e+03,6.184197e+03
1.797333e+03,6.215562e+03
1.800225e+03,6.173119e+03
1.803118e+03,6.201026e+03
1.806011e+03,6.156889e+03
1.808904e+03,6.169891e+03
1.811796e+03,6.201995e+03
1.814689e+03,6.173455e+03
1.817582e+03,6.203586e+03
1.820474e+03,6.163571e+03
1.823367e+03,6.170736e+03
1.826260e+03,6.135511e+03
1.829152e+03,6.157728e+03
1.832045e+03,6.112159e+03
1.834938e+03,6.154420e+03
1.837831e+03,6.118831e+03
1.840723e+03,6.112761e+03
1.843616e+03,6.172948e+03
1.846509e+03,6.087388e+03
1.849401e+03,6.130821e+03
1.852294e+03,6.100863e+03
1.855187e+03,6.079079e+03
1.858079e+03,6.107827e+03
1.860972e+03,6.065861e+03
1.863865e+03,6.091379e+03
1.866758e+03,6.052841e+03
1.869650e+03,6.034522e+03
1.872543e+03,6.044646e+03
1.875436e+03,6.091801e+03
1.878328e+03,6.035259e+03
1.881221e+03,6.032775e+03
1.884114e+03,6.048176e+03
1.887006e+03,6.005111e+03
1.889899e+03,6.045028e+03
1.892792e+03,6.038768e+03
1.895685e+03,6.004850e+03
1.898577e+03,6.012585e+03
1.901470e+03,6.031396e+03
1.904363e+03,5.988114e+03
1.907255e+03,6.002062e+03
1.910148e+03,5.999198e+03
1.913041e+03,5.997319e+03
1.915933e+03,5.950788e+03
1.918826e+03,5.947373e+03
1.921719e+03,5.988948e+03
1.924612e+03,5.941204e+03
1.927504e+03,5.982667e+03
1.930397e+03,5.955776e+03
1.933290e+03,5.943988e+03
1.936182e+03,5.965884e+03
1.939075e+03,5.937072e+03
1.941968e+03,5.962570e+03
1.944860e+03,5.878788e+03
1.947753e+03,5.929594e+03
1.950646e+03,5.905731e+03
1.953539e+03,5.919549e+03
1.956431e+03,5.904124e+03
1.959324e+03,5.909565e+03
1.962217e+03,5.898299e+03
1.965109e+03,5.843057e+03
1.968002e+03,5.897988e+03
1.970895e+03,5.868396e+03
1.973787e+03,5.883216e+03
1.976680e+03,5.844033e+03
1.979573e+03,5.861041e+03
1.982466e+03,5.844031e+03
1.985358e+03,5.856705e+03
1.988251e+03,5.868706e+03
1.991144e+03,5.851549e+03
1.994036e+03,5.820640e+03
1.996929e+03,5.829846e+03
1.999822e+03,5.859139e+03
2.002714e+03,5.795479e+03
2.005607e+03,5.832284e+03
2.008500e+03,5.829872e+03
2.011393e+03,5.802380e+03
2.014285e+03,5.753079e+03
2.017178e+03,5.800939e+03
2.020071e+03,5.742647e+03
2.022963e+03,5.781835e+03
2.025856e+03,5.738988e+03
2.028749e+03,5.732235e+03
2.031641e+03,5.752322e+03
2.034534e+03,5.749741e+03
2.037427e+03,5.733069e+03
2.040320e+03,5.707469e+03
2.043212e+03,5.711845e+03
2.046105e+03,5.711966e+03
2.048998e+03,5.737025e+03
2.051890e+03,5.700182e+03
2.054783e+03,5.682985e+03
2.057676e+03,5.682558e+03
2.060568e+03,5.713634e+03
2.063461e+03,5.670581e+03
2.066354e+03,5.643614e+03
2.069247e+03,5.652384e+03
2.072139e+03,5.644402e+03
2.075032e+03,5.635253e+03
2.077925e+03,5.637615e+03
2.080817e+03,5.663147e+03
2.083710e+03,5.609657e+03
2.086603e+03,5.632448e+03
2.089496e+03,5.587701e+03
2.092388e+03,5.598749e+03
2.095281e+03,5.611015e+03
2.098174e+03,5.603405e+03
2.101066e+03,5.573177e+03
2.103959e+03,5.578897e+03
2.106852e+03,5.561528e+03
2.109744e+03,5.585044e+03
2.112637e+03,5.536825e+03
2.115530e+03,5.511471e+03
2.118422e+03,5.501329e+03
2.121315e+03,5.545548e+03
2.124208e+03,5.561408e+03
2.127101e+03,5.510610e+03
2.129993e+03,5.488143e+03
2.132886e+03,5.483166e+03
2.135779e+03,5.519771e+03
2.138671e+03,5.494229e+03
2.141564e+03,5.473563e+03
2.144457e+03,5.483375e+03
2.147350e+03,5.435123e+03
2.150242e+03,5.464428e+03
2.153135e+03,5.486013e+03
2.156028e+03,5.436095e+03
2.158920e+03,5.461801e+03
2.161813e+03,5.411187e+03
2.164706e+03,5.434863e+03
2.167598e+03,5.434401e+03
2.170491e+03,5.415833e+03
2.173384e+03,5.383067e+03
2.176277e+03,5.397275e+03
2.179169e+03,5.368194e+03
2.182062e+03,5.379563e+03
2.184955e+03,5.383972e+03
2.187847e+03,5.390197e+03
2.190740e+03,5.381872e+03
2.193633e+03,5.364764e+03
2.196525e+03,5.353074e+03
2.199418e+03,5.327634e+03
2.202311e+03,5.348967e+03
2.205204e+03,5.350651e+03
2.208096e+03,5.299975e+03
2.210989e+03,5.259596e+03
2.213882e+03,5.297244e+03
2.216774e+03,5.326382e+03
2.219667e+03,5.318592e+03
2.222560e+03,5.307904e+03
2.225452e+03,5.240233e+03
2.228345e+03,5.245330e+03
2.231238e+03,5.287622e+03
2.234131e+03,5.264038e+03
2.237023e+03,5.239954e+03
2.239916e+03,5.203182e+03
2.242809e+03,5.188364e+03
2.245701e+03,5.191276e+03
2.248594e+03,5.198479e+03
2.251487e+03,5.226166e+03
2.254379e+03,5.208181e+03
2.257272e+03,5.201758e+03
2.260165e+03,5.152290e+03
2.263058e+03,5.163576e+03
2.265950e+03,5.198215e+03
2.268843e+03,5.193913e+03
2.271736e+03,5.128000e+03
2.274628e+03,5.147036e+03
2.277521e+03,5.171082e+03
2.280414e+03,5.145405e+03
2.283306e+03,5.133025e+03
2.286199e+03,5.101188e+03
2.289092e+03,5.106375e+03
2.291985e+03,5.111292e+03
2.294877e+03,5.129006e+03
2.297770e+03,5.131936e+03
2.300663e+03,5.115552e+03
2.303555e+03,5.080524e+03
2.306448e+03,5.068741e+03
2.309341e+03,5.062795e+03
2.312233e+03,5.067759e+03
2.315126e+03,5.087549e+03
2.318019e+03,5.063940e+03
2.320912e+03,5.050460e+03
2.323804e+03,5.043438e+03
2.326697e+03,5.072573e+03
2.329590e+03,5.049073e+03
2.332482e+03,4.996438e+03
2.335375e+03,5.002138e+03
2.338268e+03,4.991744e+03
2.341160e+03,4.986586e+03
2.344053e+03,5.048429e+03
2.346946e+03,5.005757e+03
2.349839e+03,4.990918e+03
2.352731e+03,5.007224e+03
2.355624e+03,4.988932e+03
2.358517e+03,4.990708e+03
2.361409e+03,4.969980e+03
2.364302e+03,4.949253e+03
2.367195e+03,4.919958e+03
2.370087e+03,4.927596e+03
2.372980e+03,4.943537e+03
2.375873e+03,4.968283e+03
2.378766e+03,4.923461e+03
2.381658e+03,4.911920e+03
2.384551e+03,4.898468e+03
2.387444e+03,4.939644e+03
2.390336e+03,4.891990e+03
2.393229e+03,4.893354e+03
2.396122e+03,4.870497e+03
2.399014e+03,4.830257e+03
2.401907e+03,4.873217e+03
2.404800e+03,4.873731e+03
2.407693e+03,4.884438e+03
2.410585e+03,4.833644e+03
2.413478e+03,4.863580e+03
2.416371e+03,4.834765e+03
2.419263e+03,4.847479e+03
2.422156e+03,4.843929e+03
2.425049e+03,4.847995e+03
2.427941e+03,4.801115e+03
2.430834e+03,4.817860e+03
2.433727e+03,4.786093e+03
2.436620e+03,4.828046e+03
2.439512e+03,4.754592e+03
2.442405e+03,4.804190e+03
2.445298e+03,4.752011e+03
2.448190e+03,4.739554e+03
2.451083e+03,4.795317e+03
2.453976e+03,4.731216e+03
2.456868e+03,4.746205e+03
2.459761e+03,4.728297e+03
2.462654e+03,4.759325e+03
2.465547e+03,4.741991e+03
2.468439e+03,4.731409e+03
2.471332e+03,4.712951e+03
2.474225e+03,4.702548e+03
2.477117e+03,4.719302e+03
2.480010e+03,4.719529e+03
2.482903e+03,4.748967e+03
2.485795e+03,4.699032e+03
2.488688e+03,4.692727e+03
2.491581e+03,4.674365e+03
2.494474e+03,4.698592e+03
2.497366e+03,4.715718e+03
2.500259e+03,4.672038e+03
2.503152e+03,4.679046e+03
2.506044e+03,4.658056e+03
2.508937e+03,4.677039e+03
2.511830e+03,4.670138e+03
2.514722e+03,4.645542e+03
2.517615e+03,4.670074e+03
2.520508e+03,4.630219e+03
2.523401e+03,4.624597e+03
2.526293e+03,4.612495e+03
2.529186e+03,4.664973e+03
2.532079e+03,4.625417e+03
2.534971e+03,4.620221e+03
2.537864e+03,4.578747e+03
2.540757e+03,4.614344e+03
2.543649e+03,4.609766e+03
2.546542e+03,4.627179e+03
2.549435e+03,4.558390e+03
2.552328e+03,4.583116e+03
2.555220e+03,4.613306e+03
2.558113e+03,4.573623e+03
2.561006e+03,4.621531e+03
2.563898e+03,4.563112e+03
2.566791e+03,4.541291e+03
2.569684e+03,4.556468e+03
2.572576e+03,4.546521e+03
2.575469e+03,4.588375e+03
2.578362e+03,4.518084e+03
2.581255e+03,4.568100e+03
2.584147e+03,4.499438e+03
2.587040e+03,4.511959e+03
2.589933e+03,4.548353e+03
2.592825e+03,4.500427e+03
2.595718e+03,4.490356e+03
2.598611e+03,4.460117e+03
2.601503e+03,4.486103e+03
2.604396e+03,4.485183e+03
2.607289e+03,4.474040e+03
2.610182e+03,4.468718e+03
2.613074e+03,4.470464e+03
2.615967e+03,4.492391e+03
2.618860e+03,4.467028e+03
2.621752e+03,4.496310e+03
2.624645e+03,4.456854e+03
2.627538e+03,4.471631e+03
2.630430e+03,4.432633e+03
2.633323e+03,4.438966e+03
2.636216e+03,4.471757e+03
2.639109e+03,4.433549e+03
2.642001e+03,4.447130e+03
2.644894e+03,4.402839e+03
2.647787e+03,4.407220e+03
2.650679e+03,4.463813e+03
2.653572e+03,4.360941e+03
2.656465e+03,4.438666e+03
2.659357e+03,4.397077e+03
2.662250e+03,4.398873e+03
2.665143e+03,4.417752e+03
2.668036e+03,4.403463e+03
2.670928e+03,4.371994e+03
2.673821e+03,4.392689e+03
2.676714e+03,4.391064e+03
2.679606e+03,4.336165e+03
2.682499e+03,4.407737e+03
2.685392e+03,4.381600e+03
2.688284e+03,4.357594e+03
2.691177e+03,4.392359e+03
2.694070e+03,4.349727e+03
2.696963e+03,4.335030e+03
2.699855e+03,4.328334e+03
2.702748e+03,4.380125e+03
2.705641e+03,4.298638e+03
2.708533e+03,4.294310e+03
2.711426e+03,4.266374e+03
2.714319e+03,4.314610e+03
2.717211e+03,4.337162e+03
2.720104e+03,4.297696e+03
2.722997e+03,4.323768e+03
2.725890e+03,4.279184e+03
2.728782e+03,4.317133e+03
2.731675e+03,4.304577e+03
2.734568e+03,4.328726e+03
2.737460e+03,4.262369e+03
2.740353e+03,4.307725e+03
2.743246e+03,4.283795e+03
2.746138e+03,4.272107e+03
2.749031e+03,4.274354e+03
2.751924e+03,4.312757e+03
2.754817e+03,4.201350e+03
2.757709e+03,4.260649e+03
2.760602e+03,4.232961e+03
2.763495e+03,4.242910e+03
2.766387e+03,4.212593e+03
2.769280e+03,4.239948e+03
2.772173e+03,4.241415e+03
2.775065e+03,4.217415e+03
2.777958e+03,4.219905e+03
2.780851e+03,4.219985e+03
2.783744e+03,4.184286e+03
2.786636e+03,4.199330e+03
2.789529e+03,4.207094e+03
2.792422e+03,4.201049e+03
2.795314e+03,4.208430e+03
2.798207e+03,4.202803e+03
2.801100e+03,4.212802e+03
2.803992e+03,4.175249e+03
2.806885e+03,4.173586e+03
2.809778e+03,4.147205e+03
2.812671e+03,4.171462e+03
2.815563e+03,4.143716e+03
2.818456e+03,4.172045e+03
2.821349e+03,4.191610e+03
2.824241e+03,4.135237e+03
2.827134e+03,4.137041e+03
2.830027e+03,4.169706e+03
2.832919e+03,4.174766e+03
2.835812e+03,4.164778e+03
2.838705e+03,4.159607e+03
2.841598e+03,4.158277e+03
2.844490e+03,4.129744e+03
2.847383e+03,4.136882e+03
2.850276e+03,4.113148e+03
2.853168e+03,4.133503e+03
2.856061e+03,4.119265e+03
2.858954e+03,4.113911e+03
2.861846e+03,4.092514e+03
2.864739e+03,4.114174e+03
2.867632e+03,4.120730e+03
2.870525e+03,4.099377e+03
2.873417e+03,4.071488e+03
2.876310e+03,4.108613e+03
2.879203e+03,4.114159e+03
2.882095e+03,4.103828e+03
2.884988e+03,4.107188e+03
2.887881e+03,4.109329e+03
2.890773e+03,4.088606e+03
2.893666e+03,4.086630e+03
2.896559e+03,4.064714e+03
2.899452e+03,4.093966e+03
2.902344e+03,4.057541e+03
2.905237e+03,4.049729e+03
2.908130e+03,4.056943e+03
2.911022e+03,4.061032e+03
2.913915e+03,4.047637e+03
2.916808e+03,4.037030e+03
2.919700e+03,4.049871e+03
2.922593e+03,4.012993e+03
2.925486e+03,4.059744e+03
2.928379e+03,4.028918e+03
2.931271e+03,4.014732e+03
2.934164e+03,4.013455e+03
2.937057e+03,3.988936e+03
2.939949e+03,3.994217e+03
2.942842e+03,4.001923e+03
2.945735e+03,4.012683e+03
2.948627e+03,3.971125e+03
2.951520e+03,4.021163e+03
2.954413e+03,3.960672e+03
2.957306e+03,4.009585e+03
2.960198e+03,3.962481e+03
2.963091e+03,3.989261e+03
2.965984e+03,3.925335e+03
2.968876e+03,3.933344e+03
2.971769e+03,3.921602e+03
2.974662e+03,3.871739e+03
2.977554e+03,3.927517e+03
2.980447e+03,3.909777e+03
2.983340e+03,3.960813e+03
2.986233e+03,3.917483e+03
2.989125e+03,3.899106e+03
2.992018e+03,3.906911e+03
2.994911e+03,3.884768e+03
2.997803e+03,3.908723e+03
3.000696e+03,3.829391e+03
3.003589e+03,3.871867e+03
3.006481e+03,3.911217e+03
3.009374e+03,3.887397e+03
3.012267e+03,3.883906e+03
3.015160e+03,3.861361e+03
3.018052e+03,3.870832e+03
3.020945e+03,3.877006e+03
3.023838e+03,3.862428e+03
3.026730e+03,3.872076e+03
3.029623e+03,3.910454e+03
3.032516e+03,3.816780e+03
3.035408e+03,3.781482e+03
3.038301e+03,3.874752e+03
3.041194e+03,3.869174e+03
3.044087e+03,3.842733e+03
3.046979e+03,3.834976e+03
3.049872e+03,3.846680e+03
3.052765e+03,3.852687e+03
3.055657e+03,3.792442e+03
3.058550e+03,3.807073e+03
3.061443e+03,3.809387e+03
3.064335e+03,3.856598e+03
3.067228e+03,3.786549e+03
3.070121e+03,3.747440e+03
3.073014e+03,3.753390e+03
3.075906e+03,3.790833e+03
3.078799e+03,3.757054e+03
3.081692e+03,3.769074e+03
3.084584e+03,3.817042e+03
3.087477e+03,3.752717e+03
3.090370e+03,3.832735e+03
3.093262e+03,3.710683e+03
3.096155e+03,3.805710e+03
3.099048e+03,3.783569e+03
3.101941e+03,3.797083e+03
3.104833e+03,3.739493e+03
3.107726e+03,3.738539e+03
3.110619e+03,3.723646e+03
3.113511e+03,3.799285e+03
3.116404e+03,3.766720e+03
3.119297e+03,3.702490e+03
3.122189e+03,3.805661e+03
3.125082e+03,3.713114e+03
3.127975e+03,3.809632e+03
3.130868e+03,3.797206e+03
3.133760e+03,3.756805e+03
3.136653e+03,3.760182e+03
3.139546e+03,3.763203e+03
3.142438e+03,3.757879e+03
3.145331e+03,3.656487e+03
3.148224e+03,3.757344e+03
3.151116e+03,3.729413e+03
3.154009e+03,3.710668e+03
3.156902e+03,3.670464e+03
3.159795e+03,3.623046e+03
3.162687e+03,3.724765e+03
3.165580e+03,3.756549e+03
3.168473e+03,3.661583e+03
3.171365e+03,3.771021e+03
3.174258e+03,3.743341e+03
3.177151e+03,3.676264e+03
3.180043e+03,3.692038e+03
3.182936e+03,3.672121e+03
3.185829e+03,3.761026e+03
3.188722e+03,3.688918e+03
3.191614e+03,3.696782e+03
3.194507e+03,3.719954e+03
3.197400e+03,3.732426e+03
3.200292e+03,3.721534e+03
3.203185e+03,0.000000e+00
3.206078e+03,0.000000e+00
3.208970e+03,0.000000e+00
3.211863e+03,0.000000e+00
3.214756e+03,0.000000e+00
3.217649e+03,0.000000e+00
3.220541e+03,0.000000e+00
3.223434e+03,0.000000e+00
3.226327e+03,0.000000e+00
3.229219e+03,0.000000e+00
3.232112e+03,0.000000e+00
3.235005e+03,0.000000e+00
3.237897e+03,0.000000e+00
3.240790e+03,0.000000e+00
3.243683e+03,0.000000e+00
3.246576e+03,0.000000e+00
3.249468e+03,0.000000e+00
3.252361e+03,0.000000e+00
3.255254e+03,0.000000e+00
3.258146e+03,0.000000e+00
3.261039e+03,0.000000e+00
3.263932e+03,0.000000e+00
3.266824e+03,0.000000e+00
3.269717e+03,0.000000e+00
3.272610e+03,0.000000e+00
3.275503e+03,0.000000e+00
3.278395e+03,0.000000e+00
3.281288e+03,0.000000e+00
3.284181e+03,0.000000e+00
3.287073e+03,0.000000e+00
3.289966e+03,0.000000e+00
3.292859e+03,0.000000e+00
3.295751e+03,0.000000e+00
3.298644e+03,0.000000e+00
3.301537e+03,0.000000e+00
3.304430e+03,0.000000e+00
3.307322e+03,0.000000e+00
3.310215e+03,0.000000e+00
3.313108e+03,0.000000e+00
3.316000e+03,0.000000e+00
3.318893e+03,0.000000e+00
3.321786e+03,0.000000e+00
3.324678e+03,0.000000e+00
3.327571e+03,0.000000e+00
3.330464e+03,0.000000e+00
3.333357e+03,0.000000e+00
3.336249e+03,0.000000e+00
3.339142e+03,0.000000e+00
3.342035e+03,0.000000e+00
3.344927e+03,0.000000e+00
3.347820e+03,0.000000e+00
3.350713e+03,0.000000e+00
3.353605e+03,0.000000e+00
3.356498e+03,0.000000e+00
3.359391e+03,0.000000e+00
3.362284e+03,0.000000e+00
3.365176e+03,0.000000e+00
3.368069e+03,0.000000e+00
3.370962e+03,0.000000e+00
3.373854e+03,0.000000e+00
3.376747e+03,0.000000e+00
3.379640e+03,0.000000e+00
3.382532e+03,0.000000e+00
3.385425e+03,0.000000e+00
3.388318e+03,0.000000e+00
3.391211e+03,0.000000e+00
3.394103e+03,0.000000e+00
3.396996e+03,0.000000e+00
3.399889e+03,0.000000e+00
3.402781e+03,0.000000e+00
3.405674e+03,0.000000e+00
3.408567e+03,0.000000e+00
3.411459e+03,0.000000e+00
3.414352e+03,0.000000e+00
3.417245e+03,0.000000e+00
3.420138e+03,0.000000e+00
3.423030e+03,0.000000e+00
3.425923e+03,0.000000e+00
3.428816e+03,0.000000e+00
3.431708e+03,0.000000e+00
3.434601e+03,0.000000e+00
3.437494e+03,0.000000e+00
3.440386e+03,0.000000e+00
3.443279e+03,0.000000e+00
3.446172e+03,0.000000e+00
3.449065e+03,0.000000e+00
3.451957e+03,0.000000e+00
3.454850e+03,0.000000e+00
3.457743e+03,0.000000e+00
3.460635e+03,0.000000e+00
3.463528e+03,0.000000e+00
3.466421e+03,0.000000e+00
3.469313e+03,0.000000e+00
3.472206e+03,0.000000e+00
3.475099e+03,0.000000e+00
3.477992e+03,0.000000e+00
3.480884e+03,0.000000e+00
3.483777e+03,0.000000e+00
3.486670e+03,0.000000e+00
3.489563e+03,0.000000e+00
3.492455e+03,0.000000e+00
3.495348e+03,0.000000e+00
3.498240e+03,0.000000e+00
3.500169e+03,0.000000e+00