File: RAMAN_data/12022024_r2/black fibre1.CSV
9.931763e+01,0.000000e+00
1.022103e+02,0.000000e+00
1.051030e+02,0.000000e+00
1.079957e+02,0.000000e+00
1.108884e+02,0.000000e+00
1.137811e+02,0.000000e+00
1.166738e+02,0.000000e+00
1.195665e+02,0.000000e+00
1.224592e+02,0.000000e+00
1.253519e+02,0.000000e+00
1.282446e+02,0.000000e+00
1.311373e+02,0.000000e+00
1.340300e+02,0.000000e+00
1.369227e+02,0.000000e+00
1.398154e+02,0.000000e+00
1.427081e+02,0.000000e+00
1.456008e+02,0.000000e+00
1.484935e+02,0.000000e+00
1.513862e+02,0.000000e+00
1.542789e+02,0.000000e+00
1.571716e+02,0.000000e+00
1.600643e+02,0.000000e+00
1.629570e+02,0.000000e+00
1.658497e+02,0.000000e+00
1.687424e+02,0.000000e+00
1.716351e+02,0.000000e+00
1.745278e+02,0.000000e+00
1.774205e+02,0.000000e+00
1.803132e+02,0.000000e+00
1.832059e+02,0.000000e+00
1.860986e+02,0.000000e+00
1.889913e+02,0.000000e+00
1.918840e+02,0.000000e+00
1.947767e+02,0.000000e+00
1.976694e+02,0.000000e+00
2.005621e+02,9.591506e+02
2.034548e+02,9.609816e+02
2.063475e+02,9.620818e+02
2.092402e+02,9.539083e+02
2.121329e+02,9.573445e+02
2.150256e+02,9.464916e+02
2.179183e+02,9.663353e+02
2.208110e+02,9.658352e+02
2.237037e+02,9.671806e+02
2.265964e+02,9.629037e+02
2.294892e+02,9.577189e+02
2.323819e+02,9.706743e+02
2.352746e+02,9.741535e+02
2.381673e+02,9.714459e+02
2.410600e+02,9.697462e+02
2.439527e+02,9.729440e+02
2.468454e+02,9.825179e+02
2.497381e+02,9.762436e+02
2.526308e+02,9.868527e+02
2.555235e+02,9.894779e+02
2.584161e+02,9.870577e+02
2.613088e+02,9.820250e+02
2.642015e+02,9.849670e+02
2.670942e+02,9.903508e+02
2.699869e+02,1.002460e+03
2.728796e+02,9.922880e+02
2.757723e+02,9.936642e+02
2.786650e+02,9.908649e+02
2.815577e+02,9.921789e+02
2.844504e+02,9.990313e+02
2.873431e+02,9.912258e+02
2.902358e+02,9.940268e+02
2.931285e+02,9.978093e+02
2.960212e+02,9.991781e+02
2.989139e+02,9.944461e+02
3.018066e+02,1.006170e+03
3.046993e+02,1.004791e+03
3.075920e+02,1.000909e+03
3.104847e+02,1.005768e+03
3.133774e+02,1.005263e+03
3.162701e+02,1.003058e+03
3.191628e+02,1.017604e+03
3.220555e+02,1.010514e+03
3.249482e+02,1.016958e+03
3.278409e+02,1.018799e+03
3.307336e+02,1.018079e+03
3.336263e+02,1.025301e+03
3.365190e+02,1.012736e+03
3.394117e+02,1.023842e+03
3.423044e+02,1.030681e+03
3.451971e+02,1.027720e+03
3.480898e+02,1.019115e+03
3.509825e+02,1.015378e+03
3.538752e+02,1.018692e+03
3.567680e+02,1.018288e+03
3.596607e+02,1.021233e+03
3.625534e+02,1.022240e+03
3.654461e+02,1.024417e+03
3.683388e+02,1.028025e+03
3.712315e+02,1.037156e+03
3.741242e+02,1.045989e+03
3.770169e+02,1.046415e+03
3.799096e+02,1.052187e+03
3.828023e+02,1.035293e+03
3.856950e+02,1.032190e+03
3.885877e+02,1.024533e+03
3.914804e+02,1.013963e+03
3.943731e+02,1.018429e+03
3.972658e+02,1.019514e+03
4.001585e+02,1.032890e+03
4.030512e+02,1.019068e+03
4.059439e+02,1.019649e+03
4.088366e+02,1.016744e+03
4.117293e+02,1.013349e+03
4.146220e+02,1.018378e+03
4.175147e+02,1.033642e+03
4.204074e+02,1.017299e+03
4.233001e+02,1.020341e+03
4.261928e+02,1.022038e+03
4.290855e+02,1.023805e+03
4.319782e+02,1.039961e+03
4.348709e+02,1.046892e+03
4.377636e+02,1.035183e+03
4.406563e+02,1.025835e+03
4.435490e+02,1.029070e+03
4.464417e+02,1.028785e+03
4.493344e+02,1.037472e+03
4.522271e+02,1.040511e+03
4.551198e+02,1.040559e+03
4.580125e+02,1.032556e+03
4.609052e+02,1.033725e+03
4.637979e+02,1.026267e+03
4.666906e+02,1.027687e+03
4.695833e+02,1.025741e+03
4.724760e+02,1.023969e+03
4.753687e+02,1.026924e+03
4.782614e+02,1.033033e+03
4.811541e+02,1.033801e+03
4.840468e+02,1.045092e+03
4.869395e+02,1.054227e+03
4.898322e+02,1.043032e+03
4.927249e+02,1.047452e+03
4.956176e+02,1.044716e+03
4.985103e+02,1.042222e+03
5.014030e+02,1.035512e+03
5.042957e+02,1.034729e+03
5.071884e+02,1.020887e+03
5.100811e+02,1.033488e+03
5.129738e+02,1.028984e+03
5.158665e+02,1.041669e+03
5.187592e+02,1.028957e+03
5.216519e+02,1.018748e+03
5.245446e+02,1.013441e+03
5.274373e+02,1.018390e+03
5.303300e+02,1.019895e+03
5.332227e+02,1.020607e+03
5.361154e+02,1.020531e+03
5.390081e+02,1.020554e+03
5.419008e+02,1.023714e+03
5.447935e+02,1.022179e+03
5.476862e+02,1.014419e+03
5.505789e+02,1.015571e+03
5.534716e+02,1.010463e+03
5.563643e+02,1.013891e+03
5.592570e+02,1.017686e+03
5.621497e+02,1.024818e+03
5.650424e+02,1.014798e+03
5.679351e+02,1.011245e+03
5.708278e+02,1.010838e+03
5.737205e+02,1.008443e+03
5.766132e+02,1.006845e+03
5.795059e+02,1.010166e+03
5.823986e+02,1.018756e+03
5.852913e+02,1.008035e+03
5.881840e+02,1.013349e+03
5.910767e+02,1.004531e+03
5.939694e+02,1.003297e+03
5.968621e+02,1.009641e+03
5.997548e+02,1.014534e+03
6.026475e+02,1.009946e+03
6.055402e+02,1.015572e+03
6.084329e+02,1.015139e+03
6.113256e+02,1.007379e+03
6.142183e+02,1.009106e+03
6.171110e+02,9.986944e+02
6.200037e+02,1.000326e+03
6.228964e+02,9.964389e+02
6.257891e+02,1.019007e+03
6.286818e+02,1.009577e+03
6.315745e+02,1.008927e+03
6.344672e+02,1.009554e+03
6.373599e+02,1.006920e+03
6.402526e+02,1.000389e+03
6.431453e+02,1.001871e+03
6.460380e+02,1.002349e+03
6.489307e+02,1.000946e+03
6.518234e+02,9.992177e+02
6.547161e+02,1.001290e+03
6.576088e+02,9.921224e+02
6.605015e+02,9.834301e+02
6.633942e+02,9.967143e+02
6.662869e+02,1.005028e+03
6.691796e+02,9.995594e+02
6.720723e+02,1.001526e+03
6.749650e+02,9.962863e+02
6.778577e+02,9.926812e+02
6.807504e+02,9.915096e+02
6.836431e+02,9.934438e+02
6.865358e+02,9.876458e+02
6.894285e+02,9.858741e+02
6.923212e+02,1.004230e+03
6.952139e+02,9.881741e+02
6.981066e+02,9.941229e+02
7.009993e+02,9.914529e+02
7.038920e+02,9.869294e+02
7.067847e+02,9.803745e+02
7.096774e+02,9.900563e+02
7.125701e+02,9.897220e+02
7.154628e+02,9.877063e+02
7.183555e+02,9.815184e+02
7.212482e+02,9.846036e+02
7.241409e+02,9.836377e+02
7.270336e+02,9.928472e+02
7.299263e+02,9.834686e+02
7.328190e+02,9.839660e+02
7.357117e+02,9.763752e+02
7.386044e+02,9.678218e+02
7.414971e+02,9.681658e+02
7.443898e+02,9.812829e+02
7.472825e+02,9.684385e+02
7.501752e+02,9.663159e+02
7.530679e+02,9.749308e+02
7.559606e+02,9.735760e+02
7.588533e+02,9.700954e+02
7.617460e+02,9.671921e+02
7.646387e+02,9.676872e+02
7.675314e+02,9.665675e+02
7.704241e+02,9.601622e+02
7.733168e+02,9.669962e+02
7.762095e+02,9.625064e+02
7.791022e+02,9.573160e+02
7.819949e+02,9.639003e+02
7.848876e+02,9.482585e+02
7.877803e+02,9.565844e+02
7.906730e+02,9.563509e+02
7.935657e+02,9.599556e+02
7.964584e+02,9.588309e+02
7.993511e+02,9.505553e+02
8.022438e+02,9.519718e+02
8.051365e+02,9.477865e+02
8.080292e+02,9.547151e+02
8.109219e+02,9.508459e+02
8.138146e+02,9.441420e+02
8.167073e+02,9.524304e+02
8.196000e+02,9.515205e+02
8.224927e+02,9.440178e+02
8.253854e+02,9.475215e+02
8.282781e+02,9.565818e+02
8.311708e+02,9.406461e+02
8.340635e+02,9.454128e+02
8.369562e+02,9.527632e+02
8.398489e+02,9.409081e+02
8.427416e+02,9.528175e+02
8.456343e+02,9.364314e+02
8.485270e+02,9.392014e+02
8.514197e+02,9.404353e+02
8.543124e+02,9.393975e+02
8.572051e+02,9.380867e+02
8.600978e+02,9.390685e+02
8.629905e+02,9.260155e+02
8.658832e+02,9.326666e+02
8.687759e+02,9.283416e+02
8.716686e+02,9.368451e+02
8.745613e+02,9.350312e+02
8.774540e+02,9.329653e+02
8.803467e+02,9.395326e+02
8.832394e+02,9.390818e+02
8.861321e+02,9.333539e+02
8.890248e+02,9.327946e+02
8.919175e+02,9.370110e+02
8.948102e+02,9.305199e+02
8.977029e+02,9.191035e+02
9.005956e+02,9.274603e+02
9.034883e+02,9.252188e+02
9.063810e+02,9.258321e+02
9.092737e+02,9.243398e+02
9.121664e+02,9.234209e+02
9.150591e+02,9.223347e+02
9.179518e+02,9.127980e+02
9.208445e+02,9.134714e+02
9.237372e+02,9.085959e+02
9.266299e+02,8.999016e+02
9.295226e+02,9.052955e+02
9.324153e+02,9.065011e+02
9.353080e+02,9.068341e+02
9.382007e+02,9.024812e+02
9.410934e+02,8.949466e+02
9.439861e+02,8.975721e+02
9.468788e+02,9.053148e+02
9.497715e+02,8.991007e+02
9.526642e+02,8.976179e+02
9.555569e+02,8.963673e+02
9.584496e+02,8.999286e+02
9.613423e+02,9.011982e+02
9.642350e+02,8.973235e+02
9.671277e+02,8.993073e+02
9.700204e+02,8.910520e+02
9.729131e+02,8.867422e+02
9.758058e+02,8.940617e+02
9.786985e+02,8.797304e+02
9.815912e+02,8.931874e+02
9.844839e+02,8.815681e+02
9.873766e+02,8.839083e+02
9.902693e+02,8.876281e+02
9.931620e+02,8.917245e+02
9.960547e+02,8.827016e+02
9.989474e+02,8.880182e+02
1.001840e+03,8.814047e+02
1.004733e+03,8.801363e+02
1.007626e+03,8.868956e+02
1.010518e+03,8.905069e+02
1.013411e+03,8.793201e+02
1.016304e+03,8.724796e+02
1.019196e+03,8.708750e+02
1.022089e+03,8.774117e+02
1.024982e+03,8.767803e+02
1.027875e+03,8.820517e+02
1.030767e+03,8.830975e+02
1.033660e+03,8.805566e+02
1.036552e+03,8.772286e+02
1.039445e+03,8.681998e+02
1.042338e+03,8.878701e+02
1.045231e+03,8.749567e+02
1.048123e+03,8.776340e+02
1.051016e+03,8.709479e+02
1.053909e+03,8.798437e+02
1.056802e+03,8.745137e+02
1.059694e+03,8.815197e+02
1.062587e+03,8.740519e+02
1.065479e+03,8.733614e+02
1.068372e+03,8.789576e+02
1.071265e+03,8.684838e+02
1.074158e+03,8.823546e+02
1.077050e+03,8.775889e+02
1.079943e+03,8.683761e+02
1.082836e+03,8.780663e+02
1.085729e+03,8.875154e+02
1.088621e+03,9.012517e+02
1.091514e+03,9.180889e+02
1.094406e+03,9.158431e+02
1.097299e+03,8.943058e+02
1.100192e+03,8.891534e+02
1.103085e+03,8.847324e+02
1.105977e+03,8.845560e+02
1.108870e+03,8.877864e+02
1.111763e+03,8.837552e+02
1.114656e+03,8.894407e+02
1.117548e+03,8.993724e+02
1.120441e+03,8.989427e+02
1.123334e+03,9.040209e+02
1.126226e+03,8.951508e+02
1.129119e+03,8.838101e+02
1.132012e+03,8.759073e+02
1.134904e+03,8.814100e+02
1.137797e+03,8.752348e+02
1.140690e+03,8.714841e+02
1.143583e+03,8.725281e+02
1.146475e+03,8.724947e+02
1.149368e+03,8.818736e+02
1.152261e+03,8.793531e+02
1.155153e+03,8.703177e+02
1.158046e+03,8.695052e+02
1.160939e+03,8.531550e+02
1.163831e+03,8.472225e+02
1.166724e+03,8.343198e+02
1.169617e+03,8.392039e+02
1.172510e+03,8.362267e+02
1.175402e+03,8.330775e+02
1.178295e+03,8.349477e+02
1.181188e+03,8.441158e+02
1.184080e+03,8.411756e+02
1.186973e+03,8.304583e+02
1.189866e+03,8.315153e+02
1.192758e+03,8.241852e+02
1.195651e+03,8.280806e+02
1.198544e+03,8.253258e+02
1.201437e+03,8.172020e+02
1.204329e+03,8.177881e+02
1.207222e+03,8.201090e+02
1.210115e+03,8.254447e+02
1.213007e+03,8.263078e+02
1.215900e+03,8.255168e+02
1.218793e+03,8.135212e+02
1.221685e+03,8.083033e+02
1.224578e+03,8.188419e+02
1.227471e+03,8.163285e+02
1.230364e+03,8.075475e+02
1.233256e+03,8.046570e+02
1.236149e+03,8.096025e+02
1.239042e+03,8.082768e+02
1.241934e+03,8.112628e+02
1.244827e+03,8.101270e+02
1.247720e+03,8.053187e+02
1.250612e+03,7.918958e+02
1.253505e+03,8.023709e+02
1.256398e+03,8.072682e+02
1.259291e+03,7.971346e+02
1.262183e+03,7.986589e+02
1.265076e+03,8.017560e+02
1.267969e+03,7.988107e+02
1.270861e+03,8.107997e+02
1.273754e+03,8.085573e+02
1.276647e+03,8.233840e+02
1.279539e+03,8.244404e+02
1.282432e+03,8.202312e+02
1.285325e+03,8.253701e+02
1.288218e+03,8.236913e+02
1.291110e+03,8.157880e+02
1.294003e+03,8.119681e+02
1.296896e+03,8.015378e+02
1.299788e+03,7.965338e+02
1.302681e+03,7.996003e+02
1.305574e+03,7.928988e+02
1.308466e+03,7.929000e+02
1.311359e+03,7.931348e+02
1.314252e+03,7.959100e+02
1.317145e+03,7.980304e+02
1.320037e+03,7.998339e+02
1.322930e+03,7.922756e+02
1.325823e+03,7.923487e+02
1.328715e+03,8.028411e+02
1.331608e+03,7.917680e+02
1.334501e+03,8.022069e+02
1.337393e+03,8.027791e+02
1.340286e+03,8.104803e+02
1.343179e+03,8.051662e+02
1.346072e+03,8.023516e+02
1.348964e+03,8.054304e+02
1.351857e+03,7.933798e+02
1.354750e+03,7.911680e+02
1.357642e+03,7.869783e+02
1.360535e+03,7.912774e+02
1.363428e+03,7.857208e+02
1.366320e+03,7.865693e+02
1.369213e+03,7.872105e+02
1.372106e+03,7.861852e+02
1.374999e+03,7.929916e+02
1.377891e+03,7.896628e+02
1.380784e+03,7.901066e+02
1.383677e+03,7.779583e+02
1.386569e+03,7.657991e+02
1.389462e+03,7.713292e+02
1.392355e+03,7.647156e+02
1.395247e+03,7.556491e+02
1.398140e+03,7.616049e+02
1.401033e+03,7.548871e+02
1.403926e+03,7.666334e+02
1.406818e+03,7.656957e+02
1.409711e+03,7.672690e+02
1.412604e+03,7.622612e+02
1.415496e+03,7.617362e+02
1.418389e+03,7.585281e+02
1.421282e+03,7.564535e+02
1.424174e+03,7.501639e+02
1.427067e+03,7.521047e+02
1.429960e+03,7.558712e+02
1.432853e+03,7.432281e+02
1.435745e+03,7.389364e+02
1.438638e+03,7.384141e+02
1.441531e+03,7.336789e+02
1.444423e+03,7.389978e+02
1.447316e+03,7.286094e+02
1.450209e+03,7.331924e+02
1.453101e+03,7.380763e+02
1.455994e+03,7.249177e+02
1.458887e+03,7.251962e+02
1.461780e+03,7.251056e+02
1.464672e+03,7.237065e+02
1.467565e+03,7.226677e+02
1.470458e+03,7.325641e+02
1.473350e+03,7.259903e+02
1.476243e+03,7.239789e+02
1.479136e+03,7.212664e+02
1.482028e+03,7.285742e+02
1.484921e+03,7.190827e+02
1.487814e+03,7.186016e+02
1.490707e+03,7.053365e+02
1.493599e+03,7.106270e+02
1.496492e+03,7.063932e+02
1.499385e+03,7.082064e+02
1.502277e+03,6.955419e+02
1.505170e+03,7.084064e+02
1.508063e+03,6.920826e+02
1.510955e+03,7.025919e+02
1.513848e+03,7.018925e+02
1.516741e+03,6.932287e+02
1.519634e+03,6.949326e+02
1.522526e+03,6.966326e+02
1.525419e+03,6.945330e+02
1.528312e+03,6.889844e+02
1.531204e+03,6.982314e+02
1.534097e+03,6.926237e+02
1.536990e+03,6.900183e+02
1.539882e+03,6.906957e+02
1.542775e+03,6.903882e+02
1.545668e+03,6.901440e+02
1.548561e+03,6.881547e+02
1.551453e+03,6.841271e+02
1.554346e+03,6.952989e+02
1.557239e+03,6.931885e+02
1.560131e+03,6.936762e+02
1.563024e+03,6.926156e+02
1.565917e+03,6.919793e+02
1.568809e+03,6.989193e+02
1.571702e+03,6.982565e+02
1.574595e+03,6.993380e+02
1.577488e+03,6.929336e+02
1.580380e+03,6.948640e+02
1.583273e+03,6.990523e+02
1.586166e+03,6.995540e+02
1.589058e+03,6.943586e+02
1.591951e+03,6.969337e+02
1.594844e+03,7.015978e+02
1.597736e+03,6.825281e+02
1.600629e+03,6.873545e+02
1.603522e+03,6.672351e+02
1.606415e+03,6.750469e+02
1.609307e+03,6.773951e+02
1.612200e+03,6.743909e+02
1.615093e+03,6.728271e+02
1.617985e+03,6.636375e+02
1.620878e+03,6.679130e+02
1.623771e+03,6.632794e+02
1.626663e+03,6.550925e+02
1.629556e+03,6.606718e+02
1.632449e+03,6.545815e+02
1.635342e+03,6.419999e+02
1.638234e+03,6.604701e+02
1.641127e+03,6.546894e+02
1.644020e+03,6.539533e+02
1.646912e+03,6.472831e+02
1.649805e+03,6.513261e+02
1.652698e+03,6.503868e+02
1.655590e+03,6.505380e+02
1.658483e+03,6.512365e+02
1.661376e+03,6.405901e+02
1.664269e+03,6.482506e+02
1.667161e+03,6.505684e+02
1.670054e+03,6.355395e+02
1.672947e+03,6.388873e+02
1.675839e+03,6.370148e+02
1.678732e+03,6.420706e+02
1.681625e+03,6.347831e+02
1.684517e+03,6.390355e+02
1.687410e+03,6.407863e+02
1.690303e+03,6.300869e+02
1.693196e+03,6.296537e+02
1.696088e+03,6.264061e+02
1.698981e+03,6.326484e+02
1.701874e+03,6.298565e+02
1.704766e+03,6.329910e+02
1.707659e+03,6.355247e+02
1.710552e+03,6.324843e+02
1.713444e+03,6.219261e+02
1.716337e+03,6.302028e+02
1.719230e+03,6.202612e+02
1.722123e+03,6.166360e+02
1.725015e+03,6.104985e+02
1.727908e+03,6.123937e+02
1.730801e+03,6.207988e+02
1.733693e+03,6.229241e+02
1.736586e+03,6.227162e+02
1.739479e+03,6.203803e+02
1.742371e+03,6.182771e+02
1.745264e+03,6.144847e+02
1.748157e+03,6.088002e+02
1.751050e+03,6.121266e+02
1.753942e+03,6.153617e+02
1.756835e+03,6.110463e+02
1.759728e+03,6.053146e+02
1.762620e+03,6.079545e+02
1.765513e+03,6.096427e+02
1.768406e+03,6.032625e+02
1.771298e+03,5.955204e+02
1.774191e+03,5.972870e+02
1.777084e+03,6.064847e+02
1.779977e+03,5.993544e+02
1.782869e+03,5.961852e+02
1.785762e+03,6.035619e+02
1.788655e+03,5.956140e+02
1.791547e+03,5.905603e+02
1.794440e+03,5.786417e+02
1.797333e+03,5.825297e+02
1.800225e+03,5.904330e+02
1.803118e+03,5.949416e+02
1.806011e+03,5.776672e+02
1.808904e+03,5.941259e+02
1.811796e+03,5.890321e+02
1.814689e+03,5.742673e+02
1.817582e+03,5.789713e+02
1.820474e+03,5.861580e+02
1.823367e+03,5.807039e+02
1.826260e+03,5.718324e+02
1.829152e+03,5.696807e+02
1.832045e+03,5.778676e+02
1.834938e+03,5.805449e+02
1.837831e+03,5.709767e+02
1.840723e+03,5.698592e+02
1.843616e+03,5.801921e+02
1.846509e+03,5.805671e+02
1.849401e+03,5.641926e+02
1.852294e+03,5.581310e+02
1.855187e+03,5.750364e+02
1.858079e+03,5.674269e+02
1.860972e+03,5.746224e+02
1.863865e+03,5.635518e+02
1.866758e+03,5.567125e+02
1.869650e+03,5.655761e+02
1.872543e+03,5.601241e+02
1.875436e+03,5.585021e+02
1.878328e+03,5.446902e+02
1.881221e+03,5.553918e+02
1.884114e+03,5.586253e+02
1.887006e+03,5.592341e+02
1.889899e+03,5.499099e+02
1.892792e+03,5.481254e+02
1.895685e+03,5.482411e+02
1.898577e+03,5.444718e+02
1.901470e+03,5.477428e+02
1.904363e+03,5.437347e+02
1.907255e+03,5.542872e+02
1.910148e+03,5.530732e+02
1.913041e+03,5.393123e+02
1.915933e+03,5.472801e+02
1.918826e+03,5.425972e+02
1.921719e+03,5.347509e+02
1.924612e+03,5.442115e+02
1.927504e+03,5.401082e+02
1.930397e+03,5.414385e+02
1.933290e+03,5.316529e+02
1.936182e+03,5.363583e+02
1.939075e+03,5.301014e+02
1.941968e+03,5.307698e+02
1.944860e+03,5.365774e+02
1.947753e+03,5.326767e+02
1.950646e+03,5.278079e+02
1.953539e+03,5.183187e+02
1.956431e+03,5.296602e+02
1.959324e+03,5.250866e+02
1.962217e+03,5.313640e+02
1.965109e+03,5.152626e+02
1.968002e+03,5.138364e+02
1.970895e+03,5.160833e+02
1.973787e+03,5.206996e+02
1.976680e+03,5.127194e+02
1.979573e+03,5.096655e+02
1.982466e+03,5.149282e+02
1.985358e+03,5.132686e+02
1.988251e+03,5.007784e+02
1.991144e+03,5.033073e+02
1.994036e+03,5.156800e+02
1.996929e+03,5.060256e+02
1.999822e+03,4.990787e+02
2.002714e+03,5.011772e+02
2.005607e+03,4.999860e+02
2.008500e+03,5.019547e+02
2.011393e+03,5.028115e+02
2.014285e+03,4.920597e+02
2.017178e+03,4.978333e+02
2.020071e+03,4.913010e+02
2.022963e+03,4.936262e+02
2.025856e+03,4.937217e+02
2.028749e+03,4.883773e+02
2.031641e+03,4.866714e+02
2.034534e+03,4.889383e+02
2.037427e+03,4.927208e+02
2.040320e+03,4.876980e+02
2.043212e+03,4.755744e+02
2.046105e+03,4.810620e+02
2.048998e+03,4.800407e+02
2.051890e+03,4.806338e+02
2.054783e+03,4.785396e+02
2.057676e+03,4.792403e+02
2.060568e+03,4.676635e+02
2.063461e+03,4.692726e+02
2.066354e+03,4.736917e+02
2.069247e+03,4.701146e+02
2.072139e+03,4.748077e+02
2.075032e+03,4.603355e+02
2.077925e+03,4.659345e+02
2.080817e+03,4.657860e+02
2.083710e+03,4.642174e+02
2.086603e+03,4.584204e+02
2.089496e+03,4.717132e+02
2.092388e+03,4.586460e+02
2.095281e+03,4.503720e+02
2.098174e+03,4.589946e+02
2.101066e+03,4.632103e+02
2.103959e+03,4.509669e+02
2.106852e+03,4.550181e+02
2.109744e+03,4.635804e+02
2.112637e+03,4.494786e+02
2.115530e+03,4.454078e+02
2.118422e+03,4.482672e+02
2.121315e+03,4.547607e+02
2.124208e+03,4.576812e+02
2.127101e+03,4.425924e+02
2.129993e+03,4.433090e+02
2.132886e+03,4.549304e+02
2.135779e+03,4.406340e+02
2.138671e+03,4.451133e+02
2.141564e+03,4.407151e+02
2.144457e+03,4.488260e+02
2.147350e+03,4.326133e+02
2.150242e+03,4.274071e+02
2.153135e+03,4.334522e+02
2.156028e+03,4.318970e+02
2.158920e+03,4.291372e+02
2.161813e+03,4.361719e+02
2.164706e+03,4.437396e+02
2.167598e+03,4.370251e+02
2.170491e+03,4.223141e+02
2.173384e+03,4.300569e+02
2.176277e+03,4.281491e+02
2.179169e+03,4.201378e+02
2.182062e+03,4.300876e+02
2.184955e+03,4.261154e+02
2.187847e+03,4.213669e+02
2.190740e+03,4.283747e+02
2.193633e+03,4.180977e+02
2.196525e+03,4.198804e+02
2.199418e+03,4.150916e+02
2.202311e+03,4.149797e+02
2.205204e+03,4.232143e+02
2.208096e+03,4.229397e+02
2.210989e+03,4.114659e+02
2.213882e+03,4.144098e+02
2.216774e+03,4.110482e+02
2.219667e+03,4.105734e+02
2.222560e+03,4.146586e+02
2.225452e+03,3.973033e+02
2.228345e+03,4.068394e+02
2.231238e+03,4.042126e+02
2.234131e+03,3.946635e+02
2.237023e+03,4.044651e+02
2.239916e+03,3.908793e+02
2.242809e+03,3.960727e+02
2.245701e+03,3.993746e+02
2.248594e+03,3.999884e+02
2.251487e+03,3.981372e+02
2.254379e+03,3.856783e+02
2.257272e+03,3.871996e+02
2.260165e+03,3.912433e+02
2.263058e+03,3.896295e+02
2.265950e+03,3.984902e+02
2.268843e+03,3.890763e+02
2.271736e+03,3.843292e+02
2.274628e+03,3.858372e+02
2.277521e+03,3.840771e+02
2.280414e+03,3.853890e+02
2.283306e+03,3.846565e+02
2.286199e+03,3.804097e+02
2.289092e+03,3.761192e+02
2.291985e+03,3.755554e+02
2.294877e+03,3.705434e+02
2.297770e+03,3.794993e+02
2.300663e+03,3.768159e+02
2.303555e+03,3.710930e+02
2.306448e+03,3.674814e+02
2.309341e+03,3.721533e+02
2.312233e+03,3.710835e+02
2.315126e+03,3.763866e+02
2.318019e+03,3.635042e+02
2.320912e+03,3.726298e+02
2.323804e+03,3.767099e+02
2.326697e+03,3.681711e+02
2.329590e+03,3.750131e+02
2.332482e+03,3.663258e+02
2.335375e+03,3.629771e+02
2.338268e+03,3.647111e+02
2.341160e+03,3.604640e+02
2.344053e+03,3.652763e+02
2.346946e+03,3.597796e+02
2.349839e+03,3.588824e+02
2.352731e+03,3.583398e+02
2.355624e+03,3.613363e+02
2.358517e+03,3.628973e+02
2.361409e+03,3.505271e+02
2.364302e+03,3.613466e+02
2.367195e+03,3.528179e+02
2.370087e+03,3.509741e+02
2.372980e+03,3.589575e+02
2.375873e+03,3.501631e+02
2.378766e+03,3.528128e+02
2.381658e+03,3.486370e+02
2.384551e+03,3.429836e+02
2.387444e+03,3.442793e+02
2.390336e+03,3.495367e+02
2.393229e+03,3.460323e+02
2.396122e+03,3.390362e+02
2.399014e+03,3.285147e+02
2.401907e+03,3.457476e+02
2.404800e+03,3.385225e+02
2.407693e+03,3.419741e+02
2.410585e+03,3.395381e+02
2.413478e+03,3.371886e+02
2.416371e+03,3.381451e+02
2.419263e+03,3.299214e+02
2.422156e+03,3.373431e+02
2.425049e+03,3.325461e+02
2.427941e+03,3.401904e+02
2.430834e+03,3.342193e+02
2.433727e+03,3.184796e+02
2.436620e+03,3.309945e+02
2.439512e+03,3.271826e+02
2.442405e+03,3.258874e+02
2.445298e+03,3.327218e+02
2.448190e+03,3.236158e+02
2.451083e+03,3.320255e+02
2.453976e+03,3.285198e+02
2.456868e+03,3.302366e+02
2.459761e+03,3.264898e+02
2.462654e+03,3.218561e+02
2.465547e+03,3.270891e+02
2.468439e+03,3.244570e+02
2.471332e+03,3.243372e+02
2.474225e+03,3.245306e+02
2.477117e+03,3.191017e+02
2.480010e+03,3.177433e+02
2.482903e+03,3.145787e+02
2.485795e+03,3.200244e+02
2.488688e+03,3.179880e+02
2.491581e+03,3.205767e+02
2.494474e+03,3.161408e+02
2.497366e+03,3.133896e+02
2.500259e+03,3.106891e+02
2.503152e+03,3.109217e+02
2.506044e+03,3.211588e+02
2.508937e+03,3.126993e+02
2.511830e+03,3.109861e+02
2.514722e+03,3.104730e+02
2.517615e+03,3.123083e+02
2.520508e+03,3.095055e+02
2.523401e+03,3.069206e+02
2.526293e+03,3.098029e+02
2.529186e+03,3.007663e+02
2.532079e+03,3.034894e+02
2.534971e+03,3.076194e+02
2.537864e+03,2.993579e+02
2.540757e+03,3.035165e+02
2.543649e+03,3.050968e+02
2.546542e+03,3.091918e+02
2.549435e+03,3.026146e+02
2.552328e+03,3.021698e+02
2.555220e+03,2.988423e+02
2.558113e+03,3.050223e+02
2.561006e+03,3.071601e+02
2.563898e+03,3.085034e+02
2.566791e+03,2.983500e+02
2.569684e+03,3.021042e+02
2.572576e+03,2.953983e+02
2.575469e+03,3.089427e+02
2.578362e+03,3.042995e+02
2.581255e+03,2.786769e+02
2.584147e+03,2.952577e+02
2.587040e+03,2.915367e+02
2.589933e+03,2.933070e+02
2.592825e+03,2.866932e+02
2.595718e+03,2.893397e+02
2.598611e+03,2.905965e+02
2.601503e+03,2.920735e+02
2.604396e+03,2.886650e+02
2.607289e+03,2.992853e+02
2.610182e+03,2.871727e+02
2.613074e+03,2.759991e+02
2.615967e+03,2.891200e+02
2.618860e+03,2.819970e+02
2.621752e+03,2.917928e+02
2.624645e+03,2.767075e+02
2.627538e+03,2.845817e+02
2.630430e+03,2.704343e+02
2.633323e+03,2.788531e+02
2.636216e+03,2.784807e+02
2.639109e+03,2.813719e+02
2.642001e+03,2.803638e+02
2.644894e+03,2.829727e+02
2.647787e+03,2.708936e+02
2.650679e+03,2.732809e+02
2.653572e+03,2.812635e+02
2.656465e+03,2.748084e+02
2.659357e+03,2.689546e+02
2.662250e+03,2.745549e+02
2.665143e+03,2.772903e+02
2.668036e+03,2.860445e+02
2.670928e+03,2.714406e+02
2.673821e+03,2.811227e+02
2.676714e+03,2.670060e+02
2.679606e+03,2.700974e+02
2.682499e+03,2.699016e+02
2.685392e+03,2.709242e+02
2.688284e+03,2.739937e+02
2.691177e+03,2.646804e+02
2.694070e+03,2.729264e+02
2.696963e+03,2.754665e+02
2.699855e+03,2.721305e+02
2.702748e+03,2.653964e+02
2.705641e+03,2.714155e+02
2.708533e+03,2.679222e+02
2.711426e+03,2.705669e+02
2.714319e+03,2.681075e+02
2.717211e+03,2.776823e+02
2.720104e+03,2.674409e+02
2.722997e+03,2.751597e+02
2.725890e+03,2.552600e+02
2.728782e+03,2.715739e+02
2.731675e+03,2.626472e+02
2.734568e+03,2.640867e+02
2.737460e+03,2.548931e+02
2.740353e+03,2.569360e+02
2.743246e+03,2.512991e+02
2.746138e+03,2.576761e+02
2.749031e+03,2.733270e+02
2.751924e+03,2.541601e+02
2.754817e+03,2.587463e+02
2.757709e+03,2.639835e+02
2.760602e+03,2.520251e+02
2.763495e+03,2.555838e+02
2.766387e+03,2.576188e+02
2.769280e+03,2.528208e+02
2.772173e+03,2.629218e+02
2.775065e+03,2.479494e+02
2.777958e+03,2.471883e+02
2.780851e+03,2.587500e+02
2.783744e+03,2.528151e+02
2.786636e+03,2.460330e+02
2.789529e+03,2.608622e+02
2.792422e+03,2.591085e+02
2.795314e+03,2.433401e+02
2.798207e+03,2.550281e+02
2.801100e+03,2.579056e+02
2.803992e+03,2.482231e+02
2.806885e+03,2.435905e+02
2.809778e+03,2.601876e+02
2.812671e+03,2.568367e+02
2.815563e+03,2.515209e+02
2.818456e+03,2.518239e+02
2.821349e+03,2.581382e+02
2.824241e+03,2.549241e+02
2.827134e+03,2.665352e+02
2.830027e+03,2.410007e+02
2.832919e+03,2.556384e+02
2.835812e+03,2.584261e+02
2.838705e+03,2.645317e+02
2.841598e+03,2.554941e+02
2.844490e+03,2.617448e+02
2.847383e+03,2.534943e+02
2.850276e+03,2.737804e+02
2.853168e+03,2.757139e+02
2.856061e+03,2.625909e+02
2.858954e+03,2.621107e+02
2.861846e+03,2.684583e+02
2.864739e+03,2.619449e+02
2.867632e+03,2.710041e+02
2.870525e+03,2.784835e+02
2.873417e+03,2.825630e+02
2.876310e+03,2.780341e+02
2.879203e+03,2.827235e+02
2.882095e+03,2.743849e+02
2.884988e+03,2.877762e+02
2.887881e+03,2.932150e+02
2.890773e+03,2.872601e+02
2.893666e+03,2.980010e+02
2.896559e+03,2.855165e+02
2.899452e+03,3.003901e+02
2.902344e+03,2.795338e+02
2.905237e+03,2.984817e+02
2.908130e+03,2.812078e+02
2.911022e+03,2.835380e+02
2.913915e+03,2.658547e+02
2.916808e+03,2.715299e+02
2.919700e+03,2.651438e+02
2.922593e+03,2.666457e+02
2.925486e+03,2.758698e+02
2.928379e+03,2.695307e+02
2.931271e+03,2.644529e+02
2.934164e+03,2.717726e+02
2.937057e+03,2.445828e+02
2.939949e+03,2.717056e+02
2.942842e+03,2.388032e+02
2.945735e+03,2.518238e+02
2.948627e+03,2.633357e+02
2.951520e+03,2.544531e+02
2.954413e+03,2.522950e+02
2.957306e+03,2.772329e+02
2.960198e+03,2.607766e+02
2.963091e+03,2.401781e+02
2.965984e+03,2.521029e+02
2.968876e+03,2.335203e+02
2.971769e+03,2.443838e+02
2.974662e+03,2.406390e+02
2.977554e+03,2.288401e+02
2.980447e+03,2.220261e+02
2.983340e+03,2.248532e+02
2.986233e+03,2.279245e+02
2.989125e+03,2.311691e+02
2.992018e+03,2.299513e+02
2.994911e+03,2.086527e+02
2.997803e+03,2.135430e+02
3.000696e+03,2.284166e+02
3.003589e+03,2.289117e+02
3.006481e+03,2.316126e+02
3.009374e+03,2.182208e+02
3.012267e+03,2.261434e+02
3.015160e+03,2.139802e+02
3.018052e+03,2.238590e+02
3.020945e+03,2.240868e+02
3.023838e+03,2.258195e+02
3.026730e+03,2.146389e+02
3.029623e+03,2.106071e+02
3.032516e+03,2.118592e+02
3.035408e+03,2.152402e+02
3.038301e+03,2.001013e+02
3.041194e+03,2.222981e+02
3.044087e+03,2.094283e+02
3.046979e+03,2.181513e+02
3.049872e+03,2.179653e+02
3.052765e+03,2.184824e+02
3.055657e+03,2.164105e+02
3.058550e+03,2.222380e+02
3.061443e+03,2.105178e+02
3.064335e+03,2.088505e+02
3.067228e+03,2.141962e+02
3.070121e+03,2.195027e+02
3.073014e+03,2.022158e+02
3.075906e+03,2.190188e+02
3.078799e+03,2.072948e+02
3.081692e+03,2.231280e+02
3.084584e+03,2.119158e+02
3.087477e+03,2.138719e+02
3.090370e+03,2.203964e+02
3.093262e+03,2.130234e+02
3.096155e+03,2.135906e+02
3.099048e+03,2.194494e+02
3.101941e+03,2.241126e+02
3.104833e+03,2.012929e+02
3.107726e+03,2.140831e+02
3.110619e+03,2.225266e+02
3.113511e+03,2.197982e+02
3.116404e+03,2.165638e+02
3.119297e+03,2.167371e+02
3.122189e+03,2.054935e+02
3.125082e+03,2.303862e+02
3.127975e+03,2.251162e+02
3.130868e+03,2.351903e+02
3.133760e+03,2.426735e+02
3.136653e+03,2.032363e+02
3.139546e+03,2.176113e+02
3.142438e+03,2.319514e+02
3.145331e+03,1.697565e+02
3.148224e+03,2.246846e+02
3.151116e+03,2.181757e+02
3.154009e+03,2.401110e+02
3.156902e+03,2.022873e+02
3.159795e+03,1.911741e+02
3.162687e+03,1.913428e+02
3.165580e+03,2.198911e+02
3.168473e+03,2.411240e+02
3.171365e+03,2.340546e+02
3.174258e+03,2.343554e+02
3.177151e+03,2.025030e+02
3.180043e+03,2.272320e+02
3.182936e+03,2.283035e+02
3.185829e+03,2.060867e+02
3.188722e+03,1.929233e+02
3.191614e+03,2.349292e+02
3.194507e+03,2.189036e+02
3.197400e+03,2.037231e+02
3.200292e+03,2.585378e+02
3.203185e+03,0.000000e+00
3.206078e+03,0.000000e+00
3.208970e+03,0.000000e+00
3.211863e+03,0.000000e+00
3.214756e+03,0.000000e+00
3.217649e+03,0.000000e+00
3.220541e+03,0.000000e+00
3.223434e+03,0.000000e+00
3.226327e+03,0.000000e+00
3.229219e+03,0.000000e+00
3.232112e+03,0.000000e+00
3.235005e+03,0.000000e+00
3.237897e+03,0.000000e+00
3.240790e+03,0.000000e+00
3.243683e+03,0.000000e+00
3.246576e+03,0.000000e+00
3.249468e+03,0.000000e+00
3.252361e+03,0.000000e+00
3.255254e+03,0.000000e+00
3.258146e+03,0.000000e+00
3.261039e+03,0.000000e+00
3.263932e+03,0.000000e+00
3.266824e+03,0.000000e+00
3.269717e+03,0.000000e+00
3.272610e+03,0.000000e+00
3.275503e+03,0.000000e+00
3.278395e+03,0.000000e+00
3.281288e+03,0.000000e+00
3.284181e+03,0.000000e+00
3.287073e+03,0.000000e+00
3.289966e+03,0.000000e+00
3.292859e+03,0.000000e+00
3.295751e+03,0.000000e+00
3.298644e+03,0.000000e+00
3.301537e+03,0.000000e+00
3.304430e+03,0.000000e+00
3.307322e+03,0.000000e+00
3.310215e+03,0.000000e+00
3.313108e+03,0.000000e+00
3.316000e+03,0.000000e+00
3.318893e+03,0.000000e+00
3.321786e+03,0.000000e+00
3.324678e+03,0.000000e+00
3.327571e+03,0.000000e+00
3.330464e+03,0.000000e+00
3.333357e+03,0.000000e+00
3.336249e+03,0.000000e+00
3.339142e+03,0.000000e+00
3.342035e+03,0.000000e+00
3.344927e+03,0.000000e+00
3.347820e+03,0.000000e+00
3.350713e+03,0.000000e+00
3.353605e+03,0.000000e+00
3.356498e+03,0.000000e+00
3.359391e+03,0.000000e+00
3.362284e+03,0.000000e+00
3.365176e+03,0.000000e+00
3.368069e+03,0.000000e+00
3.370962e+03,0.000000e+00
3.373854e+03,0.000000e+00
3.376747e+03,0.000000e+00
3.379640e+03,0.000000e+00
3.382532e+03,0.000000e+00
3.385425e+03,0.000000e+00
3.388318e+03,0.000000e+00
3.391211e+03,0.000000e+00
3.394103e+03,0.000000e+00
3.396996e+03,0.000000e+00
3.399889e+03,0.000000e+00
3.402781e+03,0.000000e+00
3.405674e+03,0.000000e+00
3.408567e+03,0.000000e+00
3.411459e+03,0.000000e+00
3.414352e+03,0.000000e+00
3.417245e+03,0.000000e+00
3.420138e+03,0.000000e+00
3.423030e+03,0.000000e+00
3.425923e+03,0.000000e+00
3.428816e+03,0.000000e+00
3.431708e+03,0.000000e+00
3.434601e+03,0.000000e+00
3.437494e+03,0.000000e+00
3.440386e+03,0.000000e+00
3.443279e+03,0.000000e+00
3.446172e+03,0.000000e+00
3.449065e+03,0.000000e+00
3.451957e+03,0.000000e+00
3.454850e+03,0.000000e+00
3.457743e+03,0.000000e+00
3.460635e+03,0.000000e+00
3.463528e+03,0.000000e+00
3.466421e+03,0.000000e+00
3.469313e+03,0.000000e+00
3.472206e+03,0.000000e+00
3.475099e+03,0.000000e+00
3.477992e+03,0.000000e+00
3.480884e+03,0.000000e+00
3.483777e+03,0.000000e+00
3.486670e+03,0.000000e+00
3.489563e+03,0.000000e+00
3.492455e+03,0.000000e+00
3.495348e+03,0.000000e+00
3.498240e+03,0.000000e+00
3.500169e+03,0.000000e+00