File: RAMAN_data/12022024_r2/black fibre10.CSV
9.931763e+01,0.000000e+00
1.022103e+02,0.000000e+00
1.051030e+02,0.000000e+00
1.079957e+02,0.000000e+00
1.108884e+02,0.000000e+00
1.137811e+02,0.000000e+00
1.166738e+02,0.000000e+00
1.195665e+02,0.000000e+00
1.224592e+02,0.000000e+00
1.253519e+02,0.000000e+00
1.282446e+02,0.000000e+00
1.311373e+02,0.000000e+00
1.340300e+02,0.000000e+00
1.369227e+02,0.000000e+00
1.398154e+02,0.000000e+00
1.427081e+02,0.000000e+00
1.456008e+02,0.000000e+00
1.484935e+02,0.000000e+00
1.513862e+02,0.000000e+00
1.542789e+02,0.000000e+00
1.571716e+02,0.000000e+00
1.600643e+02,0.000000e+00
1.629570e+02,0.000000e+00
1.658497e+02,0.000000e+00
1.687424e+02,0.000000e+00
1.716351e+02,0.000000e+00
1.745278e+02,0.000000e+00
1.774205e+02,0.000000e+00
1.803132e+02,0.000000e+00
1.832059e+02,0.000000e+00
1.860986e+02,0.000000e+00
1.889913e+02,0.000000e+00
1.918840e+02,0.000000e+00
1.947767e+02,0.000000e+00
1.976694e+02,0.000000e+00
2.005621e+02,4.005152e+03
2.034548e+02,4.006058e+03
2.063475e+02,4.020879e+03
2.092402e+02,4.020924e+03
2.121329e+02,4.010457e+03
2.150256e+02,4.008374e+03
2.179183e+02,4.022174e+03
2.208110e+02,4.039914e+03
2.237037e+02,4.041969e+03
2.265964e+02,4.038095e+03
2.294892e+02,4.062401e+03
2.323819e+02,4.059430e+03
2.352746e+02,4.062534e+03
2.381673e+02,4.077037e+03
2.410600e+02,4.078994e+03
2.439527e+02,4.080188e+03
2.468454e+02,4.094109e+03
2.497381e+02,4.095750e+03
2.526308e+02,4.129729e+03
2.555235e+02,4.115651e+03
2.584161e+02,4.118797e+03
2.613088e+02,4.128958e+03
2.642015e+02,4.129138e+03
2.670942e+02,4.133936e+03
2.699869e+02,4.142719e+03
2.728796e+02,4.131728e+03
2.757723e+02,4.138383e+03
2.786650e+02,4.162494e+03
2.815577e+02,4.162195e+03
2.844504e+02,4.156774e+03
2.873431e+02,4.164875e+03
2.902358e+02,4.172948e+03
2.931285e+02,4.169019e+03
2.960212e+02,4.178813e+03
2.989139e+02,4.191175e+03
3.018066e+02,4.193601e+03
3.046993e+02,4.182363e+03
3.075920e+02,4.187272e+03
3.104847e+02,4.177532e+03
3.133774e+02,4.205270e+03
3.162701e+02,4.207170e+03
3.191628e+02,4.207196e+03
3.220555e+02,4.201921e+03
3.249482e+02,4.211611e+03
3.278409e+02,4.206557e+03
3.307336e+02,4.216696e+03
3.336263e+02,4.245917e+03
3.365190e+02,4.201515e+03
3.394117e+02,4.244988e+03
3.423044e+02,4.234769e+03
3.451971e+02,4.235640e+03
3.480898e+02,4.252390e+03
3.509825e+02,4.239301e+03
3.538752e+02,4.260111e+03
3.567680e+02,4.268265e+03
3.596607e+02,4.272879e+03
3.625534e+02,4.263659e+03
3.654461e+02,4.262022e+03
3.683388e+02,4.249104e+03
3.712315e+02,4.269625e+03
3.741242e+02,4.303458e+03
3.770169e+02,4.291156e+03
3.799096e+02,4.304479e+03
3.828023e+02,4.274984e+03
3.856950e+02,4.267965e+03
3.885877e+02,4.268636e+03
3.914804e+02,4.268293e+03
3.943731e+02,4.273006e+03
3.972658e+02,4.286158e+03
4.001585e+02,4.291368e+03
4.030512e+02,4.291794e+03
4.059439e+02,4.294266e+03
4.088366e+02,4.305517e+03
4.117293e+02,4.286513e+03
4.146220e+02,4.301959e+03
4.175147e+02,4.285453e+03
4.204074e+02,4.287459e+03
4.233001e+02,4.311107e+03
4.261928e+02,4.298032e+03
4.290855e+02,4.288581e+03
4.319782e+02,4.295763e+03
4.348709e+02,4.311225e+03
4.377636e+02,4.312060e+03
4.406563e+02,4.291492e+03
4.435490e+02,4.307816e+03
4.464417e+02,4.307657e+03
4.493344e+02,4.318827e+03
4.522271e+02,4.300722e+03
4.551198e+02,4.305834e+03
4.580125e+02,4.324694e+03
4.609052e+02,4.314680e+03
4.637979e+02,4.308788e+03
4.666906e+02,4.313479e+03
4.695833e+02,4.307681e+03
4.724760e+02,4.323400e+03
4.753687e+02,4.325757e+03
4.782614e+02,4.316272e+03
4.811541e+02,4.343654e+03
4.840468e+02,4.367796e+03
4.869395e+02,4.346263e+03
4.898322e+02,4.349602e+03
4.927249e+02,4.341417e+03
4.956176e+02,4.340710e+03
4.985103e+02,4.352792e+03
5.014030e+02,4.357041e+03
5.042957e+02,4.331284e+03
5.071884e+02,4.341025e+03
5.100811e+02,4.334887e+03
5.129738e+02,4.334630e+03
5.158665e+02,4.343851e+03
5.187592e+02,4.340813e+03
5.216519e+02,4.327566e+03
5.245446e+02,4.333159e+03
5.274373e+02,4.337237e+03
5.303300e+02,4.340961e+03
5.332227e+02,4.316154e+03
5.361154e+02,4.316703e+03
5.390081e+02,4.319360e+03
5.419008e+02,4.323553e+03
5.447935e+02,4.340740e+03
5.476862e+02,4.343729e+03
5.505789e+02,4.322650e+03
5.534716e+02,4.308139e+03
5.563643e+02,4.332799e+03
5.592570e+02,4.327055e+03
5.621497e+02,4.332430e+03
5.650424e+02,4.326881e+03
5.679351e+02,4.322894e+03
5.708278e+02,4.300327e+03
5.737205e+02,4.321022e+03
5.766132e+02,4.310948e+03
5.795059e+02,4.347800e+03
5.823986e+02,4.328689e+03
5.852913e+02,4.333860e+03
5.881840e+02,4.325034e+03
5.910767e+02,4.330132e+03
5.939694e+02,4.342297e+03
5.968621e+02,4.318332e+03
5.997548e+02,4.320952e+03
6.026475e+02,4.319625e+03
6.055402e+02,4.320334e+03
6.084329e+02,4.330093e+03
6.113256e+02,4.333533e+03
6.142183e+02,4.314190e+03
6.171110e+02,4.314178e+03
6.200037e+02,4.318445e+03
6.228964e+02,4.343662e+03
6.257891e+02,4.333074e+03
6.286818e+02,4.315690e+03
6.315745e+02,4.303776e+03
6.344672e+02,4.301215e+03
6.373599e+02,4.307854e+03
6.402526e+02,4.307878e+03
6.431453e+02,4.296441e+03
6.460380e+02,4.317648e+03
6.489307e+02,4.309168e+03
6.518234e+02,4.302599e+03
6.547161e+02,4.299616e+03
6.576088e+02,4.305704e+03
6.605015e+02,4.295358e+03
6.633942e+02,4.280144e+03
6.662869e+02,4.295420e+03
6.691796e+02,4.309650e+03
6.720723e+02,4.296942e+03
6.749650e+02,4.275385e+03
6.778577e+02,4.288301e+03
6.807504e+02,4.299755e+03
6.836431e+02,4.272768e+03
6.865358e+02,4.286173e+03
6.894285e+02,4.284323e+03
6.923212e+02,4.290934e+03
6.952139e+02,4.275369e+03
6.981066e+02,4.285776e+03
7.009993e+02,4.260925e+03
7.038920e+02,4.262762e+03
7.067847e+02,4.268304e+03
7.096774e+02,4.277936e+03
7.125701e+02,4.263537e+03
7.154628e+02,4.254521e+03
7.183555e+02,4.260915e+03
7.212482e+02,4.272205e+03
7.241409e+02,4.273836e+03
7.270336e+02,4.254433e+03
7.299263e+02,4.245205e+03
7.328190e+02,4.234275e+03
7.357117e+02,4.229538e+03
7.386044e+02,4.230557e+03
7.414971e+02,4.236205e+03
7.443898e+02,4.235682e+03
7.472825e+02,4.242525e+03
7.501752e+02,4.233932e+03
7.530679e+02,4.225139e+03
7.559606e+02,4.221764e+03
7.588533e+02,4.217121e+03
7.617460e+02,4.242112e+03
7.646387e+02,4.210404e+03
7.675314e+02,4.214742e+03
7.704241e+02,4.194861e+03
7.733168e+02,4.211404e+03
7.762095e+02,4.210260e+03
7.791022e+02,4.205316e+03
7.819949e+02,4.230791e+03
7.848876e+02,4.207356e+03
7.877803e+02,4.201668e+03
7.906730e+02,4.208280e+03
7.935657e+02,4.177890e+03
7.964584e+02,4.176138e+03
7.993511e+02,4.182410e+03
8.022438e+02,4.186391e+03
8.051365e+02,4.169703e+03
8.080292e+02,4.170408e+03
8.109219e+02,4.182500e+03
8.138146e+02,4.146805e+03
8.167073e+02,4.164026e+03
8.196000e+02,4.154240e+03
8.224927e+02,4.149362e+03
8.253854e+02,4.172356e+03
8.282781e+02,4.167337e+03
8.311708e+02,4.152803e+03
8.340635e+02,4.144932e+03
8.369562e+02,4.170118e+03
8.398489e+02,4.157654e+03
8.427416e+02,4.167851e+03
8.456343e+02,4.132641e+03
8.485270e+02,4.128531e+03
8.514197e+02,4.141123e+03
8.543124e+02,4.127629e+03
8.572051e+02,4.133860e+03
8.600978e+02,4.130954e+03
8.629905e+02,4.117341e+03
8.658832e+02,4.120563e+03
8.687759e+02,4.114026e+03
8.716686e+02,4.107871e+03
8.745613e+02,4.113219e+03
8.774540e+02,4.094704e+03
8.803467e+02,4.095491e+03
8.832394e+02,4.113500e+03
8.861321e+02,4.126392e+03
8.890248e+02,4.108918e+03
8.919175e+02,4.108036e+03
8.948102e+02,4.093120e+03
8.977029e+02,4.097413e+03
9.005956e+02,4.082741e+03
9.034883e+02,4.090482e+03
9.063810e+02,4.057326e+03
9.092737e+02,4.084793e+03
9.121664e+02,4.065347e+03
9.150591e+02,4.073154e+03
9.179518e+02,4.058091e+03
9.208445e+02,4.040513e+03
9.237372e+02,4.043548e+03
9.266299e+02,4.050465e+03
9.295226e+02,4.049487e+03
9.324153e+02,4.033127e+03
9.353080e+02,4.007438e+03
9.382007e+02,4.014707e+03
9.410934e+02,4.013193e+03
9.439861e+02,4.015544e+03
9.468788e+02,4.018002e+03
9.497715e+02,4.030393e+03
9.526642e+02,4.003198e+03
9.555569e+02,3.993736e+03
9.584496e+02,4.011969e+03
9.613423e+02,4.024582e+03
9.642350e+02,3.995670e+03
9.671277e+02,3.985097e+03
9.700204e+02,3.990760e+03
9.729131e+02,3.983593e+03
9.758058e+02,3.973876e+03
9.786985e+02,3.971112e+03
9.815912e+02,3.979273e+03
9.844839e+02,3.956046e+03
9.873766e+02,3.964505e+03
9.902693e+02,3.957645e+03
9.931620e+02,3.974667e+03
9.960547e+02,3.969306e+03
9.989474e+02,3.964001e+03
1.001840e+03,3.956535e+03
1.004733e+03,3.945636e+03
1.007626e+03,3.949397e+03
1.010518e+03,3.939676e+03
1.013411e+03,3.931104e+03
1.016304e+03,3.919121e+03
1.019196e+03,3.918113e+03
1.022089e+03,3.931856e+03
1.024982e+03,3.930190e+03
1.027875e+03,3.919893e+03
1.030767e+03,3.918906e+03
1.033660e+03,3.909380e+03
1.036552e+03,3.922071e+03
1.039445e+03,3.914676e+03
1.042338e+03,3.904733e+03
1.045231e+03,3.908772e+03
1.048123e+03,3.880850e+03
1.051016e+03,3.910908e+03
1.053909e+03,3.898741e+03
1.056802e+03,3.893343e+03
1.059694e+03,3.886684e+03
1.062587e+03,3.876391e+03
1.065479e+03,3.883916e+03
1.068372e+03,3.876921e+03
1.071265e+03,3.871311e+03
1.074158e+03,3.891076e+03
1.077050e+03,3.860756e+03
1.079943e+03,3.863399e+03
1.082836e+03,3.894746e+03
1.085729e+03,3.876139e+03
1.088621e+03,3.901671e+03
1.091514e+03,3.885482e+03
1.094406e+03,3.872108e+03
1.097299e+03,3.868167e+03
1.100192e+03,3.858612e+03
1.103085e+03,3.847329e+03
1.105977e+03,3.866288e+03
1.108870e+03,3.859072e+03
1.111763e+03,3.849775e+03
1.114656e+03,3.849412e+03
1.117548e+03,3.879730e+03
1.120441e+03,3.861647e+03
1.123334e+03,3.862391e+03
1.126226e+03,3.847465e+03
1.129119e+03,3.856230e+03
1.132012e+03,3.854629e+03
1.134904e+03,3.835906e+03
1.137797e+03,3.823629e+03
1.140690e+03,3.826442e+03
1.143583e+03,3.825059e+03
1.146475e+03,3.820438e+03
1.149368e+03,3.816509e+03
1.152261e+03,3.836129e+03
1.155153e+03,3.824008e+03
1.158046e+03,3.793997e+03
1.160939e+03,3.790395e+03
1.163831e+03,3.795137e+03
1.166724e+03,3.778363e+03
1.169617e+03,3.774513e+03
1.172510e+03,3.773366e+03
1.175402e+03,3.759812e+03
1.178295e+03,3.777479e+03
1.181188e+03,3.770702e+03
1.184080e+03,3.742220e+03
1.186973e+03,3.745438e+03
1.189866e+03,3.740086e+03
1.192758e+03,3.761082e+03
1.195651e+03,3.729781e+03
1.198544e+03,3.738623e+03
1.201437e+03,3.733849e+03
1.204329e+03,3.713970e+03
1.207222e+03,3.725605e+03
1.210115e+03,3.730370e+03
1.213007e+03,3.763980e+03
1.215900e+03,3.762224e+03
1.218793e+03,3.711177e+03
1.221685e+03,3.706461e+03
1.224578e+03,3.720663e+03
1.227471e+03,3.707244e+03
1.230364e+03,3.688729e+03
1.233256e+03,3.687213e+03
1.236149e+03,3.688090e+03
1.239042e+03,3.682510e+03
1.241934e+03,3.695466e+03
1.244827e+03,3.682337e+03
1.247720e+03,3.671237e+03
1.250612e+03,3.675418e+03
1.253505e+03,3.658351e+03
1.256398e+03,3.659392e+03
1.259291e+03,3.666040e+03
1.262183e+03,3.646599e+03
1.265076e+03,3.665187e+03
1.267969e+03,3.653429e+03
1.270861e+03,3.668002e+03
1.273754e+03,3.685940e+03
1.276647e+03,3.678305e+03
1.279539e+03,3.659044e+03
1.282432e+03,3.671344e+03
1.285325e+03,3.673406e+03
1.288218e+03,3.660163e+03
1.291110e+03,3.647098e+03
1.294003e+03,3.639888e+03
1.296896e+03,3.609011e+03
1.299788e+03,3.602574e+03
1.302681e+03,3.620390e+03
1.305574e+03,3.615156e+03
1.308466e+03,3.602543e+03
1.311359e+03,3.607218e+03
1.314252e+03,3.604750e+03
1.317145e+03,3.589188e+03
1.320037e+03,3.623812e+03
1.322930e+03,3.580302e+03
1.325823e+03,3.602662e+03
1.328715e+03,3.607092e+03
1.331608e+03,3.605417e+03
1.334501e+03,3.603464e+03
1.337393e+03,3.606020e+03
1.340286e+03,3.615793e+03
1.343179e+03,3.592141e+03
1.346072e+03,3.583259e+03
1.348964e+03,3.579852e+03
1.351857e+03,3.563872e+03
1.354750e+03,3.570809e+03
1.357642e+03,3.554026e+03
1.360535e+03,3.540342e+03
1.363428e+03,3.549023e+03
1.366320e+03,3.553768e+03
1.369213e+03,3.564037e+03
1.372106e+03,3.546072e+03
1.374999e+03,3.517357e+03
1.377891e+03,3.522481e+03
1.380784e+03,3.527669e+03
1.383677e+03,3.512888e+03
1.386569e+03,3.505999e+03
1.389462e+03,3.488361e+03
1.392355e+03,3.476789e+03
1.395247e+03,3.488147e+03
1.398140e+03,3.492206e+03
1.401033e+03,3.486176e+03
1.403926e+03,3.470584e+03
1.406818e+03,3.458882e+03
1.409711e+03,3.462406e+03
1.412604e+03,3.469448e+03
1.415496e+03,3.454577e+03
1.418389e+03,3.462039e+03
1.421282e+03,3.452049e+03
1.424174e+03,3.451106e+03
1.427067e+03,3.434987e+03
1.429960e+03,3.427648e+03
1.432853e+03,3.439366e+03
1.435745e+03,3.405217e+03
1.438638e+03,3.417758e+03
1.441531e+03,3.412608e+03
1.444423e+03,3.391593e+03
1.447316e+03,3.378466e+03
1.450209e+03,3.393858e+03
1.453101e+03,3.401445e+03
1.455994e+03,3.388776e+03
1.458887e+03,3.383021e+03
1.461780e+03,3.392189e+03
1.464672e+03,3.356462e+03
1.467565e+03,3.362816e+03
1.470458e+03,3.369408e+03
1.473350e+03,3.358673e+03
1.476243e+03,3.368636e+03
1.479136e+03,3.348895e+03
1.482028e+03,3.332057e+03
1.484921e+03,3.341064e+03
1.487814e+03,3.322267e+03
1.490707e+03,3.325992e+03
1.493599e+03,3.330129e+03
1.496492e+03,3.344711e+03
1.499385e+03,3.316923e+03
1.502277e+03,3.313938e+03
1.505170e+03,3.307880e+03
1.508063e+03,3.314485e+03
1.510955e+03,3.298361e+03
1.513848e+03,3.293935e+03
1.516741e+03,3.279561e+03
1.519634e+03,3.276959e+03
1.522526e+03,3.301261e+03
1.525419e+03,3.305310e+03
1.528312e+03,3.268439e+03
1.531204e+03,3.260777e+03
1.534097e+03,3.271775e+03
1.536990e+03,3.270123e+03
1.539882e+03,3.246615e+03
1.542775e+03,3.252906e+03
1.545668e+03,3.242185e+03
1.548561e+03,3.260814e+03
1.551453e+03,3.252411e+03
1.554346e+03,3.255095e+03
1.557239e+03,3.244659e+03
1.560131e+03,3.244118e+03
1.563024e+03,3.237020e+03
1.565917e+03,3.242010e+03
1.568809e+03,3.238024e+03
1.571702e+03,3.246272e+03
1.574595e+03,3.249708e+03
1.577488e+03,3.230734e+03
1.580380e+03,3.239302e+03
1.583273e+03,3.232282e+03
1.586166e+03,3.241406e+03
1.589058e+03,3.209913e+03
1.591951e+03,3.213218e+03
1.594844e+03,3.195024e+03
1.597736e+03,3.198686e+03
1.600629e+03,3.181015e+03
1.603522e+03,3.171848e+03
1.606415e+03,3.172857e+03
1.609307e+03,3.180063e+03
1.612200e+03,3.180013e+03
1.615093e+03,3.155906e+03
1.617985e+03,3.138846e+03
1.620878e+03,3.164076e+03
1.623771e+03,3.123954e+03
1.626663e+03,3.138012e+03
1.629556e+03,3.122845e+03
1.632449e+03,3.135184e+03
1.635342e+03,3.104030e+03
1.638234e+03,3.091676e+03
1.641127e+03,3.080717e+03
1.644020e+03,3.094733e+03
1.646912e+03,3.067305e+03
1.649805e+03,3.052375e+03
1.652698e+03,3.076510e+03
1.655590e+03,3.085352e+03
1.658483e+03,3.048117e+03
1.661376e+03,3.063378e+03
1.664269e+03,3.066050e+03
1.667161e+03,3.060023e+03
1.670054e+03,3.020512e+03
1.672947e+03,3.045067e+03
1.675839e+03,3.044133e+03
1.678732e+03,3.032251e+03
1.681625e+03,3.011405e+03
1.684517e+03,3.030364e+03
1.687410e+03,3.005117e+03
1.690303e+03,3.015976e+03
1.693196e+03,3.006204e+03
1.696088e+03,2.988770e+03
1.698981e+03,2.991581e+03
1.701874e+03,2.978550e+03
1.704766e+03,2.983762e+03
1.707659e+03,2.976031e+03
1.710552e+03,2.969195e+03
1.713444e+03,2.974305e+03
1.716337e+03,2.951465e+03
1.719230e+03,2.956230e+03
1.722123e+03,2.950542e+03
1.725015e+03,2.954727e+03
1.727908e+03,2.945903e+03
1.730801e+03,2.940693e+03
1.733693e+03,2.933786e+03
1.736586e+03,2.921473e+03
1.739479e+03,2.940677e+03
1.742371e+03,2.918184e+03
1.745264e+03,2.926021e+03
1.748157e+03,2.897622e+03
1.751050e+03,2.908169e+03
1.753942e+03,2.881768e+03
1.756835e+03,2.880807e+03
1.759728e+03,2.895192e+03
1.762620e+03,2.862914e+03
1.765513e+03,2.871112e+03
1.768406e+03,2.880763e+03
1.771298e+03,2.859656e+03
1.774191e+03,2.852814e+03
1.777084e+03,2.848049e+03
1.779977e+03,2.868832e+03
1.782869e+03,2.858296e+03
1.785762e+03,2.833447e+03
1.788655e+03,2.849340e+03
1.791547e+03,2.836569e+03
1.794440e+03,2.810220e+03
1.797333e+03,2.821230e+03
1.800225e+03,2.825222e+03
1.803118e+03,2.813296e+03
1.806011e+03,2.799339e+03
1.808904e+03,2.806319e+03
1.811796e+03,2.803594e+03
1.814689e+03,2.786118e+03
1.817582e+03,2.792355e+03
1.820474e+03,2.787419e+03
1.823367e+03,2.777273e+03
1.826260e+03,2.793228e+03
1.829152e+03,2.748863e+03
1.832045e+03,2.779317e+03
1.834938e+03,2.761149e+03
1.837831e+03,2.756465e+03
1.840723e+03,2.752522e+03
1.843616e+03,2.743910e+03
1.846509e+03,2.754663e+03
1.849401e+03,2.720559e+03
1.852294e+03,2.703417e+03
1.855187e+03,2.711853e+03
1.858079e+03,2.716525e+03
1.860972e+03,2.706963e+03
1.863865e+03,2.702379e+03
1.866758e+03,2.705649e+03
1.869650e+03,2.681447e+03
1.872543e+03,2.703023e+03
1.875436e+03,2.698397e+03
1.878328e+03,2.689794e+03
1.881221e+03,2.671302e+03
1.884114e+03,2.656323e+03
1.887006e+03,2.669191e+03
1.889899e+03,2.644792e+03
1.892792e+03,2.647738e+03
1.895685e+03,2.645754e+03
1.898577e+03,2.642078e+03
1.901470e+03,2.628399e+03
1.904363e+03,2.622401e+03
1.907255e+03,2.626104e+03
1.910148e+03,2.618333e+03
1.913041e+03,2.624924e+03
1.915933e+03,2.612457e+03
1.918826e+03,2.576368e+03
1.921719e+03,2.594893e+03
1.924612e+03,2.588215e+03
1.927504e+03,2.580312e+03
1.930397e+03,2.547274e+03
1.933290e+03,2.567170e+03
1.936182e+03,2.572276e+03
1.939075e+03,2.560981e+03
1.941968e+03,2.568597e+03
1.944860e+03,2.542219e+03
1.947753e+03,2.557000e+03
1.950646e+03,2.551184e+03
1.953539e+03,2.535519e+03
1.956431e+03,2.537416e+03
1.959324e+03,2.522459e+03
1.962217e+03,2.532963e+03
1.965109e+03,2.489525e+03
1.968002e+03,2.511393e+03
1.970895e+03,2.519554e+03
1.973787e+03,2.503040e+03
1.976680e+03,2.509156e+03
1.979573e+03,2.494928e+03
1.982466e+03,2.494772e+03
1.985358e+03,2.475828e+03
1.988251e+03,2.468213e+03
1.991144e+03,2.446379e+03
1.994036e+03,2.467621e+03
1.996929e+03,2.469708e+03
1.999822e+03,2.441791e+03
2.002714e+03,2.448615e+03
2.005607e+03,2.422659e+03
2.008500e+03,2.427789e+03
2.011393e+03,2.428049e+03
2.014285e+03,2.431088e+03
2.017178e+03,2.410137e+03
2.020071e+03,2.420749e+03
2.022963e+03,2.399613e+03
2.025856e+03,2.406308e+03
2.028749e+03,2.393000e+03
2.031641e+03,2.398314e+03
2.034534e+03,2.386146e+03
2.037427e+03,2.361688e+03
2.040320e+03,2.374038e+03
2.043212e+03,2.341903e+03
2.046105e+03,2.355589e+03
2.048998e+03,2.353330e+03
2.051890e+03,2.356299e+03
2.054783e+03,2.345740e+03
2.057676e+03,2.318001e+03
2.060568e+03,2.319470e+03
2.063461e+03,2.328945e+03
2.066354e+03,2.316646e+03
2.069247e+03,2.304942e+03
2.072139e+03,2.303228e+03
2.075032e+03,2.308520e+03
2.077925e+03,2.294652e+03
2.080817e+03,2.301944e+03
2.083710e+03,2.283185e+03
2.086603e+03,2.280387e+03
2.089496e+03,2.263645e+03
2.092388e+03,2.266604e+03
2.095281e+03,2.256260e+03
2.098174e+03,2.262344e+03
2.101066e+03,2.244004e+03
2.103959e+03,2.238275e+03
2.106852e+03,2.247112e+03
2.109744e+03,2.239740e+03
2.112637e+03,2.224735e+03
2.115530e+03,2.215146e+03
2.118422e+03,2.207429e+03
2.121315e+03,2.221159e+03
2.124208e+03,2.220754e+03
2.127101e+03,2.189068e+03
2.129993e+03,2.212367e+03
2.132886e+03,2.181799e+03
2.135779e+03,2.183314e+03
2.138671e+03,2.198291e+03
2.141564e+03,2.177730e+03
2.144457e+03,2.167979e+03
2.147350e+03,2.138022e+03
2.150242e+03,2.149252e+03
2.153135e+03,2.171536e+03
2.156028e+03,2.142267e+03
2.158920e+03,2.133046e+03
2.161813e+03,2.124569e+03
2.164706e+03,2.128141e+03
2.167598e+03,2.129791e+03
2.170491e+03,2.106588e+03
2.173384e+03,2.122645e+03
2.176277e+03,2.120082e+03
2.179169e+03,2.097089e+03
2.182062e+03,2.075430e+03
2.184955e+03,2.109385e+03
2.187847e+03,2.114332e+03
2.190740e+03,2.097740e+03
2.193633e+03,2.085250e+03
2.196525e+03,2.067104e+03
2.199418e+03,2.073276e+03
2.202311e+03,2.052832e+03
2.205204e+03,2.075802e+03
2.208096e+03,2.058252e+03
2.210989e+03,2.028698e+03
2.213882e+03,2.035143e+03
2.216774e+03,2.050465e+03
2.219667e+03,2.029428e+03
2.222560e+03,2.015049e+03
2.225452e+03,2.011814e+03
2.228345e+03,2.002631e+03
2.231238e+03,2.018189e+03
2.234131e+03,2.006186e+03
2.237023e+03,2.005710e+03
2.239916e+03,1.984603e+03
2.242809e+03,1.988865e+03
2.245701e+03,1.997773e+03
2.248594e+03,1.983937e+03
2.251487e+03,1.980510e+03
2.254379e+03,1.964440e+03
2.257272e+03,1.976502e+03
2.260165e+03,1.940734e+03
2.263058e+03,1.963969e+03
2.265950e+03,1.962069e+03
2.268843e+03,1.937268e+03
2.271736e+03,1.918625e+03
2.274628e+03,1.924545e+03
2.277521e+03,1.932555e+03
2.280414e+03,1.920001e+03
2.283306e+03,1.909643e+03
2.286199e+03,1.899850e+03
2.289092e+03,1.919501e+03
2.291985e+03,1.902430e+03
2.294877e+03,1.883906e+03
2.297770e+03,1.897091e+03
2.300663e+03,1.884732e+03
2.303555e+03,1.866784e+03
2.306448e+03,1.871601e+03
2.309341e+03,1.883523e+03
2.312233e+03,1.884173e+03
2.315126e+03,1.858254e+03
2.318019e+03,1.845057e+03
2.320912e+03,1.855745e+03
2.323804e+03,1.867347e+03
2.326697e+03,1.863543e+03
2.329590e+03,1.846644e+03
2.332482e+03,1.839281e+03
2.335375e+03,1.843953e+03
2.338268e+03,1.835785e+03
2.341160e+03,1.814174e+03
2.344053e+03,1.828769e+03
2.346946e+03,1.823630e+03
2.349839e+03,1.813633e+03
2.352731e+03,1.805458e+03
2.355624e+03,1.789777e+03
2.358517e+03,1.787823e+03
2.361409e+03,1.800828e+03
2.364302e+03,1.797111e+03
2.367195e+03,1.788883e+03
2.370087e+03,1.762766e+03
2.372980e+03,1.782717e+03
2.375873e+03,1.783225e+03
2.378766e+03,1.756780e+03
2.381658e+03,1.760189e+03
2.384551e+03,1.756022e+03
2.387444e+03,1.759772e+03
2.390336e+03,1.761376e+03
2.393229e+03,1.742450e+03
2.396122e+03,1.746576e+03
2.399014e+03,1.726472e+03
2.401907e+03,1.736932e+03
2.404800e+03,1.724604e+03
2.407693e+03,1.713788e+03
2.410585e+03,1.723638e+03
2.413478e+03,1.708839e+03
2.416371e+03,1.712906e+03
2.419263e+03,1.689959e+03
2.422156e+03,1.696149e+03
2.425049e+03,1.699771e+03
2.427941e+03,1.699422e+03
2.430834e+03,1.685307e+03
2.433727e+03,1.667392e+03
2.436620e+03,1.672472e+03
2.439512e+03,1.684216e+03
2.442405e+03,1.669194e+03
2.445298e+03,1.677937e+03
2.448190e+03,1.665491e+03
2.451083e+03,1.659088e+03
2.453976e+03,1.665113e+03
2.456868e+03,1.666102e+03
2.459761e+03,1.643013e+03
2.462654e+03,1.630362e+03
2.465547e+03,1.619796e+03
2.468439e+03,1.640482e+03
2.471332e+03,1.609969e+03
2.474225e+03,1.637648e+03
2.477117e+03,1.620255e+03
2.480010e+03,1.622651e+03
2.482903e+03,1.611768e+03
2.485795e+03,1.620501e+03
2.488688e+03,1.603471e+03
2.491581e+03,1.599576e+03
2.494474e+03,1.594071e+03
2.497366e+03,1.599577e+03
2.500259e+03,1.591032e+03
2.503152e+03,1.596159e+03
2.506044e+03,1.571983e+03
2.508937e+03,1.580744e+03
2.511830e+03,1.575577e+03
2.514722e+03,1.574460e+03
2.517615e+03,1.581710e+03
2.520508e+03,1.574930e+03
2.523401e+03,1.564448e+03
2.526293e+03,1.568061e+03
2.529186e+03,1.558316e+03
2.532079e+03,1.553201e+03
2.534971e+03,1.555822e+03
2.537864e+03,1.524492e+03
2.540757e+03,1.551257e+03
2.543649e+03,1.536230e+03
2.546542e+03,1.530944e+03
2.549435e+03,1.548909e+03
2.552328e+03,1.513258e+03
2.555220e+03,1.517858e+03
2.558113e+03,1.533697e+03
2.561006e+03,1.533811e+03
2.563898e+03,1.518459e+03
2.566791e+03,1.514254e+03
2.569684e+03,1.502286e+03
2.572576e+03,1.510806e+03
2.575469e+03,1.508025e+03
2.578362e+03,1.507198e+03
2.581255e+03,1.499326e+03
2.584147e+03,1.489998e+03
2.587040e+03,1.484431e+03
2.589933e+03,1.490528e+03
2.592825e+03,1.472581e+03
2.595718e+03,1.478391e+03
2.598611e+03,1.473674e+03
2.601503e+03,1.454460e+03
2.604396e+03,1.478373e+03
2.607289e+03,1.497133e+03
2.610182e+03,1.456766e+03
2.613074e+03,1.449658e+03
2.615967e+03,1.440970e+03
2.618860e+03,1.431073e+03
2.621752e+03,1.442188e+03
2.624645e+03,1.444146e+03
2.627538e+03,1.429001e+03
2.630430e+03,1.424588e+03
2.633323e+03,1.436746e+03
2.636216e+03,1.428575e+03
2.639109e+03,1.423715e+03
2.642001e+03,1.426296e+03
2.644894e+03,1.399684e+03
2.647787e+03,1.418229e+03
2.650679e+03,1.413583e+03
2.653572e+03,1.409964e+03
2.656465e+03,1.414347e+03
2.659357e+03,1.405518e+03
2.662250e+03,1.404475e+03
2.665143e+03,1.399284e+03
2.668036e+03,1.400220e+03
2.670928e+03,1.412404e+03
2.673821e+03,1.411245e+03
2.676714e+03,1.391344e+03
2.679606e+03,1.380619e+03
2.682499e+03,1.402418e+03
2.685392e+03,1.390941e+03
2.688284e+03,1.385530e+03
2.691177e+03,1.395440e+03
2.694070e+03,1.366724e+03
2.696963e+03,1.363943e+03
2.699855e+03,1.362109e+03
2.702748e+03,1.361877e+03
2.705641e+03,1.362320e+03
2.708533e+03,1.340973e+03
2.711426e+03,1.362390e+03
2.714319e+03,1.339225e+03
2.717211e+03,1.351660e+03
2.720104e+03,1.345117e+03
2.722997e+03,1.335266e+03
2.725890e+03,1.333129e+03
2.728782e+03,1.342662e+03
2.731675e+03,1.334415e+03
2.734568e+03,1.323569e+03
2.737460e+03,1.321173e+03
2.740353e+03,1.330362e+03
2.743246e+03,1.300509e+03
2.746138e+03,1.328115e+03
2.749031e+03,1.330381e+03
2.751924e+03,1.299241e+03
2.754817e+03,1.322714e+03
2.757709e+03,1.292486e+03
2.760602e+03,1.295113e+03
2.763495e+03,1.312886e+03
2.766387e+03,1.282342e+03
2.769280e+03,1.290424e+03
2.772173e+03,1.309696e+03
2.775065e+03,1.263577e+03
2.777958e+03,1.299223e+03
2.780851e+03,1.289997e+03
2.783744e+03,1.261663e+03
2.786636e+03,1.285553e+03
2.789529e+03,1.279102e+03
2.792422e+03,1.306326e+03
2.795314e+03,1.282948e+03
2.798207e+03,1.273532e+03
2.801100e+03,1.287877e+03
2.803992e+03,1.250245e+03
2.806885e+03,1.246624e+03
2.809778e+03,1.239170e+03
2.812671e+03,1.243945e+03
2.815563e+03,1.246604e+03
2.818456e+03,1.250768e+03
2.821349e+03,1.254818e+03
2.824241e+03,1.251467e+03
2.827134e+03,1.233824e+03
2.830027e+03,1.232465e+03
2.832919e+03,1.241307e+03
2.835812e+03,1.221429e+03
2.838705e+03,1.223139e+03
2.841598e+03,1.224722e+03
2.844490e+03,1.244453e+03
2.847383e+03,1.230321e+03
2.850276e+03,1.266883e+03
2.853168e+03,1.248387e+03
2.856061e+03,1.239625e+03
2.858954e+03,1.252025e+03
2.861846e+03,1.241471e+03
2.864739e+03,1.218210e+03
2.867632e+03,1.228506e+03
2.870525e+03,1.241258e+03
2.873417e+03,1.244728e+03
2.876310e+03,1.234052e+03
2.879203e+03,1.246449e+03
2.882095e+03,1.246202e+03
2.884988e+03,1.237377e+03
2.887881e+03,1.242486e+03
2.890773e+03,1.228687e+03
2.893666e+03,1.213137e+03
2.896559e+03,1.225098e+03
2.899452e+03,1.226021e+03
2.902344e+03,1.215007e+03
2.905237e+03,1.221771e+03
2.908130e+03,1.218343e+03
2.911022e+03,1.215428e+03
2.913915e+03,1.207137e+03
2.916808e+03,1.178619e+03
2.919700e+03,1.193689e+03
2.922593e+03,1.182096e+03
2.925486e+03,1.203414e+03
2.928379e+03,1.189513e+03
2.931271e+03,1.154746e+03
2.934164e+03,1.164285e+03
2.937057e+03,1.162952e+03
2.939949e+03,1.161667e+03
2.942842e+03,1.148020e+03
2.945735e+03,1.174041e+03
2.948627e+03,1.177594e+03
2.951520e+03,1.149919e+03
2.954413e+03,1.179657e+03
2.957306e+03,1.191082e+03
2.960198e+03,1.178679e+03
2.963091e+03,1.176749e+03
2.965984e+03,1.129870e+03
2.968876e+03,1.160567e+03
2.971769e+03,1.119401e+03
2.974662e+03,1.118850e+03
2.977554e+03,1.143565e+03
2.980447e+03,1.127484e+03
2.983340e+03,1.118080e+03
2.986233e+03,1.113214e+03
2.989125e+03,1.132505e+03
2.992018e+03,1.135849e+03
2.994911e+03,1.087123e+03
2.997803e+03,1.124966e+03
3.000696e+03,1.105591e+03
3.003589e+03,1.085013e+03
3.006481e+03,1.126394e+03
3.009374e+03,1.117035e+03
3.012267e+03,1.099286e+03
3.015160e+03,1.084549e+03
3.018052e+03,1.095348e+03
3.020945e+03,1.111409e+03
3.023838e+03,1.074971e+03
3.026730e+03,1.095978e+03
3.029623e+03,1.098375e+03
3.032516e+03,1.092331e+03
3.035408e+03,1.051878e+03
3.038301e+03,1.079176e+03
3.041194e+03,1.101606e+03
3.044087e+03,1.058662e+03
3.046979e+03,1.085422e+03
3.049872e+03,1.065624e+03
3.052765e+03,1.067596e+03
3.055657e+03,1.072809e+03
3.058550e+03,1.054433e+03
3.061443e+03,1.055461e+03
3.064335e+03,1.063279e+03
3.067228e+03,1.066911e+03
3.070121e+03,1.082458e+03
3.073014e+03,1.057614e+03
3.075906e+03,1.046164e+03
3.078799e+03,1.075015e+03
3.081692e+03,1.061744e+03
3.084584e+03,1.060052e+03
3.087477e+03,1.058351e+03
3.090370e+03,1.085785e+03
3.093262e+03,1.049011e+03
3.096155e+03,1.067138e+03
3.099048e+03,1.047341e+03
3.101941e+03,1.054817e+03
3.104833e+03,1.039129e+03
3.107726e+03,1.052237e+03
3.110619e+03,1.069390e+03
3.113511e+03,1.053645e+03
3.116404e+03,1.011471e+03
3.119297e+03,1.015046e+03
3.122189e+03,1.050654e+03
3.125082e+03,1.051378e+03
3.127975e+03,1.047152e+03
3.130868e+03,1.069594e+03
3.133760e+03,1.055853e+03
3.136653e+03,1.036394e+03
3.139546e+03,1.026308e+03
3.142438e+03,1.063239e+03
3.145331e+03,9.826998e+02
3.148224e+03,1.062097e+03
3.151116e+03,1.021881e+03
3.154009e+03,1.032867e+03
3.156902e+03,1.009789e+03
3.159795e+03,1.017945e+03
3.162687e+03,1.013385e+03
3.165580e+03,1.052674e+03
3.168473e+03,1.063524e+03
3.171365e+03,1.040880e+03
3.174258e+03,1.023368e+03
3.177151e+03,1.037166e+03
3.180043e+03,1.056271e+03
3.182936e+03,1.003485e+03
3.185829e+03,9.886256e+02
3.188722e+03,1.054620e+03
3.191614e+03,1.050321e+03
3.194507e+03,1.057939e+03
3.197400e+03,1.010351e+03
3.200292e+03,1.079812e+03
3.203185e+03,0.000000e+00
3.206078e+03,0.000000e+00
3.208970e+03,0.000000e+00
3.211863e+03,0.000000e+00
3.214756e+03,0.000000e+00
3.217649e+03,0.000000e+00
3.220541e+03,0.000000e+00
3.223434e+03,0.000000e+00
3.226327e+03,0.000000e+00
3.229219e+03,0.000000e+00
3.232112e+03,0.000000e+00
3.235005e+03,0.000000e+00
3.237897e+03,0.000000e+00
3.240790e+03,0.000000e+00
3.243683e+03,0.000000e+00
3.246576e+03,0.000000e+00
3.249468e+03,0.000000e+00
3.252361e+03,0.000000e+00
3.255254e+03,0.000000e+00
3.258146e+03,0.000000e+00
3.261039e+03,0.000000e+00
3.263932e+03,0.000000e+00
3.266824e+03,0.000000e+00
3.269717e+03,0.000000e+00
3.272610e+03,0.000000e+00
3.275503e+03,0.000000e+00
3.278395e+03,0.000000e+00
3.281288e+03,0.000000e+00
3.284181e+03,0.000000e+00
3.287073e+03,0.000000e+00
3.289966e+03,0.000000e+00
3.292859e+03,0.000000e+00
3.295751e+03,0.000000e+00
3.298644e+03,0.000000e+00
3.301537e+03,0.000000e+00
3.304430e+03,0.000000e+00
3.307322e+03,0.000000e+00
3.310215e+03,0.000000e+00
3.313108e+03,0.000000e+00
3.316000e+03,0.000000e+00
3.318893e+03,0.000000e+00
3.321786e+03,0.000000e+00
3.324678e+03,0.000000e+00
3.327571e+03,0.000000e+00
3.330464e+03,0.000000e+00
3.333357e+03,0.000000e+00
3.336249e+03,0.000000e+00
3.339142e+03,0.000000e+00
3.342035e+03,0.000000e+00
3.344927e+03,0.000000e+00
3.347820e+03,0.000000e+00
3.350713e+03,0.000000e+00
3.353605e+03,0.000000e+00
3.356498e+03,0.000000e+00
3.359391e+03,0.000000e+00
3.362284e+03,0.000000e+00
3.365176e+03,0.000000e+00
3.368069e+03,0.000000e+00
3.370962e+03,0.000000e+00
3.373854e+03,0.000000e+00
3.376747e+03,0.000000e+00
3.379640e+03,0.000000e+00
3.382532e+03,0.000000e+00
3.385425e+03,0.000000e+00
3.388318e+03,0.000000e+00
3.391211e+03,0.000000e+00
3.394103e+03,0.000000e+00
3.396996e+03,0.000000e+00
3.399889e+03,0.000000e+00
3.402781e+03,0.000000e+00
3.405674e+03,0.000000e+00
3.408567e+03,0.000000e+00
3.411459e+03,0.000000e+00
3.414352e+03,0.000000e+00
3.417245e+03,0.000000e+00
3.420138e+03,0.000000e+00
3.423030e+03,0.000000e+00
3.425923e+03,0.000000e+00
3.428816e+03,0.000000e+00
3.431708e+03,0.000000e+00
3.434601e+03,0.000000e+00
3.437494e+03,0.000000e+00
3.440386e+03,0.000000e+00
3.443279e+03,0.000000e+00
3.446172e+03,0.000000e+00
3.449065e+03,0.000000e+00
3.451957e+03,0.000000e+00
3.454850e+03,0.000000e+00
3.457743e+03,0.000000e+00
3.460635e+03,0.000000e+00
3.463528e+03,0.000000e+00
3.466421e+03,0.000000e+00
3.469313e+03,0.000000e+00
3.472206e+03,0.000000e+00
3.475099e+03,0.000000e+00
3.477992e+03,0.000000e+00
3.480884e+03,0.000000e+00
3.483777e+03,0.000000e+00
3.486670e+03,0.000000e+00
3.489563e+03,0.000000e+00
3.492455e+03,0.000000e+00
3.495348e+03,0.000000e+00
3.498240e+03,0.000000e+00
3.500169e+03,0.000000e+00