File: RAMAN_data/12022024_r2/blue fibre7.CSV
9.931763e+01,0.000000e+00
1.022103e+02,0.000000e+00
1.051030e+02,0.000000e+00
1.079957e+02,0.000000e+00
1.108884e+02,0.000000e+00
1.137811e+02,0.000000e+00
1.166738e+02,0.000000e+00
1.195665e+02,0.000000e+00
1.224592e+02,0.000000e+00
1.253519e+02,0.000000e+00
1.282446e+02,0.000000e+00
1.311373e+02,0.000000e+00
1.340300e+02,0.000000e+00
1.369227e+02,0.000000e+00
1.398154e+02,0.000000e+00
1.427081e+02,0.000000e+00
1.456008e+02,0.000000e+00
1.484935e+02,0.000000e+00
1.513862e+02,0.000000e+00
1.542789e+02,0.000000e+00
1.571716e+02,0.000000e+00
1.600643e+02,0.000000e+00
1.629570e+02,0.000000e+00
1.658497e+02,0.000000e+00
1.687424e+02,0.000000e+00
1.716351e+02,0.000000e+00
1.745278e+02,0.000000e+00
1.774205e+02,0.000000e+00
1.803132e+02,0.000000e+00
1.832059e+02,0.000000e+00
1.860986e+02,0.000000e+00
1.889913e+02,0.000000e+00
1.918840e+02,0.000000e+00
1.947767e+02,0.000000e+00
1.976694e+02,0.000000e+00
2.005621e+02,9.702604e+03
2.034548e+02,9.738324e+03
2.063475e+02,9.763828e+03
2.092402e+02,9.788490e+03
2.121329e+02,9.790248e+03
2.150256e+02,9.793754e+03
2.179183e+02,9.827825e+03
2.208110e+02,9.890356e+03
2.237037e+02,9.890591e+03
2.265964e+02,9.891493e+03
2.294892e+02,9.920757e+03
2.323819e+02,9.967739e+03
2.352746e+02,9.993855e+03
2.381673e+02,1.003375e+04
2.410600e+02,1.002720e+04
2.439527e+02,1.003816e+04
2.468454e+02,1.005956e+04
2.497381e+02,1.010033e+04
2.526308e+02,1.014364e+04
2.555235e+02,1.015304e+04
2.584161e+02,1.015037e+04
2.613088e+02,1.017727e+04
2.642015e+02,1.022840e+04
2.670942e+02,1.027790e+04
2.699869e+02,1.028618e+04
2.728796e+02,1.028370e+04
2.757723e+02,1.031445e+04
2.786650e+02,1.038545e+04
2.815577e+02,1.039542e+04
2.844504e+02,1.042920e+04
2.873431e+02,1.041339e+04
2.902358e+02,1.044431e+04
2.931285e+02,1.047315e+04
2.960212e+02,1.051551e+04
2.989139e+02,1.053818e+04
3.018066e+02,1.055641e+04
3.046993e+02,1.058117e+04
3.075920e+02,1.060675e+04
3.104847e+02,1.063146e+04
3.133774e+02,1.066749e+04
3.162701e+02,1.068491e+04
3.191628e+02,1.071286e+04
3.220555e+02,1.071696e+04
3.249482e+02,1.074386e+04
3.278409e+02,1.077276e+04
3.307336e+02,1.079650e+04
3.336263e+02,1.083112e+04
3.365190e+02,1.084442e+04
3.394117e+02,1.085461e+04
3.423044e+02,1.086400e+04
3.451971e+02,1.092845e+04
3.480898e+02,1.096304e+04
3.509825e+02,1.094976e+04
3.538752e+02,1.098529e+04
3.567680e+02,1.101343e+04
3.596607e+02,1.103586e+04
3.625534e+02,1.105977e+04
3.654461e+02,1.103091e+04
3.683388e+02,1.104898e+04
3.712315e+02,1.109325e+04
3.741242e+02,1.113410e+04
3.770169e+02,1.114954e+04
3.799096e+02,1.118519e+04
3.828023e+02,1.117554e+04
3.856950e+02,1.119263e+04
3.885877e+02,1.124039e+04
3.914804e+02,1.126612e+04
3.943731e+02,1.127028e+04
3.972658e+02,1.126299e+04
4.001585e+02,1.126475e+04
4.030512e+02,1.131398e+04
4.059439e+02,1.132699e+04
4.088366e+02,1.135808e+04
4.117293e+02,1.136216e+04
4.146220e+02,1.137558e+04
4.175147e+02,1.140530e+04
4.204074e+02,1.140106e+04
4.233001e+02,1.143759e+04
4.261928e+02,1.144332e+04
4.290855e+02,1.145978e+04
4.319782e+02,1.149271e+04
4.348709e+02,1.152061e+04
4.377636e+02,1.156264e+04
4.406563e+02,1.152447e+04
4.435490e+02,1.153142e+04
4.464417e+02,1.154146e+04
4.493344e+02,1.156555e+04
4.522271e+02,1.157830e+04
4.551198e+02,1.159185e+04
4.580125e+02,1.160092e+04
4.609052e+02,1.157425e+04
4.637979e+02,1.155761e+04
4.666906e+02,1.155338e+04
4.695833e+02,1.163291e+04
4.724760e+02,1.158208e+04
4.753687e+02,1.160292e+04
4.782614e+02,1.157604e+04
4.811541e+02,1.161785e+04
4.840468e+02,1.163354e+04
4.869395e+02,1.164798e+04
4.898322e+02,1.163418e+04
4.927249e+02,1.165470e+04
4.956176e+02,1.166604e+04
4.985103e+02,1.165416e+04
5.014030e+02,1.165955e+04
5.042957e+02,1.166296e+04
5.071884e+02,1.168886e+04
5.100811e+02,1.168420e+04
5.129738e+02,1.172621e+04
5.158665e+02,1.171652e+04
5.187592e+02,1.171045e+04
5.216519e+02,1.170275e+04
5.245446e+02,1.169210e+04
5.274373e+02,1.171739e+04
5.303300e+02,1.172911e+04
5.332227e+02,1.173841e+04
5.361154e+02,1.168796e+04
5.390081e+02,1.168202e+04
5.419008e+02,1.170084e+04
5.447935e+02,1.171818e+04
5.476862e+02,1.171741e+04
5.505789e+02,1.173725e+04
5.534716e+02,1.169715e+04
5.563643e+02,1.171051e+04
5.592570e+02,1.175506e+04
5.621497e+02,1.175537e+04
5.650424e+02,1.176981e+04
5.679351e+02,1.173741e+04
5.708278e+02,1.171631e+04
5.737205e+02,1.173883e+04
5.766132e+02,1.176677e+04
5.795059e+02,1.175608e+04
5.823986e+02,1.174930e+04
5.852913e+02,1.174481e+04
5.881840e+02,1.177430e+04
5.910767e+02,1.176036e+04
5.939694e+02,1.180573e+04
5.968621e+02,1.180592e+04
5.997548e+02,1.178944e+04
6.026475e+02,1.178181e+04
6.055402e+02,1.176318e+04
6.084329e+02,1.179042e+04
6.113256e+02,1.176452e+04
6.142183e+02,1.178044e+04
6.171110e+02,1.174596e+04
6.200037e+02,1.181643e+04
6.228964e+02,1.177846e+04
6.257891e+02,1.181598e+04
6.286818e+02,1.177223e+04
6.315745e+02,1.176725e+04
6.344672e+02,1.178223e+04
6.373599e+02,1.175152e+04
6.402526e+02,1.171475e+04
6.431453e+02,1.171525e+04
6.460380e+02,1.174128e+04
6.489307e+02,1.175030e+04
6.518234e+02,1.174883e+04
6.547161e+02,1.174488e+04
6.576088e+02,1.169323e+04
6.605015e+02,1.166319e+04
6.633942e+02,1.172009e+04
6.662869e+02,1.171227e+04
6.691796e+02,1.176466e+04
6.720723e+02,1.174351e+04
6.749650e+02,1.173526e+04
6.778577e+02,1.168654e+04
6.807504e+02,1.168931e+04
6.836431e+02,1.172860e+04
6.865358e+02,1.170304e+04
6.894285e+02,1.167683e+04
6.923212e+02,1.168166e+04
6.952139e+02,1.165289e+04
6.981066e+02,1.166708e+04
7.009993e+02,1.165007e+04
7.038920e+02,1.170500e+04
7.067847e+02,1.164914e+04
7.096774e+02,1.161855e+04
7.125701e+02,1.164873e+04
7.154628e+02,1.162492e+04
7.183555e+02,1.164189e+04
7.212482e+02,1.163445e+04
7.241409e+02,1.162901e+04
7.270336e+02,1.160843e+04
7.299263e+02,1.159275e+04
7.328190e+02,1.157688e+04
7.357117e+02,1.152453e+04
7.386044e+02,1.154453e+04
7.414971e+02,1.153327e+04
7.443898e+02,1.152719e+04
7.472825e+02,1.154815e+04
7.501752e+02,1.154657e+04
7.530679e+02,1.146935e+04
7.559606e+02,1.148699e+04
7.588533e+02,1.151296e+04
7.617460e+02,1.152894e+04
7.646387e+02,1.150529e+04
7.675314e+02,1.145682e+04
7.704241e+02,1.138767e+04
7.733168e+02,1.141497e+04
7.762095e+02,1.145717e+04
7.791022e+02,1.146386e+04
7.819949e+02,1.143595e+04
7.848876e+02,1.140259e+04
7.877803e+02,1.139297e+04
7.906730e+02,1.142382e+04
7.935657e+02,1.140820e+04
7.964584e+02,1.134784e+04
7.993511e+02,1.141432e+04
8.022438e+02,1.136959e+04
8.051365e+02,1.136906e+04
8.080292e+02,1.136824e+04
8.109219e+02,1.133095e+04
8.138146e+02,1.131531e+04
8.167073e+02,1.129910e+04
8.196000e+02,1.134126e+04
8.224927e+02,1.136471e+04
8.253854e+02,1.134089e+04
8.282781e+02,1.130917e+04
8.311708e+02,1.130422e+04
8.340635e+02,1.129907e+04
8.369562e+02,1.127842e+04
8.398489e+02,1.130466e+04
8.427416e+02,1.128290e+04
8.456343e+02,1.124856e+04
8.485270e+02,1.127683e+04
8.514197e+02,1.126165e+04
8.543124e+02,1.123961e+04
8.572051e+02,1.119860e+04
8.600978e+02,1.123604e+04
8.629905e+02,1.118169e+04
8.658832e+02,1.120021e+04
8.687759e+02,1.119505e+04
8.716686e+02,1.120834e+04
8.745613e+02,1.115714e+04
8.774540e+02,1.115879e+04
8.803467e+02,1.114133e+04
8.832394e+02,1.115645e+04
8.861321e+02,1.116021e+04
8.890248e+02,1.112550e+04
8.919175e+02,1.112154e+04
8.948102e+02,1.110920e+04
8.977029e+02,1.109205e+04
9.005956e+02,1.109460e+04
9.034883e+02,1.103920e+04
9.063810e+02,1.104819e+04
9.092737e+02,1.106253e+04
9.121664e+02,1.107061e+04
9.150591e+02,1.105560e+04
9.179518e+02,1.104611e+04
9.208445e+02,1.098088e+04
9.237372e+02,1.096041e+04
9.266299e+02,1.095570e+04
9.295226e+02,1.096489e+04
9.324153e+02,1.094855e+04
9.353080e+02,1.097494e+04
9.382007e+02,1.094155e+04
9.410934e+02,1.091364e+04
9.439861e+02,1.092510e+04
9.468788e+02,1.090075e+04
9.497715e+02,1.089830e+04
9.526642e+02,1.088902e+04
9.555569e+02,1.086158e+04
9.584496e+02,1.083863e+04
9.613423e+02,1.085642e+04
9.642350e+02,1.085433e+04
9.671277e+02,1.081293e+04
9.700204e+02,1.081532e+04
9.729131e+02,1.077223e+04
9.758058e+02,1.076735e+04
9.786985e+02,1.082403e+04
9.815912e+02,1.078376e+04
9.844839e+02,1.075182e+04
9.873766e+02,1.075317e+04
9.902693e+02,1.072981e+04
9.931620e+02,1.076631e+04
9.960547e+02,1.075562e+04
9.989474e+02,1.072576e+04
1.001840e+03,1.068743e+04
1.004733e+03,1.067655e+04
1.007626e+03,1.068664e+04
1.010518e+03,1.069742e+04
1.013411e+03,1.068367e+04
1.016304e+03,1.064925e+04
1.019196e+03,1.066515e+04
1.022089e+03,1.064278e+04
1.024982e+03,1.065771e+04
1.027875e+03,1.062715e+04
1.030767e+03,1.064398e+04
1.033660e+03,1.065978e+04
1.036552e+03,1.064462e+04
1.039445e+03,1.062863e+04
1.042338e+03,1.063208e+04
1.045231e+03,1.061458e+04
1.048123e+03,1.059508e+04
1.051016e+03,1.059847e+04
1.053909e+03,1.063261e+04
1.056802e+03,1.061659e+04
1.059694e+03,1.056180e+04
1.062587e+03,1.056990e+04
1.065479e+03,1.053219e+04
1.068372e+03,1.056050e+04
1.071265e+03,1.055135e+04
1.074158e+03,1.055691e+04
1.077050e+03,1.053336e+04
1.079943e+03,1.050553e+04
1.082836e+03,1.054821e+04
1.085729e+03,1.054260e+04
1.088621e+03,1.058676e+04
1.091514e+03,1.050717e+04
1.094406e+03,1.047307e+04
1.097299e+03,1.048555e+04
1.100192e+03,1.049668e+04
1.103085e+03,1.046808e+04
1.105977e+03,1.046269e+04
1.108870e+03,1.041950e+04
1.111763e+03,1.043611e+04
1.114656e+03,1.044808e+04
1.117548e+03,1.044840e+04
1.120441e+03,1.048421e+04
1.123334e+03,1.043612e+04
1.126226e+03,1.043448e+04
1.129119e+03,1.041339e+04
1.132012e+03,1.048790e+04
1.134904e+03,1.044454e+04
1.137797e+03,1.038671e+04
1.140690e+03,1.039576e+04
1.143583e+03,1.038181e+04
1.146475e+03,1.039958e+04
1.149368e+03,1.043088e+04
1.152261e+03,1.043977e+04
1.155153e+03,1.038834e+04
1.158046e+03,1.039145e+04
1.160939e+03,1.036838e+04
1.163831e+03,1.035411e+04
1.166724e+03,1.036860e+04
1.169617e+03,1.037256e+04
1.172510e+03,1.033600e+04
1.175402e+03,1.032893e+04
1.178295e+03,1.031514e+04
1.181188e+03,1.031200e+04
1.184080e+03,1.031045e+04
1.186973e+03,1.028887e+04
1.189866e+03,1.028623e+04
1.192758e+03,1.029931e+04
1.195651e+03,1.033455e+04
1.198544e+03,1.030763e+04
1.201437e+03,1.028874e+04
1.204329e+03,1.024237e+04
1.207222e+03,1.027672e+04
1.210115e+03,1.032634e+04
1.213007e+03,1.032953e+04
1.215900e+03,1.028643e+04
1.218793e+03,1.029596e+04
1.221685e+03,1.030050e+04
1.224578e+03,1.028851e+04
1.227471e+03,1.030663e+04
1.230364e+03,1.030418e+04
1.233256e+03,1.026073e+04
1.236149e+03,1.028540e+04
1.239042e+03,1.032445e+04
1.241934e+03,1.031672e+04
1.244827e+03,1.030240e+04
1.247720e+03,1.025135e+04
1.250612e+03,1.025442e+04
1.253505e+03,1.025811e+04
1.256398e+03,1.027983e+04
1.259291e+03,1.029011e+04
1.262183e+03,1.024705e+04
1.265076e+03,1.025841e+04
1.267969e+03,1.024474e+04
1.270861e+03,1.029816e+04
1.273754e+03,1.030879e+04
1.276647e+03,1.030918e+04
1.279539e+03,1.028702e+04
1.282432e+03,1.025453e+04
1.285325e+03,1.026621e+04
1.288218e+03,1.029144e+04
1.291110e+03,1.027353e+04
1.294003e+03,1.026608e+04
1.296896e+03,1.027456e+04
1.299788e+03,1.028342e+04
1.302681e+03,1.029559e+04
1.305574e+03,1.029281e+04
1.308466e+03,1.025528e+04
1.311359e+03,1.023383e+04
1.314252e+03,1.023999e+04
1.317145e+03,1.024065e+04
1.320037e+03,1.029522e+04
1.322930e+03,1.029413e+04
1.325823e+03,1.022820e+04
1.328715e+03,1.026124e+04
1.331608e+03,1.027557e+04
1.334501e+03,1.032910e+04
1.337393e+03,1.030251e+04
1.340286e+03,1.028513e+04
1.343179e+03,1.027322e+04
1.346072e+03,1.027956e+04
1.348964e+03,1.029782e+04
1.351857e+03,1.032154e+04
1.354750e+03,1.030885e+04
1.357642e+03,1.031169e+04
1.360535e+03,1.029328e+04
1.363428e+03,1.033096e+04
1.366320e+03,1.034810e+04
1.369213e+03,1.036695e+04
1.372106e+03,1.039459e+04
1.374999e+03,1.034810e+04
1.377891e+03,1.037456e+04
1.380784e+03,1.039615e+04
1.383677e+03,1.042298e+04
1.386569e+03,1.039595e+04
1.389462e+03,1.039523e+04
1.392355e+03,1.039547e+04
1.395247e+03,1.043694e+04
1.398140e+03,1.044989e+04
1.401033e+03,1.041218e+04
1.403926e+03,1.038811e+04
1.406818e+03,1.033989e+04
1.409711e+03,1.040022e+04
1.412604e+03,1.042031e+04
1.415496e+03,1.039165e+04
1.418389e+03,1.039531e+04
1.421282e+03,1.035754e+04
1.424174e+03,1.034684e+04
1.427067e+03,1.038691e+04
1.429960e+03,1.043362e+04
1.432853e+03,1.039984e+04
1.435745e+03,1.038432e+04
1.438638e+03,1.037091e+04
1.441531e+03,1.040233e+04
1.444423e+03,1.038811e+04
1.447316e+03,1.036512e+04
1.450209e+03,1.037810e+04
1.453101e+03,1.040707e+04
1.455994e+03,1.039254e+04
1.458887e+03,1.041581e+04
1.461780e+03,1.042043e+04
1.464672e+03,1.040403e+04
1.467565e+03,1.041031e+04
1.470458e+03,1.039985e+04
1.473350e+03,1.040342e+04
1.476243e+03,1.044104e+04
1.479136e+03,1.043034e+04
1.482028e+03,1.042345e+04
1.484921e+03,1.041831e+04
1.487814e+03,1.044428e+04
1.490707e+03,1.044773e+04
1.493599e+03,1.043201e+04
1.496492e+03,1.042052e+04
1.499385e+03,1.042792e+04
1.502277e+03,1.043879e+04
1.505170e+03,1.045705e+04
1.508063e+03,1.049562e+04
1.510955e+03,1.047925e+04
1.513848e+03,1.047874e+04
1.516741e+03,1.045236e+04
1.519634e+03,1.050153e+04
1.522526e+03,1.052831e+04
1.525419e+03,1.046692e+04
1.528312e+03,1.043168e+04
1.531204e+03,1.045243e+04
1.534097e+03,1.048458e+04
1.536990e+03,1.045497e+04
1.539882e+03,1.047194e+04
1.542775e+03,1.048291e+04
1.545668e+03,1.047877e+04
1.548561e+03,1.048921e+04
1.551453e+03,1.048371e+04
1.554346e+03,1.051863e+04
1.557239e+03,1.050757e+04
1.560131e+03,1.050052e+04
1.563024e+03,1.052647e+04
1.565917e+03,1.056503e+04
1.568809e+03,1.057381e+04
1.571702e+03,1.053613e+04
1.574595e+03,1.053997e+04
1.577488e+03,1.056179e+04
1.580380e+03,1.055296e+04
1.583273e+03,1.059260e+04
1.586166e+03,1.058669e+04
1.589058e+03,1.055822e+04
1.591951e+03,1.051739e+04
1.594844e+03,1.053980e+04
1.597736e+03,1.056688e+04
1.600629e+03,1.055481e+04
1.603522e+03,1.054334e+04
1.606415e+03,1.052626e+04
1.609307e+03,1.053997e+04
1.612200e+03,1.056117e+04
1.615093e+03,1.056319e+04
1.617985e+03,1.060074e+04
1.620878e+03,1.053631e+04
1.623771e+03,1.055101e+04
1.626663e+03,1.057978e+04
1.629556e+03,1.063195e+04
1.632449e+03,1.058490e+04
1.635342e+03,1.056077e+04
1.638234e+03,1.054968e+04
1.641127e+03,1.054309e+04
1.644020e+03,1.054138e+04
1.646912e+03,1.054369e+04
1.649805e+03,1.051233e+04
1.652698e+03,1.050574e+04
1.655590e+03,1.051053e+04
1.658483e+03,1.050895e+04
1.661376e+03,1.053366e+04
1.664269e+03,1.052253e+04
1.667161e+03,1.046642e+04
1.670054e+03,1.049871e+04
1.672947e+03,1.049469e+04
1.675839e+03,1.051675e+04
1.678732e+03,1.051741e+04
1.681625e+03,1.046969e+04
1.684517e+03,1.051067e+04
1.687410e+03,1.051737e+04
1.690303e+03,1.053021e+04
1.693196e+03,1.053366e+04
1.696088e+03,1.056298e+04
1.698981e+03,1.055942e+04
1.701874e+03,1.049517e+04
1.704766e+03,1.053480e+04
1.707659e+03,1.050603e+04
1.710552e+03,1.054589e+04
1.713444e+03,1.052632e+04
1.716337e+03,1.050629e+04
1.719230e+03,1.050574e+04
1.722123e+03,1.052858e+04
1.725015e+03,1.050529e+04
1.727908e+03,1.049679e+04
1.730801e+03,1.053503e+04
1.733693e+03,1.053992e+04
1.736586e+03,1.050489e+04
1.739479e+03,1.046214e+04
1.742371e+03,1.052174e+04
1.745264e+03,1.044772e+04
1.748157e+03,1.047096e+04
1.751050e+03,1.050360e+04
1.753942e+03,1.047606e+04
1.756835e+03,1.049520e+04
1.759728e+03,1.047748e+04
1.762620e+03,1.044371e+04
1.765513e+03,1.046095e+04
1.768406e+03,1.046613e+04
1.771298e+03,1.047685e+04
1.774191e+03,1.043327e+04
1.777084e+03,1.047464e+04
1.779977e+03,1.043293e+04
1.782869e+03,1.050352e+04
1.785762e+03,1.041651e+04
1.788655e+03,1.043275e+04
1.791547e+03,1.037859e+04
1.794440e+03,1.039229e+04
1.797333e+03,1.041025e+04
1.800225e+03,1.037500e+04
1.803118e+03,1.036938e+04
1.806011e+03,1.035984e+04
1.808904e+03,1.038439e+04
1.811796e+03,1.038812e+04
1.814689e+03,1.041615e+04
1.817582e+03,1.033922e+04
1.820474e+03,1.039064e+04
1.823367e+03,1.039048e+04
1.826260e+03,1.035091e+04
1.829152e+03,1.040463e+04
1.832045e+03,1.038990e+04
1.834938e+03,1.038188e+04
1.837831e+03,1.034479e+04
1.840723e+03,1.031366e+04
1.843616e+03,1.036230e+04
1.846509e+03,1.035184e+04
1.849401e+03,1.036225e+04
1.852294e+03,1.032546e+04
1.855187e+03,1.031531e+04
1.858079e+03,1.031474e+04
1.860972e+03,1.029285e+04
1.863865e+03,1.028816e+04
1.866758e+03,1.026587e+04
1.869650e+03,1.027936e+04
1.872543e+03,1.031010e+04
1.875436e+03,1.030349e+04
1.878328e+03,1.028231e+04
1.881221e+03,1.030146e+04
1.884114e+03,1.026456e+04
1.887006e+03,1.024185e+04
1.889899e+03,1.027276e+04
1.892792e+03,1.023945e+04
1.895685e+03,1.022722e+04
1.898577e+03,1.023079e+04
1.901470e+03,1.023297e+04
1.904363e+03,1.020101e+04
1.907255e+03,1.021934e+04
1.910148e+03,1.020314e+04
1.913041e+03,1.021794e+04
1.915933e+03,1.016733e+04
1.918826e+03,1.012895e+04
1.921719e+03,1.018851e+04
1.924612e+03,1.016291e+04
1.927504e+03,1.021675e+04
1.930397e+03,1.015652e+04
1.933290e+03,1.011221e+04
1.936182e+03,1.016430e+04
1.939075e+03,1.008725e+04
1.941968e+03,1.010158e+04
1.944860e+03,1.012044e+04
1.947753e+03,1.011794e+04
1.950646e+03,1.007242e+04
1.953539e+03,1.013757e+04
1.956431e+03,1.008421e+04
1.959324e+03,1.010837e+04
1.962217e+03,1.005556e+04
1.965109e+03,1.011741e+04
1.968002e+03,1.003286e+04
1.970895e+03,1.006090e+04
1.973787e+03,1.004458e+04
1.976680e+03,1.001837e+04
1.979573e+03,1.000968e+04
1.982466e+03,1.002086e+04
1.985358e+03,9.995415e+03
1.988251e+03,1.000731e+04
1.991144e+03,9.968303e+03
1.994036e+03,9.947168e+03
1.996929e+03,9.986485e+03
1.999822e+03,9.943314e+03
2.002714e+03,9.929733e+03
2.005607e+03,9.936003e+03
2.008500e+03,9.862819e+03
2.011393e+03,9.875803e+03
2.014285e+03,9.881506e+03
2.017178e+03,9.882353e+03
2.020071e+03,9.833824e+03
2.022963e+03,9.813631e+03
2.025856e+03,9.806438e+03
2.028749e+03,9.795880e+03
2.031641e+03,9.832721e+03
2.034534e+03,9.821590e+03
2.037427e+03,9.767803e+03
2.040320e+03,9.751395e+03
2.043212e+03,9.725341e+03
2.046105e+03,9.717166e+03
2.048998e+03,9.751067e+03
2.051890e+03,9.741985e+03
2.054783e+03,9.671442e+03
2.057676e+03,9.674201e+03
2.060568e+03,9.717574e+03
2.063461e+03,9.670144e+03
2.066354e+03,9.722499e+03
2.069247e+03,9.598529e+03
2.072139e+03,9.593269e+03
2.075032e+03,9.653488e+03
2.077925e+03,9.629025e+03
2.080817e+03,9.610889e+03
2.083710e+03,9.580663e+03
2.086603e+03,9.566775e+03
2.089496e+03,9.583434e+03
2.092388e+03,9.578239e+03
2.095281e+03,9.569567e+03
2.098174e+03,9.549019e+03
2.101066e+03,9.529552e+03
2.103959e+03,9.525479e+03
2.106852e+03,9.494025e+03
2.109744e+03,9.551004e+03
2.112637e+03,9.456941e+03
2.115530e+03,9.401142e+03
2.118422e+03,9.388573e+03
2.121315e+03,9.471896e+03
2.124208e+03,9.467306e+03
2.127101e+03,9.383589e+03
2.129993e+03,9.357610e+03
2.132886e+03,9.383225e+03
2.135779e+03,9.370359e+03
2.138671e+03,9.378833e+03
2.141564e+03,9.338538e+03
2.144457e+03,9.323688e+03
2.147350e+03,9.272844e+03
2.150242e+03,9.221917e+03
2.153135e+03,9.342105e+03
2.156028e+03,9.263552e+03
2.158920e+03,9.311937e+03
2.161813e+03,9.249221e+03
2.164706e+03,9.248619e+03
2.167598e+03,9.186300e+03
2.170491e+03,9.273706e+03
2.173384e+03,9.233960e+03
2.176277e+03,9.216150e+03
2.179169e+03,9.179526e+03
2.182062e+03,9.170679e+03
2.184955e+03,9.138845e+03
2.187847e+03,9.172079e+03
2.190740e+03,9.163771e+03
2.193633e+03,9.119812e+03
2.196525e+03,9.119077e+03
2.199418e+03,9.086768e+03
2.202311e+03,9.113275e+03
2.205204e+03,9.139100e+03
2.208096e+03,9.063029e+03
2.210989e+03,9.011238e+03
2.213882e+03,9.068252e+03
2.216774e+03,9.049624e+03
2.219667e+03,9.007804e+03
2.222560e+03,9.023216e+03
2.225452e+03,8.956915e+03
2.228345e+03,8.901843e+03
2.231238e+03,9.008885e+03
2.234131e+03,8.950438e+03
2.237023e+03,8.949724e+03
2.239916e+03,8.903332e+03
2.242809e+03,8.895654e+03
2.245701e+03,8.818687e+03
2.248594e+03,8.900906e+03
2.251487e+03,8.883529e+03
2.254379e+03,8.874159e+03
2.257272e+03,8.854509e+03
2.260165e+03,8.796732e+03
2.263058e+03,8.847281e+03
2.265950e+03,8.804006e+03
2.268843e+03,8.804663e+03
2.271736e+03,8.721239e+03
2.274628e+03,8.701269e+03
2.277521e+03,8.708719e+03
2.280414e+03,8.761124e+03
2.283306e+03,8.708979e+03
2.286199e+03,8.655920e+03
2.289092e+03,8.661265e+03
2.291985e+03,8.590781e+03
2.294877e+03,8.604159e+03
2.297770e+03,8.703188e+03
2.300663e+03,8.653213e+03
2.303555e+03,8.574802e+03
2.306448e+03,8.573868e+03
2.309341e+03,8.593228e+03
2.312233e+03,8.541118e+03
2.315126e+03,8.626317e+03
2.318019e+03,8.531318e+03
2.320912e+03,8.569456e+03
2.323804e+03,8.517074e+03
2.326697e+03,8.554146e+03
2.329590e+03,8.537982e+03
2.332482e+03,8.518007e+03
2.335375e+03,8.488255e+03
2.338268e+03,8.474217e+03
2.341160e+03,8.452904e+03
2.344053e+03,8.473622e+03
2.346946e+03,8.431231e+03
2.349839e+03,8.386199e+03
2.352731e+03,8.383943e+03
2.355624e+03,8.419087e+03
2.358517e+03,8.379394e+03
2.361409e+03,8.386934e+03
2.364302e+03,8.346060e+03
2.367195e+03,8.308319e+03
2.370087e+03,8.330163e+03
2.372980e+03,8.339940e+03
2.375873e+03,8.326298e+03
2.378766e+03,8.308463e+03
2.381658e+03,8.287353e+03
2.384551e+03,8.233768e+03
2.387444e+03,8.249358e+03
2.390336e+03,8.216524e+03
2.393229e+03,8.248339e+03
2.396122e+03,8.213780e+03
2.399014e+03,8.152923e+03
2.401907e+03,8.183269e+03
2.404800e+03,8.154359e+03
2.407693e+03,8.173644e+03
2.410585e+03,8.120070e+03
2.413478e+03,8.115112e+03
2.416371e+03,8.097971e+03
2.419263e+03,8.130548e+03
2.422156e+03,8.103280e+03
2.425049e+03,8.096741e+03
2.427941e+03,8.045239e+03
2.430834e+03,8.076183e+03
2.433727e+03,8.074115e+03
2.436620e+03,8.042407e+03
2.439512e+03,8.026633e+03
2.442405e+03,8.025688e+03
2.445298e+03,8.016433e+03
2.448190e+03,7.943034e+03
2.451083e+03,8.016026e+03
2.453976e+03,7.947836e+03
2.456868e+03,7.990481e+03
2.459761e+03,7.872292e+03
2.462654e+03,7.901687e+03
2.465547e+03,7.906843e+03
2.468439e+03,7.839302e+03
2.471332e+03,7.851561e+03
2.474225e+03,7.838530e+03
2.477117e+03,7.825440e+03
2.480010e+03,7.826006e+03
2.482903e+03,7.838893e+03
2.485795e+03,7.856201e+03
2.488688e+03,7.795016e+03
2.491581e+03,7.786894e+03
2.494474e+03,7.770993e+03
2.497366e+03,7.803564e+03
2.500259e+03,7.771182e+03
2.503152e+03,7.752843e+03
2.506044e+03,7.688929e+03
2.508937e+03,7.720321e+03
2.511830e+03,7.713237e+03
2.514722e+03,7.673493e+03
2.517615e+03,7.688607e+03
2.520508e+03,7.658875e+03
2.523401e+03,7.653265e+03
2.526293e+03,7.599170e+03
2.529186e+03,7.635608e+03
2.532079e+03,7.643914e+03
2.534971e+03,7.602772e+03
2.537864e+03,7.561912e+03
2.540757e+03,7.500642e+03
2.543649e+03,7.518618e+03
2.546542e+03,7.561166e+03
2.549435e+03,7.507264e+03
2.552328e+03,7.561264e+03
2.555220e+03,7.477861e+03
2.558113e+03,7.514116e+03
2.561006e+03,7.471389e+03
2.563898e+03,7.436709e+03
2.566791e+03,7.419083e+03
2.569684e+03,7.423451e+03
2.572576e+03,7.368414e+03
2.575469e+03,7.414028e+03
2.578362e+03,7.389358e+03
2.581255e+03,7.338187e+03
2.584147e+03,7.360464e+03
2.587040e+03,7.348010e+03
2.589933e+03,7.357306e+03
2.592825e+03,7.343971e+03
2.595718e+03,7.351246e+03
2.598611e+03,7.309314e+03
2.601503e+03,7.274270e+03
2.604396e+03,7.255622e+03
2.607289e+03,7.260711e+03
2.610182e+03,7.240678e+03
2.613074e+03,7.254936e+03
2.615967e+03,7.210818e+03
2.618860e+03,7.251813e+03
2.621752e+03,7.221727e+03
2.624645e+03,7.169397e+03
2.627538e+03,7.176456e+03
2.630430e+03,7.166919e+03
2.633323e+03,7.161628e+03
2.636216e+03,7.205144e+03
2.639109e+03,7.138370e+03
2.642001e+03,7.143150e+03
2.644894e+03,7.155920e+03
2.647787e+03,7.113747e+03
2.650679e+03,7.117718e+03
2.653572e+03,7.071683e+03
2.656465e+03,7.089013e+03
2.659357e+03,7.026708e+03
2.662250e+03,7.023727e+03
2.665143e+03,7.042513e+03
2.668036e+03,7.019461e+03
2.670928e+03,6.999184e+03
2.673821e+03,7.003950e+03
2.676714e+03,6.938983e+03
2.679606e+03,6.959821e+03
2.682499e+03,6.972912e+03
2.685392e+03,6.987547e+03
2.688284e+03,6.927373e+03
2.691177e+03,6.955864e+03
2.694070e+03,6.927771e+03
2.696963e+03,6.878562e+03
2.699855e+03,6.897311e+03
2.702748e+03,6.907231e+03
2.705641e+03,6.815563e+03
2.708533e+03,6.857007e+03
2.711426e+03,6.820014e+03
2.714319e+03,6.793127e+03
2.717211e+03,6.805731e+03
2.720104e+03,6.786857e+03
2.722997e+03,6.784096e+03
2.725890e+03,6.738857e+03
2.728782e+03,6.773825e+03
2.731675e+03,6.782598e+03
2.734568e+03,6.734405e+03
2.737460e+03,6.719464e+03
2.740353e+03,6.652942e+03
2.743246e+03,6.666014e+03
2.746138e+03,6.661559e+03
2.749031e+03,6.671080e+03
2.751924e+03,6.635366e+03
2.754817e+03,6.657692e+03
2.757709e+03,6.617803e+03
2.760602e+03,6.594793e+03
2.763495e+03,6.585640e+03
2.766387e+03,6.565755e+03
2.769280e+03,6.543739e+03
2.772173e+03,6.563732e+03
2.775065e+03,6.527247e+03
2.777958e+03,6.544246e+03
2.780851e+03,6.506726e+03
2.783744e+03,6.487155e+03
2.786636e+03,6.490258e+03
2.789529e+03,6.492177e+03
2.792422e+03,6.487228e+03
2.795314e+03,6.451841e+03
2.798207e+03,6.401625e+03
2.801100e+03,6.374687e+03
2.803992e+03,6.497995e+03
2.806885e+03,6.409916e+03
2.809778e+03,6.404945e+03
2.812671e+03,6.395843e+03
2.815563e+03,6.399819e+03
2.818456e+03,6.336078e+03
2.821349e+03,6.360891e+03
2.824241e+03,6.362889e+03
2.827134e+03,6.343310e+03
2.830027e+03,6.347397e+03
2.832919e+03,6.312021e+03
2.835812e+03,6.348109e+03
2.838705e+03,6.263167e+03
2.841598e+03,6.270343e+03
2.844490e+03,6.276187e+03
2.847383e+03,6.258807e+03
2.850276e+03,6.265960e+03
2.853168e+03,6.269641e+03
2.856061e+03,6.261258e+03
2.858954e+03,6.222811e+03
2.861846e+03,6.183794e+03
2.864739e+03,6.161172e+03
2.867632e+03,6.188095e+03
2.870525e+03,6.156865e+03
2.873417e+03,6.239345e+03
2.876310e+03,6.130038e+03
2.879203e+03,6.178333e+03
2.882095e+03,6.106420e+03
2.884988e+03,6.179139e+03
2.887881e+03,6.144881e+03
2.890773e+03,6.130255e+03
2.893666e+03,6.167314e+03
2.896559e+03,6.056594e+03
2.899452e+03,6.102889e+03
2.902344e+03,5.996847e+03
2.905237e+03,6.029146e+03
2.908130e+03,6.029632e+03
2.911022e+03,5.998464e+03
2.913915e+03,6.006939e+03
2.916808e+03,5.970760e+03
2.919700e+03,5.974667e+03
2.922593e+03,5.996887e+03
2.925486e+03,5.975461e+03
2.928379e+03,5.986427e+03
2.931271e+03,5.887561e+03
2.934164e+03,5.923444e+03
2.937057e+03,5.874450e+03
2.939949e+03,5.868405e+03
2.942842e+03,5.866044e+03
2.945735e+03,5.926206e+03
2.948627e+03,5.892997e+03
2.951520e+03,5.912913e+03
2.954413e+03,5.847231e+03
2.957306e+03,5.888369e+03
2.960198e+03,5.832703e+03
2.963091e+03,5.907433e+03
2.965984e+03,5.815044e+03
2.968876e+03,5.808750e+03
2.971769e+03,5.801062e+03
2.974662e+03,5.786208e+03
2.977554e+03,5.888429e+03
2.980447e+03,5.778604e+03
2.983340e+03,5.809337e+03
2.986233e+03,5.736151e+03
2.989125e+03,5.778474e+03
2.992018e+03,5.708732e+03
2.994911e+03,5.755326e+03
2.997803e+03,5.766730e+03
3.000696e+03,5.736043e+03
3.003589e+03,5.703276e+03
3.006481e+03,5.732958e+03
3.009374e+03,5.707287e+03
3.012267e+03,5.744226e+03
3.015160e+03,5.650027e+03
3.018052e+03,5.676485e+03
3.020945e+03,5.696184e+03
3.023838e+03,5.701039e+03
3.026730e+03,5.667742e+03
3.029623e+03,5.657203e+03
3.032516e+03,5.595252e+03
3.035408e+03,5.569005e+03
3.038301e+03,5.589609e+03
3.041194e+03,5.594911e+03
3.044087e+03,5.571089e+03
3.046979e+03,5.552073e+03
3.049872e+03,5.518024e+03
3.052765e+03,5.612995e+03
3.055657e+03,5.575369e+03
3.058550e+03,5.464018e+03
3.061443e+03,5.612544e+03
3.064335e+03,5.539959e+03
3.067228e+03,5.475077e+03
3.070121e+03,5.531887e+03
3.073014e+03,5.506983e+03
3.075906e+03,5.484837e+03
3.078799e+03,5.468073e+03
3.081692e+03,5.440641e+03
3.084584e+03,5.507453e+03
3.087477e+03,5.419664e+03
3.090370e+03,5.539775e+03
3.093262e+03,5.381640e+03
3.096155e+03,5.483823e+03
3.099048e+03,5.404195e+03
3.101941e+03,5.401567e+03
3.104833e+03,5.419808e+03
3.107726e+03,5.463909e+03
3.110619e+03,5.425901e+03
3.113511e+03,5.415486e+03
3.116404e+03,5.408398e+03
3.119297e+03,5.374734e+03
3.122189e+03,5.363197e+03
3.125082e+03,5.440357e+03
3.127975e+03,5.420866e+03
3.130868e+03,5.449044e+03
3.133760e+03,5.452047e+03
3.136653e+03,5.356065e+03
3.139546e+03,5.423016e+03
3.142438e+03,5.366470e+03
3.145331e+03,5.343680e+03
3.148224e+03,5.400383e+03
3.151116e+03,5.292133e+03
3.154009e+03,5.386826e+03
3.156902e+03,5.284320e+03
3.159795e+03,5.333479e+03
3.162687e+03,5.350769e+03
3.165580e+03,5.282177e+03
3.168473e+03,5.348395e+03
3.171365e+03,5.318891e+03
3.174258e+03,5.333055e+03
3.177151e+03,5.343391e+03
3.180043e+03,5.326244e+03
3.182936e+03,5.290236e+03
3.185829e+03,5.371039e+03
3.188722e+03,5.323439e+03
3.191614e+03,5.330417e+03
3.194507e+03,5.311255e+03
3.197400e+03,5.286092e+03
3.200292e+03,5.327438e+03
3.203185e+03,0.000000e+00
3.206078e+03,0.000000e+00
3.208970e+03,0.000000e+00
3.211863e+03,0.000000e+00
3.214756e+03,0.000000e+00
3.217649e+03,0.000000e+00
3.220541e+03,0.000000e+00
3.223434e+03,0.000000e+00
3.226327e+03,0.000000e+00
3.229219e+03,0.000000e+00
3.232112e+03,0.000000e+00
3.235005e+03,0.000000e+00
3.237897e+03,0.000000e+00
3.240790e+03,0.000000e+00
3.243683e+03,0.000000e+00
3.246576e+03,0.000000e+00
3.249468e+03,0.000000e+00
3.252361e+03,0.000000e+00
3.255254e+03,0.000000e+00
3.258146e+03,0.000000e+00
3.261039e+03,0.000000e+00
3.263932e+03,0.000000e+00
3.266824e+03,0.000000e+00
3.269717e+03,0.000000e+00
3.272610e+03,0.000000e+00
3.275503e+03,0.000000e+00
3.278395e+03,0.000000e+00
3.281288e+03,0.000000e+00
3.284181e+03,0.000000e+00
3.287073e+03,0.000000e+00
3.289966e+03,0.000000e+00
3.292859e+03,0.000000e+00
3.295751e+03,0.000000e+00
3.298644e+03,0.000000e+00
3.301537e+03,0.000000e+00
3.304430e+03,0.000000e+00
3.307322e+03,0.000000e+00
3.310215e+03,0.000000e+00
3.313108e+03,0.000000e+00
3.316000e+03,0.000000e+00
3.318893e+03,0.000000e+00
3.321786e+03,0.000000e+00
3.324678e+03,0.000000e+00
3.327571e+03,0.000000e+00
3.330464e+03,0.000000e+00
3.333357e+03,0.000000e+00
3.336249e+03,0.000000e+00
3.339142e+03,0.000000e+00
3.342035e+03,0.000000e+00
3.344927e+03,0.000000e+00
3.347820e+03,0.000000e+00
3.350713e+03,0.000000e+00
3.353605e+03,0.000000e+00
3.356498e+03,0.000000e+00
3.359391e+03,0.000000e+00
3.362284e+03,0.000000e+00
3.365176e+03,0.000000e+00
3.368069e+03,0.000000e+00
3.370962e+03,0.000000e+00
3.373854e+03,0.000000e+00
3.376747e+03,0.000000e+00
3.379640e+03,0.000000e+00
3.382532e+03,0.000000e+00
3.385425e+03,0.000000e+00
3.388318e+03,0.000000e+00
3.391211e+03,0.000000e+00
3.394103e+03,0.000000e+00
3.396996e+03,0.000000e+00
3.399889e+03,0.000000e+00
3.402781e+03,0.000000e+00
3.405674e+03,0.000000e+00
3.408567e+03,0.000000e+00
3.411459e+03,0.000000e+00
3.414352e+03,0.000000e+00
3.417245e+03,0.000000e+00
3.420138e+03,0.000000e+00
3.423030e+03,0.000000e+00
3.425923e+03,0.000000e+00
3.428816e+03,0.000000e+00
3.431708e+03,0.000000e+00
3.434601e+03,0.000000e+00
3.437494e+03,0.000000e+00
3.440386e+03,0.000000e+00
3.443279e+03,0.000000e+00
3.446172e+03,0.000000e+00
3.449065e+03,0.000000e+00
3.451957e+03,0.000000e+00
3.454850e+03,0.000000e+00
3.457743e+03,0.000000e+00
3.460635e+03,0.000000e+00
3.463528e+03,0.000000e+00
3.466421e+03,0.000000e+00
3.469313e+03,0.000000e+00
3.472206e+03,0.000000e+00
3.475099e+03,0.000000e+00
3.477992e+03,0.000000e+00
3.480884e+03,0.000000e+00
3.483777e+03,0.000000e+00
3.486670e+03,0.000000e+00
3.489563e+03,0.000000e+00
3.492455e+03,0.000000e+00
3.495348e+03,0.000000e+00
3.498240e+03,0.000000e+00
3.500169e+03,0.000000e+00