File: RAMAN_data/12022024_r2/blue frag1.CSV
9.931763e+01,0.000000e+00
1.022103e+02,0.000000e+00
1.051030e+02,0.000000e+00
1.079957e+02,0.000000e+00
1.108884e+02,0.000000e+00
1.137811e+02,0.000000e+00
1.166738e+02,0.000000e+00
1.195665e+02,0.000000e+00
1.224592e+02,0.000000e+00
1.253519e+02,0.000000e+00
1.282446e+02,0.000000e+00
1.311373e+02,0.000000e+00
1.340300e+02,0.000000e+00
1.369227e+02,0.000000e+00
1.398154e+02,0.000000e+00
1.427081e+02,0.000000e+00
1.456008e+02,0.000000e+00
1.484935e+02,0.000000e+00
1.513862e+02,0.000000e+00
1.542789e+02,0.000000e+00
1.571716e+02,0.000000e+00
1.600643e+02,0.000000e+00
1.629570e+02,0.000000e+00
1.658497e+02,0.000000e+00
1.687424e+02,0.000000e+00
1.716351e+02,0.000000e+00
1.745278e+02,0.000000e+00
1.774205e+02,0.000000e+00
1.803132e+02,0.000000e+00
1.832059e+02,0.000000e+00
1.860986e+02,0.000000e+00
1.889913e+02,0.000000e+00
1.918840e+02,0.000000e+00
1.947767e+02,0.000000e+00
1.976694e+02,0.000000e+00
2.005621e+02,2.284011e+03
2.034548e+02,2.290293e+03
2.063475e+02,2.288216e+03
2.092402e+02,2.278396e+03
2.121329e+02,2.267297e+03
2.150256e+02,2.278257e+03
2.179183e+02,2.272730e+03
2.208110e+02,2.265203e+03
2.237037e+02,2.259980e+03
2.265964e+02,2.277187e+03
2.294892e+02,2.311323e+03
2.323819e+02,2.329229e+03
2.352746e+02,2.308547e+03
2.381673e+02,2.272539e+03
2.410600e+02,2.257145e+03
2.439527e+02,2.269500e+03
2.468454e+02,2.276986e+03
2.497381e+02,2.292510e+03
2.526308e+02,2.348646e+03
2.555235e+02,2.386882e+03
2.584161e+02,2.402393e+03
2.613088e+02,2.354102e+03
2.642015e+02,2.311488e+03
2.670942e+02,2.301542e+03
2.699869e+02,2.287604e+03
2.728796e+02,2.272276e+03
2.757723e+02,2.270941e+03
2.786650e+02,2.281119e+03
2.815577e+02,2.283306e+03
2.844504e+02,2.288314e+03
2.873431e+02,2.307184e+03
2.902358e+02,2.282931e+03
2.931285e+02,2.266790e+03
2.960212e+02,2.257934e+03
2.989139e+02,2.254963e+03
3.018066e+02,2.253845e+03
3.046993e+02,2.245650e+03
3.075920e+02,2.258600e+03
3.104847e+02,2.265097e+03
3.133774e+02,2.268477e+03
3.162701e+02,2.263130e+03
3.191628e+02,2.271270e+03
3.220555e+02,2.266180e+03
3.249482e+02,2.266285e+03
3.278409e+02,2.278688e+03
3.307336e+02,2.280722e+03
3.336263e+02,2.277888e+03
3.365190e+02,2.261673e+03
3.394117e+02,2.273719e+03
3.423044e+02,2.283728e+03
3.451971e+02,2.275414e+03
3.480898e+02,2.278115e+03
3.509825e+02,2.268125e+03
3.538752e+02,2.273846e+03
3.567680e+02,2.267805e+03
3.596607e+02,2.277028e+03
3.625534e+02,2.290689e+03
3.654461e+02,2.268478e+03
3.683388e+02,2.256354e+03
3.712315e+02,2.264414e+03
3.741242e+02,2.279817e+03
3.770169e+02,2.289613e+03
3.799096e+02,2.273198e+03
3.828023e+02,2.283657e+03
3.856950e+02,2.286658e+03
3.885877e+02,2.286341e+03
3.914804e+02,2.277538e+03
3.943731e+02,2.283132e+03
3.972658e+02,2.287509e+03
4.001585e+02,2.273790e+03
4.030512e+02,2.267744e+03
4.059439e+02,2.279835e+03
4.088366e+02,2.283087e+03
4.117293e+02,2.268983e+03
4.146220e+02,2.276806e+03
4.175147e+02,2.288947e+03
4.204074e+02,2.294050e+03
4.233001e+02,2.298707e+03
4.261928e+02,2.289164e+03
4.290855e+02,2.279375e+03
4.319782e+02,2.275177e+03
4.348709e+02,2.279392e+03
4.377636e+02,2.298946e+03
4.406563e+02,2.283202e+03
4.435490e+02,2.289786e+03
4.464417e+02,2.275890e+03
4.493344e+02,2.305472e+03
4.522271e+02,2.287071e+03
4.551198e+02,2.283425e+03
4.580125e+02,2.279046e+03
4.609052e+02,2.281216e+03
4.637979e+02,2.296002e+03
4.666906e+02,2.282861e+03
4.695833e+02,2.279091e+03
4.724760e+02,2.284001e+03
4.753687e+02,2.312775e+03
4.782614e+02,2.426285e+03
4.811541e+02,2.534694e+03
4.840468e+02,2.487825e+03
4.869395e+02,2.374801e+03
4.898322e+02,2.353493e+03
4.927249e+02,2.330732e+03
4.956176e+02,2.338948e+03
4.985103e+02,2.310871e+03
5.014030e+02,2.310723e+03
5.042957e+02,2.316313e+03
5.071884e+02,2.314103e+03
5.100811e+02,2.311227e+03
5.129738e+02,2.322129e+03
5.158665e+02,2.329009e+03
5.187592e+02,2.332954e+03
5.216519e+02,2.323654e+03
5.245446e+02,2.319424e+03
5.274373e+02,2.319665e+03
5.303300e+02,2.327979e+03
5.332227e+02,2.327614e+03
5.361154e+02,2.332358e+03
5.390081e+02,2.329947e+03
5.419008e+02,2.337426e+03
5.447935e+02,2.347164e+03
5.476862e+02,2.350455e+03
5.505789e+02,2.349982e+03
5.534716e+02,2.363754e+03
5.563643e+02,2.350148e+03
5.592570e+02,2.346442e+03
5.621497e+02,2.373220e+03
5.650424e+02,2.366621e+03
5.679351e+02,2.359208e+03
5.708278e+02,2.377239e+03
5.737205e+02,2.373458e+03
5.766132e+02,2.384360e+03
5.795059e+02,2.400932e+03
5.823986e+02,2.414946e+03
5.852913e+02,2.421779e+03
5.881840e+02,2.439388e+03
5.910767e+02,2.470367e+03
5.939694e+02,2.472581e+03
5.968621e+02,2.443166e+03
5.997548e+02,2.411423e+03
6.026475e+02,2.407649e+03
6.055402e+02,2.409268e+03
6.084329e+02,2.421239e+03
6.113256e+02,2.410488e+03
6.142183e+02,2.415804e+03
6.171110e+02,2.407814e+03
6.200037e+02,2.412027e+03
6.228964e+02,2.429892e+03
6.257891e+02,2.432785e+03
6.286818e+02,2.434386e+03
6.315745e+02,2.442640e+03
6.344672e+02,2.451868e+03
6.373599e+02,2.465388e+03
6.402526e+02,2.469683e+03
6.431453e+02,2.459580e+03
6.460380e+02,2.439293e+03
6.489307e+02,2.455208e+03
6.518234e+02,2.470527e+03
6.547161e+02,2.472527e+03
6.576088e+02,2.457031e+03
6.605015e+02,2.483800e+03
6.633942e+02,2.494203e+03
6.662869e+02,2.490403e+03
6.691796e+02,2.497477e+03
6.720723e+02,2.546124e+03
6.749650e+02,2.741550e+03
6.778577e+02,3.052831e+03
6.807504e+02,3.013053e+03
6.836431e+02,2.699664e+03
6.865358e+02,2.591001e+03
6.894285e+02,2.565196e+03
6.923212e+02,2.574340e+03
6.952139e+02,2.568154e+03
6.981066e+02,2.575913e+03
7.009993e+02,2.592489e+03
7.038920e+02,2.573117e+03
7.067847e+02,2.566754e+03
7.096774e+02,2.558034e+03
7.125701e+02,2.555433e+03
7.154628e+02,2.583303e+03
7.183555e+02,2.584876e+03
7.212482e+02,2.583939e+03
7.241409e+02,2.567872e+03
7.270336e+02,2.556819e+03
7.299263e+02,2.569211e+03
7.328190e+02,2.571308e+03
7.357117e+02,2.583707e+03
7.386044e+02,2.620334e+03
7.414971e+02,2.833688e+03
7.443898e+02,3.212417e+03
7.472825e+02,3.189429e+03
7.501752e+02,2.753441e+03
7.530679e+02,2.623090e+03
7.559606e+02,2.606032e+03
7.588533e+02,2.609462e+03
7.617460e+02,2.611905e+03
7.646387e+02,2.624640e+03
7.675314e+02,2.622555e+03
7.704241e+02,2.646092e+03
7.733168e+02,2.653045e+03
7.762095e+02,2.693406e+03
7.791022e+02,2.704851e+03
7.819949e+02,2.700265e+03
7.848876e+02,2.671000e+03
7.877803e+02,2.637494e+03
7.906730e+02,2.639023e+03
7.935657e+02,2.637813e+03
7.964584e+02,2.648340e+03
7.993511e+02,2.641789e+03
8.022438e+02,2.647280e+03
8.051365e+02,2.660928e+03
8.080292e+02,2.684063e+03
8.109219e+02,2.656987e+03
8.138146e+02,2.670208e+03
8.167073e+02,2.664665e+03
8.196000e+02,2.671320e+03
8.224927e+02,2.684568e+03
8.253854e+02,2.706632e+03
8.282781e+02,2.739354e+03
8.311708e+02,2.775304e+03
8.340635e+02,2.757506e+03
8.369562e+02,2.750221e+03
8.398489e+02,2.747552e+03
8.427416e+02,2.752642e+03
8.456343e+02,2.790073e+03
8.485270e+02,2.788348e+03
8.514197e+02,2.776496e+03
8.543124e+02,2.769436e+03
8.572051e+02,2.739948e+03
8.600978e+02,2.751397e+03
8.629905e+02,2.756492e+03
8.658832e+02,2.756512e+03
8.687759e+02,2.755989e+03
8.716686e+02,2.759376e+03
8.745613e+02,2.761477e+03
8.774540e+02,2.762298e+03
8.803467e+02,2.759721e+03
8.832394e+02,2.772099e+03
8.861321e+02,2.791359e+03
8.890248e+02,2.779935e+03
8.919175e+02,2.778199e+03
8.948102e+02,2.780137e+03
8.977029e+02,2.757028e+03
9.005956e+02,2.784954e+03
9.034883e+02,2.776819e+03
9.063810e+02,2.770345e+03
9.092737e+02,2.791496e+03
9.121664e+02,2.783848e+03
9.150591e+02,2.798294e+03
9.179518e+02,2.797696e+03
9.208445e+02,2.782807e+03
9.237372e+02,2.787973e+03
9.266299e+02,2.795628e+03
9.295226e+02,2.796272e+03
9.324153e+02,2.821840e+03
9.353080e+02,2.815068e+03
9.382007e+02,2.806685e+03
9.410934e+02,2.798723e+03
9.439861e+02,2.812211e+03
9.468788e+02,2.869679e+03
9.497715e+02,2.967777e+03
9.526642e+02,3.016883e+03
9.555569e+02,2.910020e+03
9.584496e+02,2.843604e+03
9.613423e+02,2.837925e+03
9.642350e+02,2.834768e+03
9.671277e+02,2.823077e+03
9.700204e+02,2.824352e+03
9.729131e+02,2.814659e+03
9.758058e+02,2.827216e+03
9.786985e+02,2.824233e+03
9.815912e+02,2.825328e+03
9.844839e+02,2.813740e+03
9.873766e+02,2.828394e+03
9.902693e+02,2.815314e+03
9.931620e+02,2.838687e+03
9.960547e+02,2.836825e+03
9.989474e+02,2.845376e+03
1.001840e+03,2.845756e+03
1.004733e+03,2.864236e+03
1.007626e+03,2.874120e+03
1.010518e+03,2.850145e+03
1.013411e+03,2.838133e+03
1.016304e+03,2.824473e+03
1.019196e+03,2.825267e+03
1.022089e+03,2.809942e+03
1.024982e+03,2.836187e+03
1.027875e+03,2.826024e+03
1.030767e+03,2.837287e+03
1.033660e+03,2.829280e+03
1.036552e+03,2.833283e+03
1.039445e+03,2.833271e+03
1.042338e+03,2.842135e+03
1.045231e+03,2.828089e+03
1.048123e+03,2.820007e+03
1.051016e+03,2.811431e+03
1.053909e+03,2.817681e+03
1.056802e+03,2.811633e+03
1.059694e+03,2.806498e+03
1.062587e+03,2.802039e+03
1.065479e+03,2.792461e+03
1.068372e+03,2.774073e+03
1.071265e+03,2.790760e+03
1.074158e+03,2.789704e+03
1.077050e+03,2.767579e+03
1.079943e+03,2.773581e+03
1.082836e+03,2.800971e+03
1.085729e+03,2.819058e+03
1.088621e+03,2.795792e+03
1.091514e+03,2.782720e+03
1.094406e+03,2.785261e+03
1.097299e+03,2.773881e+03
1.100192e+03,2.770878e+03
1.103085e+03,2.818339e+03
1.105977e+03,2.889502e+03
1.108870e+03,2.888318e+03
1.111763e+03,2.821210e+03
1.114656e+03,2.777188e+03
1.117548e+03,2.756368e+03
1.120441e+03,2.752378e+03
1.123334e+03,2.743656e+03
1.126226e+03,2.747910e+03
1.129119e+03,2.761011e+03
1.132012e+03,2.776851e+03
1.134904e+03,2.784856e+03
1.137797e+03,2.870540e+03
1.140690e+03,3.010817e+03
1.143583e+03,3.014068e+03
1.146475e+03,2.868512e+03
1.149368e+03,2.753061e+03
1.152261e+03,2.719561e+03
1.155153e+03,2.710738e+03
1.158046e+03,2.693194e+03
1.160939e+03,2.675033e+03
1.163831e+03,2.662869e+03
1.166724e+03,2.655070e+03
1.169617e+03,2.662340e+03
1.172510e+03,2.611770e+03
1.175402e+03,2.620157e+03
1.178295e+03,2.648435e+03
1.181188e+03,2.677142e+03
1.184080e+03,2.686431e+03
1.186973e+03,2.672966e+03
1.189866e+03,2.671325e+03
1.192758e+03,2.688547e+03
1.195651e+03,2.679730e+03
1.198544e+03,2.648152e+03
1.201437e+03,2.625107e+03
1.204329e+03,2.646568e+03
1.207222e+03,2.640929e+03
1.210115e+03,2.647698e+03
1.213007e+03,2.637803e+03
1.215900e+03,2.651470e+03
1.218793e+03,2.621502e+03
1.221685e+03,2.567483e+03
1.224578e+03,2.520571e+03
1.227471e+03,2.508522e+03
1.230364e+03,2.500559e+03
1.233256e+03,2.472623e+03
1.236149e+03,2.471248e+03
1.239042e+03,2.458755e+03
1.241934e+03,2.444860e+03
1.244827e+03,2.433379e+03
1.247720e+03,2.421366e+03
1.250612e+03,2.414942e+03
1.253505e+03,2.419230e+03
1.256398e+03,2.394362e+03
1.259291e+03,2.384157e+03
1.262183e+03,2.377653e+03
1.265076e+03,2.364924e+03
1.267969e+03,2.365841e+03
1.270861e+03,2.367429e+03
1.273754e+03,2.357762e+03
1.276647e+03,2.350430e+03
1.279539e+03,2.318343e+03
1.282432e+03,2.330717e+03
1.285325e+03,2.331146e+03
1.288218e+03,2.322273e+03
1.291110e+03,2.305537e+03
1.294003e+03,2.324138e+03
1.296896e+03,2.333240e+03
1.299788e+03,2.342359e+03
1.302681e+03,2.395922e+03
1.305574e+03,2.441118e+03
1.308466e+03,2.396969e+03
1.311359e+03,2.325372e+03
1.314252e+03,2.286697e+03
1.317145e+03,2.268501e+03
1.320037e+03,2.272188e+03
1.322930e+03,2.276703e+03
1.325823e+03,2.283277e+03
1.328715e+03,2.303573e+03
1.331608e+03,2.361820e+03
1.334501e+03,2.546421e+03
1.337393e+03,2.830346e+03
1.340286e+03,2.955798e+03
1.343179e+03,2.717004e+03
1.346072e+03,2.375209e+03
1.348964e+03,2.213784e+03
1.351857e+03,2.180197e+03
1.354750e+03,2.158377e+03
1.357642e+03,2.130061e+03
1.360535e+03,2.113091e+03
1.363428e+03,2.124350e+03
1.366320e+03,2.118721e+03
1.369213e+03,2.098652e+03
1.372106e+03,2.106639e+03
1.374999e+03,2.080370e+03
1.377891e+03,2.058781e+03
1.380784e+03,2.053587e+03
1.383677e+03,2.029754e+03
1.386569e+03,2.007764e+03
1.389462e+03,1.995417e+03
1.392355e+03,1.986338e+03
1.395247e+03,1.993033e+03
1.398140e+03,1.964933e+03
1.401033e+03,1.949321e+03
1.403926e+03,1.959970e+03
1.406818e+03,1.957806e+03
1.409711e+03,1.953832e+03
1.412604e+03,1.948914e+03
1.415496e+03,1.925871e+03
1.418389e+03,1.921507e+03
1.421282e+03,1.920736e+03
1.424174e+03,1.922688e+03
1.427067e+03,1.939300e+03
1.429960e+03,1.919270e+03
1.432853e+03,1.897026e+03
1.435745e+03,1.875461e+03
1.438638e+03,1.886023e+03
1.441531e+03,1.906510e+03
1.444423e+03,1.965135e+03
1.447316e+03,2.134089e+03
1.450209e+03,2.208394e+03
1.453101e+03,2.028152e+03
1.455994e+03,1.884728e+03
1.458887e+03,1.832948e+03
1.461780e+03,1.821038e+03
1.464672e+03,1.804510e+03
1.467565e+03,1.804241e+03
1.470458e+03,1.792036e+03
1.473350e+03,1.784327e+03
1.476243e+03,1.778056e+03
1.479136e+03,1.772617e+03
1.482028e+03,1.763288e+03
1.484921e+03,1.748839e+03
1.487814e+03,1.740694e+03
1.490707e+03,1.731626e+03
1.493599e+03,1.729609e+03
1.496492e+03,1.731048e+03
1.499385e+03,1.707668e+03
1.502277e+03,1.703039e+03
1.505170e+03,1.708755e+03
1.508063e+03,1.699797e+03
1.510955e+03,1.690984e+03
1.513848e+03,1.694789e+03
1.516741e+03,1.742558e+03
1.519634e+03,1.841398e+03
1.522526e+03,2.227178e+03
1.525419e+03,2.968495e+03
1.528312e+03,3.166240e+03
1.531204e+03,2.486063e+03
1.534097e+03,1.991329e+03
1.536990e+03,1.803815e+03
1.539882e+03,1.715056e+03
1.542775e+03,1.674626e+03
1.545668e+03,1.635152e+03
1.548561e+03,1.614175e+03
1.551453e+03,1.603728e+03
1.554346e+03,1.592514e+03
1.557239e+03,1.576887e+03
1.560131e+03,1.564457e+03
1.563024e+03,1.541213e+03
1.565917e+03,1.544345e+03
1.568809e+03,1.534207e+03
1.571702e+03,1.530031e+03
1.574595e+03,1.538771e+03
1.577488e+03,1.532093e+03
1.580380e+03,1.523660e+03
1.583273e+03,1.509910e+03
1.586166e+03,1.519133e+03
1.589058e+03,1.512140e+03
1.591951e+03,1.513420e+03
1.594844e+03,1.498677e+03
1.597736e+03,1.493121e+03
1.600629e+03,1.477049e+03
1.603522e+03,1.493470e+03
1.606415e+03,1.488276e+03
1.609307e+03,1.480269e+03
1.612200e+03,1.473903e+03
1.615093e+03,1.451822e+03
1.617985e+03,1.444816e+03
1.620878e+03,1.437357e+03
1.623771e+03,1.422690e+03
1.626663e+03,1.430686e+03
1.629556e+03,1.423823e+03
1.632449e+03,1.409714e+03
1.635342e+03,1.401040e+03
1.638234e+03,1.385712e+03
1.641127e+03,1.380121e+03
1.644020e+03,1.379879e+03
1.646912e+03,1.377939e+03
1.649805e+03,1.363161e+03
1.652698e+03,1.366107e+03
1.655590e+03,1.361010e+03
1.658483e+03,1.342640e+03
1.661376e+03,1.336536e+03
1.664269e+03,1.331338e+03
1.667161e+03,1.331457e+03
1.670054e+03,1.314428e+03
1.672947e+03,1.315999e+03
1.675839e+03,1.306093e+03
1.678732e+03,1.302295e+03
1.681625e+03,1.300401e+03
1.684517e+03,1.298919e+03
1.687410e+03,1.295976e+03
1.690303e+03,1.286728e+03
1.693196e+03,1.288747e+03
1.696088e+03,1.279646e+03
1.698981e+03,1.268814e+03
1.701874e+03,1.279204e+03
1.704766e+03,1.271380e+03
1.707659e+03,1.261447e+03
1.710552e+03,1.259651e+03
1.713444e+03,1.257010e+03
1.716337e+03,1.238656e+03
1.719230e+03,1.238131e+03
1.722123e+03,1.233250e+03
1.725015e+03,1.231846e+03
1.727908e+03,1.228539e+03
1.730801e+03,1.223145e+03
1.733693e+03,1.217688e+03
1.736586e+03,1.196613e+03
1.739479e+03,1.196852e+03
1.742371e+03,1.203639e+03
1.745264e+03,1.193663e+03
1.748157e+03,1.190495e+03
1.751050e+03,1.186195e+03
1.753942e+03,1.184006e+03
1.756835e+03,1.186596e+03
1.759728e+03,1.161241e+03
1.762620e+03,1.169776e+03
1.765513e+03,1.166961e+03
1.768406e+03,1.153030e+03
1.771298e+03,1.153416e+03
1.774191e+03,1.151020e+03
1.777084e+03,1.148347e+03
1.779977e+03,1.137281e+03
1.782869e+03,1.128280e+03
1.785762e+03,1.133416e+03
1.788655e+03,1.134383e+03
1.791547e+03,1.118432e+03
1.794440e+03,1.123687e+03
1.797333e+03,1.125923e+03
1.800225e+03,1.121264e+03
1.803118e+03,1.107969e+03
1.806011e+03,1.086958e+03
1.808904e+03,1.100454e+03
1.811796e+03,1.105991e+03
1.814689e+03,1.099714e+03
1.817582e+03,1.103495e+03
1.820474e+03,1.109287e+03
1.823367e+03,1.087028e+03
1.826260e+03,1.085923e+03
1.829152e+03,1.071767e+03
1.832045e+03,1.083712e+03
1.834938e+03,1.081742e+03
1.837831e+03,1.064334e+03
1.840723e+03,1.076322e+03
1.843616e+03,1.064546e+03
1.846509e+03,1.060399e+03
1.849401e+03,1.054999e+03
1.852294e+03,1.046067e+03
1.855187e+03,1.026441e+03
1.858079e+03,1.049606e+03
1.860972e+03,1.044719e+03
1.863865e+03,1.044374e+03
1.866758e+03,1.025665e+03
1.869650e+03,1.032999e+03
1.872543e+03,1.035394e+03
1.875436e+03,1.036247e+03
1.878328e+03,1.026456e+03
1.881221e+03,1.016055e+03
1.884114e+03,1.009293e+03
1.887006e+03,9.993689e+02
1.889899e+03,1.026867e+03
1.892792e+03,1.006584e+03
1.895685e+03,1.001648e+03
1.898577e+03,9.975544e+02
1.901470e+03,9.845644e+02
1.904363e+03,9.905354e+02
1.907255e+03,9.859258e+02
1.910148e+03,9.909221e+02
1.913041e+03,9.886518e+02
1.915933e+03,9.966639e+02
1.918826e+03,9.657520e+02
1.921719e+03,9.703170e+02
1.924612e+03,9.751513e+02
1.927504e+03,9.669084e+02
1.930397e+03,9.821006e+02
1.933290e+03,9.620917e+02
1.936182e+03,9.591573e+02
1.939075e+03,9.592738e+02
1.941968e+03,9.482337e+02
1.944860e+03,9.473047e+02
1.947753e+03,9.424865e+02
1.950646e+03,9.496178e+02
1.953539e+03,9.328180e+02
1.956431e+03,9.293824e+02
1.959324e+03,9.410638e+02
1.962217e+03,9.249899e+02
1.965109e+03,9.271382e+02
1.968002e+03,9.240938e+02
1.970895e+03,9.227706e+02
1.973787e+03,9.114818e+02
1.976680e+03,9.099368e+02
1.979573e+03,8.964421e+02
1.982466e+03,9.153864e+02
1.985358e+03,9.024454e+02
1.988251e+03,9.112161e+02
1.991144e+03,9.002280e+02
1.994036e+03,9.036302e+02
1.996929e+03,8.857608e+02
1.999822e+03,8.893889e+02
2.002714e+03,8.959550e+02
2.005607e+03,8.920385e+02
2.008500e+03,8.800228e+02
2.011393e+03,8.661735e+02
2.014285e+03,8.808300e+02
2.017178e+03,8.729387e+02
2.020071e+03,8.652624e+02
2.022963e+03,8.771843e+02
2.025856e+03,8.673145e+02
2.028749e+03,8.687320e+02
2.031641e+03,8.743854e+02
2.034534e+03,8.620073e+02
2.037427e+03,8.550629e+02
2.040320e+03,8.561218e+02
2.043212e+03,8.507057e+02
2.046105e+03,8.522278e+02
2.048998e+03,8.421897e+02
2.051890e+03,8.499984e+02
2.054783e+03,8.467283e+02
2.057676e+03,8.367135e+02
2.060568e+03,8.285940e+02
2.063461e+03,8.338978e+02
2.066354e+03,8.346736e+02
2.069247e+03,8.190551e+02
2.072139e+03,8.209866e+02
2.075032e+03,8.203573e+02
2.077925e+03,8.115922e+02
2.080817e+03,8.153361e+02
2.083710e+03,8.175436e+02
2.086603e+03,8.156404e+02
2.089496e+03,8.075292e+02
2.092388e+03,8.166863e+02
2.095281e+03,8.152400e+02
2.098174e+03,8.201686e+02
2.101066e+03,7.975613e+02
2.103959e+03,8.019391e+02
2.106852e+03,8.039648e+02
2.109744e+03,7.985467e+02
2.112637e+03,7.847587e+02
2.115530e+03,7.778425e+02
2.118422e+03,7.834147e+02
2.121315e+03,7.960756e+02
2.124208e+03,7.687740e+02
2.127101e+03,7.874157e+02
2.129993e+03,7.716082e+02
2.132886e+03,7.725057e+02
2.135779e+03,7.668775e+02
2.138671e+03,7.676221e+02
2.141564e+03,7.479275e+02
2.144457e+03,7.706696e+02
2.147350e+03,7.539484e+02
2.150242e+03,7.445984e+02
2.153135e+03,7.496196e+02
2.156028e+03,7.497753e+02
2.158920e+03,7.505076e+02
2.161813e+03,7.568703e+02
2.164706e+03,7.357175e+02
2.167598e+03,7.376077e+02
2.170491e+03,7.385775e+02
2.173384e+03,7.435179e+02
2.176277e+03,7.459535e+02
2.179169e+03,7.386328e+02
2.182062e+03,7.309397e+02
2.184955e+03,7.342176e+02
2.187847e+03,7.311169e+02
2.190740e+03,7.289955e+02
2.193633e+03,7.206087e+02
2.196525e+03,7.224307e+02
2.199418e+03,7.101301e+02
2.202311e+03,7.330021e+02
2.205204e+03,7.320004e+02
2.208096e+03,7.229455e+02
2.210989e+03,7.144827e+02
2.213882e+03,7.180726e+02
2.216774e+03,7.183160e+02
2.219667e+03,7.051946e+02
2.222560e+03,7.181572e+02
2.225452e+03,7.113751e+02
2.228345e+03,6.913211e+02
2.231238e+03,7.113690e+02
2.234131e+03,6.960665e+02
2.237023e+03,7.092015e+02
2.239916e+03,6.954006e+02
2.242809e+03,6.845248e+02
2.245701e+03,6.782821e+02
2.248594e+03,6.950179e+02
2.251487e+03,6.844213e+02
2.254379e+03,6.865025e+02
2.257272e+03,6.853192e+02
2.260165e+03,6.810922e+02
2.263058e+03,6.758897e+02
2.265950e+03,6.869338e+02
2.268843e+03,6.701227e+02
2.271736e+03,6.816260e+02
2.274628e+03,6.810016e+02
2.277521e+03,6.761584e+02
2.280414e+03,6.673438e+02
2.283306e+03,6.703976e+02
2.286199e+03,6.608508e+02
2.289092e+03,6.559443e+02
2.291985e+03,6.513068e+02
2.294877e+03,6.543959e+02
2.297770e+03,6.416749e+02
2.300663e+03,6.460488e+02
2.303555e+03,6.481984e+02
2.306448e+03,6.486849e+02
2.309341e+03,6.448519e+02
2.312233e+03,6.384266e+02
2.315126e+03,6.446273e+02
2.318019e+03,6.486307e+02
2.320912e+03,6.430811e+02
2.323804e+03,6.271816e+02
2.326697e+03,6.343147e+02
2.329590e+03,6.416097e+02
2.332482e+03,6.342958e+02
2.335375e+03,6.350369e+02
2.338268e+03,6.138879e+02
2.341160e+03,6.218933e+02
2.344053e+03,6.204601e+02
2.346946e+03,6.158879e+02
2.349839e+03,6.133564e+02
2.352731e+03,6.139274e+02
2.355624e+03,6.173557e+02
2.358517e+03,6.215917e+02
2.361409e+03,6.180497e+02
2.364302e+03,6.003097e+02
2.367195e+03,6.049579e+02
2.370087e+03,6.151995e+02
2.372980e+03,6.150760e+02
2.375873e+03,6.137763e+02
2.378766e+03,6.036830e+02
2.381658e+03,5.962238e+02
2.384551e+03,5.860604e+02
2.387444e+03,5.900750e+02
2.390336e+03,5.977237e+02
2.393229e+03,5.833708e+02
2.396122e+03,5.886375e+02
2.399014e+03,5.827142e+02
2.401907e+03,5.832674e+02
2.404800e+03,5.872111e+02
2.407693e+03,5.803864e+02
2.410585e+03,5.751644e+02
2.413478e+03,5.735771e+02
2.416371e+03,5.734721e+02
2.419263e+03,5.769635e+02
2.422156e+03,5.798521e+02
2.425049e+03,5.720892e+02
2.427941e+03,5.664175e+02
2.430834e+03,5.659796e+02
2.433727e+03,5.684396e+02
2.436620e+03,5.687356e+02
2.439512e+03,5.554832e+02
2.442405e+03,5.584340e+02
2.445298e+03,5.584044e+02
2.448190e+03,5.543467e+02
2.451083e+03,5.471893e+02
2.453976e+03,5.515538e+02
2.456868e+03,5.616955e+02
2.459761e+03,5.515717e+02
2.462654e+03,5.484750e+02
2.465547e+03,5.438529e+02
2.468439e+03,5.453115e+02
2.471332e+03,5.413729e+02
2.474225e+03,5.402623e+02
2.477117e+03,5.408723e+02
2.480010e+03,5.340013e+02
2.482903e+03,5.359321e+02
2.485795e+03,5.428253e+02
2.488688e+03,5.428143e+02
2.491581e+03,5.296957e+02
2.494474e+03,5.227032e+02
2.497366e+03,5.295116e+02
2.500259e+03,5.250205e+02
2.503152e+03,5.259327e+02
2.506044e+03,5.286860e+02
2.508937e+03,5.228856e+02
2.511830e+03,5.197533e+02
2.514722e+03,5.078725e+02
2.517615e+03,5.199793e+02
2.520508e+03,5.149365e+02
2.523401e+03,5.208057e+02
2.526293e+03,5.052018e+02
2.529186e+03,5.116777e+02
2.532079e+03,5.032256e+02
2.534971e+03,5.127918e+02
2.537864e+03,4.982908e+02
2.540757e+03,5.017715e+02
2.543649e+03,5.084414e+02
2.546542e+03,5.055464e+02
2.549435e+03,4.962708e+02
2.552328e+03,5.024997e+02
2.555220e+03,5.115871e+02
2.558113e+03,4.987951e+02
2.561006e+03,5.098535e+02
2.563898e+03,4.888620e+02
2.566791e+03,4.940693e+02
2.569684e+03,4.954301e+02
2.572576e+03,4.912822e+02
2.575469e+03,4.900909e+02
2.578362e+03,4.890391e+02
2.581255e+03,4.781664e+02
2.584147e+03,4.781468e+02
2.587040e+03,4.736830e+02
2.589933e+03,4.808488e+02
2.592825e+03,4.784766e+02
2.595718e+03,4.743580e+02
2.598611e+03,4.733627e+02
2.601503e+03,4.720071e+02
2.604396e+03,4.677459e+02
2.607289e+03,4.731700e+02
2.610182e+03,4.833534e+02
2.613074e+03,4.544707e+02
2.615967e+03,4.668887e+02
2.618860e+03,4.613188e+02
2.621752e+03,4.611043e+02
2.624645e+03,4.502867e+02
2.627538e+03,4.659205e+02
2.630430e+03,4.617469e+02
2.633323e+03,4.515245e+02
2.636216e+03,4.601288e+02
2.639109e+03,4.610620e+02
2.642001e+03,4.467985e+02
2.644894e+03,4.539679e+02
2.647787e+03,4.566557e+02
2.650679e+03,4.468752e+02
2.653572e+03,4.463458e+02
2.656465e+03,4.517982e+02
2.659357e+03,4.573239e+02
2.662250e+03,4.404969e+02
2.665143e+03,4.473872e+02
2.668036e+03,4.458820e+02
2.670928e+03,4.530873e+02
2.673821e+03,4.449270e+02
2.676714e+03,4.223680e+02
2.679606e+03,4.453166e+02
2.682499e+03,4.315480e+02
2.685392e+03,4.349825e+02
2.688284e+03,4.521122e+02
2.691177e+03,4.352003e+02
2.694070e+03,4.290421e+02
2.696963e+03,4.409648e+02
2.699855e+03,4.401938e+02
2.702748e+03,4.292845e+02
2.705641e+03,4.293383e+02
2.708533e+03,4.372874e+02
2.711426e+03,4.292486e+02
2.714319e+03,4.351241e+02
2.717211e+03,4.159242e+02
2.720104e+03,4.257423e+02
2.722997e+03,4.249147e+02
2.725890e+03,4.187828e+02
2.728782e+03,4.203986e+02
2.731675e+03,4.048828e+02
2.734568e+03,4.131608e+02
2.737460e+03,4.163082e+02
2.740353e+03,4.100628e+02
2.743246e+03,4.097950e+02
2.746138e+03,4.181120e+02
2.749031e+03,4.119550e+02
2.751924e+03,4.042997e+02
2.754817e+03,4.128343e+02
2.757709e+03,4.137852e+02
2.760602e+03,4.105599e+02
2.763495e+03,4.044669e+02
2.766387e+03,4.034583e+02
2.769280e+03,4.002223e+02
2.772173e+03,4.010590e+02
2.775065e+03,4.095430e+02
2.777958e+03,4.046989e+02
2.780851e+03,4.036248e+02
2.783744e+03,4.169778e+02
2.786636e+03,3.973120e+02
2.789529e+03,4.098615e+02
2.792422e+03,4.037475e+02
2.795314e+03,4.099249e+02
2.798207e+03,4.120067e+02
2.801100e+03,3.935859e+02
2.803992e+03,3.777159e+02
2.806885e+03,3.957293e+02
2.809778e+03,3.929994e+02
2.812671e+03,4.045668e+02
2.815563e+03,3.848285e+02
2.818456e+03,3.938618e+02
2.821349e+03,3.893487e+02
2.824241e+03,3.960917e+02
2.827134e+03,4.060838e+02
2.830027e+03,3.892719e+02
2.832919e+03,3.913787e+02
2.835812e+03,3.937669e+02
2.838705e+03,3.852546e+02
2.841598e+03,3.934456e+02
2.844490e+03,3.923434e+02
2.847383e+03,4.045981e+02
2.850276e+03,4.061491e+02
2.853168e+03,3.946789e+02
2.856061e+03,4.043257e+02
2.858954e+03,4.010337e+02
2.861846e+03,4.049295e+02
2.864739e+03,4.131495e+02
2.867632e+03,4.300297e+02
2.870525e+03,4.106724e+02
2.873417e+03,4.152051e+02
2.876310e+03,4.019610e+02
2.879203e+03,4.229328e+02
2.882095e+03,4.068575e+02
2.884988e+03,4.325220e+02
2.887881e+03,4.227529e+02
2.890773e+03,4.120658e+02
2.893666e+03,4.115371e+02
2.896559e+03,4.193674e+02
2.899452e+03,4.260217e+02
2.902344e+03,4.161172e+02
2.905237e+03,3.963243e+02
2.908130e+03,4.113539e+02
2.911022e+03,4.373575e+02
2.913915e+03,3.913687e+02
2.916808e+03,3.962534e+02
2.919700e+03,4.091179e+02
2.922593e+03,4.001258e+02
2.925486e+03,4.278033e+02
2.928379e+03,4.030640e+02
2.931271e+03,4.046788e+02
2.934164e+03,4.157557e+02
2.937057e+03,4.034268e+02
2.939949e+03,4.174406e+02
2.942842e+03,4.018182e+02
2.945735e+03,4.197119e+02
2.948627e+03,3.993727e+02
2.951520e+03,4.166404e+02
2.954413e+03,4.064494e+02
2.957306e+03,4.527849e+02
2.960198e+03,4.141356e+02
2.963091e+03,4.094978e+02
2.965984e+03,4.146815e+02
2.968876e+03,3.910587e+02
2.971769e+03,3.936636e+02
2.974662e+03,3.997243e+02
2.977554e+03,3.942658e+02
2.980447e+03,3.902958e+02
2.983340e+03,3.940810e+02
2.986233e+03,3.886638e+02
2.989125e+03,4.013117e+02
2.992018e+03,3.937741e+02
2.994911e+03,3.997223e+02
2.997803e+03,3.999043e+02
3.000696e+03,3.892088e+02
3.003589e+03,3.956818e+02
3.006481e+03,4.098529e+02
3.009374e+03,4.146969e+02
3.012267e+03,4.009510e+02
3.015160e+03,3.802891e+02
3.018052e+03,3.887905e+02
3.020945e+03,3.835363e+02
3.023838e+03,3.951542e+02
3.026730e+03,4.001597e+02
3.029623e+03,3.965038e+02
3.032516e+03,3.884856e+02
3.035408e+03,3.918994e+02
3.038301e+03,4.048365e+02
3.041194e+03,3.971678e+02
3.044087e+03,3.921603e+02
3.046979e+03,4.101354e+02
3.049872e+03,4.128942e+02
3.052765e+03,3.985766e+02
3.055657e+03,4.137065e+02
3.058550e+03,4.255568e+02
3.061443e+03,4.235188e+02
3.064335e+03,3.785584e+02
3.067228e+03,3.742890e+02
3.070121e+03,3.993064e+02
3.073014e+03,4.076859e+02
3.075906e+03,4.080651e+02
3.078799e+03,4.076260e+02
3.081692e+03,4.304747e+02
3.084584e+03,4.247423e+02
3.087477e+03,4.019281e+02
3.090370e+03,4.310423e+02
3.093262e+03,3.925670e+02
3.096155e+03,4.101749e+02
3.099048e+03,4.220459e+02
3.101941e+03,4.085737e+02
3.104833e+03,4.066022e+02
3.107726e+03,3.981180e+02
3.110619e+03,4.255580e+02
3.113511e+03,4.323067e+02
3.116404e+03,4.062790e+02
3.119297e+03,4.405853e+02
3.122189e+03,4.064486e+02
3.125082e+03,4.248501e+02
3.127975e+03,4.364500e+02
3.130868e+03,4.344883e+02
3.133760e+03,4.543236e+02
3.136653e+03,3.988615e+02
3.139546e+03,4.192927e+02
3.142438e+03,4.261576e+02
3.145331e+03,4.348054e+02
3.148224e+03,4.134290e+02
3.151116e+03,4.216598e+02
3.154009e+03,4.604730e+02
3.156902e+03,4.471932e+02
3.159795e+03,4.181696e+02
3.162687e+03,4.628262e+02
3.165580e+03,4.379351e+02
3.168473e+03,4.632863e+02
3.171365e+03,4.186523e+02
3.174258e+03,4.158036e+02
3.177151e+03,4.488015e+02
3.180043e+03,4.597624e+02
3.182936e+03,4.521990e+02
3.185829e+03,4.711317e+02
3.188722e+03,4.597920e+02
3.191614e+03,4.934364e+02
3.194507e+03,4.737648e+02
3.197400e+03,4.525911e+02
3.200292e+03,4.887061e+02
3.203185e+03,0.000000e+00
3.206078e+03,0.000000e+00
3.208970e+03,0.000000e+00
3.211863e+03,0.000000e+00
3.214756e+03,0.000000e+00
3.217649e+03,0.000000e+00
3.220541e+03,0.000000e+00
3.223434e+03,0.000000e+00
3.226327e+03,0.000000e+00
3.229219e+03,0.000000e+00
3.232112e+03,0.000000e+00
3.235005e+03,0.000000e+00
3.237897e+03,0.000000e+00
3.240790e+03,0.000000e+00
3.243683e+03,0.000000e+00
3.246576e+03,0.000000e+00
3.249468e+03,0.000000e+00
3.252361e+03,0.000000e+00
3.255254e+03,0.000000e+00
3.258146e+03,0.000000e+00
3.261039e+03,0.000000e+00
3.263932e+03,0.000000e+00
3.266824e+03,0.000000e+00
3.269717e+03,0.000000e+00
3.272610e+03,0.000000e+00
3.275503e+03,0.000000e+00
3.278395e+03,0.000000e+00
3.281288e+03,0.000000e+00
3.284181e+03,0.000000e+00
3.287073e+03,0.000000e+00
3.289966e+03,0.000000e+00
3.292859e+03,0.000000e+00
3.295751e+03,0.000000e+00
3.298644e+03,0.000000e+00
3.301537e+03,0.000000e+00
3.304430e+03,0.000000e+00
3.307322e+03,0.000000e+00
3.310215e+03,0.000000e+00
3.313108e+03,0.000000e+00
3.316000e+03,0.000000e+00
3.318893e+03,0.000000e+00
3.321786e+03,0.000000e+00
3.324678e+03,0.000000e+00
3.327571e+03,0.000000e+00
3.330464e+03,0.000000e+00
3.333357e+03,0.000000e+00
3.336249e+03,0.000000e+00
3.339142e+03,0.000000e+00
3.342035e+03,0.000000e+00
3.344927e+03,0.000000e+00
3.347820e+03,0.000000e+00
3.350713e+03,0.000000e+00
3.353605e+03,0.000000e+00
3.356498e+03,0.000000e+00
3.359391e+03,0.000000e+00
3.362284e+03,0.000000e+00
3.365176e+03,0.000000e+00
3.368069e+03,0.000000e+00
3.370962e+03,0.000000e+00
3.373854e+03,0.000000e+00
3.376747e+03,0.000000e+00
3.379640e+03,0.000000e+00
3.382532e+03,0.000000e+00
3.385425e+03,0.000000e+00
3.388318e+03,0.000000e+00
3.391211e+03,0.000000e+00
3.394103e+03,0.000000e+00
3.396996e+03,0.000000e+00
3.399889e+03,0.000000e+00
3.402781e+03,0.000000e+00
3.405674e+03,0.000000e+00
3.408567e+03,0.000000e+00
3.411459e+03,0.000000e+00
3.414352e+03,0.000000e+00
3.417245e+03,0.000000e+00
3.420138e+03,0.000000e+00
3.423030e+03,0.000000e+00
3.425923e+03,0.000000e+00
3.428816e+03,0.000000e+00
3.431708e+03,0.000000e+00
3.434601e+03,0.000000e+00
3.437494e+03,0.000000e+00
3.440386e+03,0.000000e+00
3.443279e+03,0.000000e+00
3.446172e+03,0.000000e+00
3.449065e+03,0.000000e+00
3.451957e+03,0.000000e+00
3.454850e+03,0.000000e+00
3.457743e+03,0.000000e+00
3.460635e+03,0.000000e+00
3.463528e+03,0.000000e+00
3.466421e+03,0.000000e+00
3.469313e+03,0.000000e+00
3.472206e+03,0.000000e+00
3.475099e+03,0.000000e+00
3.477992e+03,0.000000e+00
3.480884e+03,0.000000e+00
3.483777e+03,0.000000e+00
3.486670e+03,0.000000e+00
3.489563e+03,0.000000e+00
3.492455e+03,0.000000e+00
3.495348e+03,0.000000e+00
3.498240e+03,0.000000e+00
3.500169e+03,0.000000e+00