File: RAMAN_data/12022024_r2/blue fibre3.CSV
9.931763e+01,0.000000e+00
1.022103e+02,0.000000e+00
1.051030e+02,0.000000e+00
1.079957e+02,0.000000e+00
1.108884e+02,0.000000e+00
1.137811e+02,0.000000e+00
1.166738e+02,0.000000e+00
1.195665e+02,0.000000e+00
1.224592e+02,0.000000e+00
1.253519e+02,0.000000e+00
1.282446e+02,0.000000e+00
1.311373e+02,0.000000e+00
1.340300e+02,0.000000e+00
1.369227e+02,0.000000e+00
1.398154e+02,0.000000e+00
1.427081e+02,0.000000e+00
1.456008e+02,0.000000e+00
1.484935e+02,0.000000e+00
1.513862e+02,0.000000e+00
1.542789e+02,0.000000e+00
1.571716e+02,0.000000e+00
1.600643e+02,0.000000e+00
1.629570e+02,0.000000e+00
1.658497e+02,0.000000e+00
1.687424e+02,0.000000e+00
1.716351e+02,0.000000e+00
1.745278e+02,0.000000e+00
1.774205e+02,0.000000e+00
1.803132e+02,0.000000e+00
1.832059e+02,0.000000e+00
1.860986e+02,0.000000e+00
1.889913e+02,0.000000e+00
1.918840e+02,0.000000e+00
1.947767e+02,0.000000e+00
1.976694e+02,0.000000e+00
2.005621e+02,3.115782e+03
2.034548e+02,3.123464e+03
2.063475e+02,3.140191e+03
2.092402e+02,3.137343e+03
2.121329e+02,3.124789e+03
2.150256e+02,3.131260e+03
2.179183e+02,3.140269e+03
2.208110e+02,3.129595e+03
2.237037e+02,3.138125e+03
2.265964e+02,3.131470e+03
2.294892e+02,3.134568e+03
2.323819e+02,3.145697e+03
2.352746e+02,3.151423e+03
2.381673e+02,3.152170e+03
2.410600e+02,3.149254e+03
2.439527e+02,3.155867e+03
2.468454e+02,3.166276e+03
2.497381e+02,3.162601e+03
2.526308e+02,3.158326e+03
2.555235e+02,3.160617e+03
2.584161e+02,3.141395e+03
2.613088e+02,3.141292e+03
2.642015e+02,3.165534e+03
2.670942e+02,3.170449e+03
2.699869e+02,3.151904e+03
2.728796e+02,3.166863e+03
2.757723e+02,3.144808e+03
2.786650e+02,3.162720e+03
2.815577e+02,3.169099e+03
2.844504e+02,3.159894e+03
2.873431e+02,3.155351e+03
2.902358e+02,3.147724e+03
2.931285e+02,3.149851e+03
2.960212e+02,3.155743e+03
2.989139e+02,3.164546e+03
3.018066e+02,3.165970e+03
3.046993e+02,3.163859e+03
3.075920e+02,3.170984e+03
3.104847e+02,3.149402e+03
3.133774e+02,3.157467e+03
3.162701e+02,3.186020e+03
3.191628e+02,3.175550e+03
3.220555e+02,3.156294e+03
3.249482e+02,3.170983e+03
3.278409e+02,3.177119e+03
3.307336e+02,3.169120e+03
3.336263e+02,3.166480e+03
3.365190e+02,3.155305e+03
3.394117e+02,3.168842e+03
3.423044e+02,3.165225e+03
3.451971e+02,3.180506e+03
3.480898e+02,3.168192e+03
3.509825e+02,3.137356e+03
3.538752e+02,3.157782e+03
3.567680e+02,3.156788e+03
3.596607e+02,3.158979e+03
3.625534e+02,3.160813e+03
3.654461e+02,3.157875e+03
3.683388e+02,3.165982e+03
3.712315e+02,3.168828e+03
3.741242e+02,3.160278e+03
3.770169e+02,3.185843e+03
3.799096e+02,3.173649e+03
3.828023e+02,3.152732e+03
3.856950e+02,3.150278e+03
3.885877e+02,3.148590e+03
3.914804e+02,3.137081e+03
3.943731e+02,3.112954e+03
3.972658e+02,3.113355e+03
4.001585e+02,3.122717e+03
4.030512e+02,3.126852e+03
4.059439e+02,3.121080e+03
4.088366e+02,3.124019e+03
4.117293e+02,3.127255e+03
4.146220e+02,3.120353e+03
4.175147e+02,3.120766e+03
4.204074e+02,3.110245e+03
4.233001e+02,3.115784e+03
4.261928e+02,3.130968e+03
4.290855e+02,3.108853e+03
4.319782e+02,3.115675e+03
4.348709e+02,3.115570e+03
4.377636e+02,3.118475e+03
4.406563e+02,3.125036e+03
4.435490e+02,3.101375e+03
4.464417e+02,3.088257e+03
4.493344e+02,3.109705e+03
4.522271e+02,3.110542e+03
4.551198e+02,3.097379e+03
4.580125e+02,3.109612e+03
4.609052e+02,3.093113e+03
4.637979e+02,3.072776e+03
4.666906e+02,3.075856e+03
4.695833e+02,3.068571e+03
4.724760e+02,3.084358e+03
4.753687e+02,3.065339e+03
4.782614e+02,3.064389e+03
4.811541e+02,3.062080e+03
4.840468e+02,3.059504e+03
4.869395e+02,3.065152e+03
4.898322e+02,3.052242e+03
4.927249e+02,3.052637e+03
4.956176e+02,3.056372e+03
4.985103e+02,3.056769e+03
5.014030e+02,3.034462e+03
5.042957e+02,3.047782e+03
5.071884e+02,3.056805e+03
5.100811e+02,3.059094e+03
5.129738e+02,3.054447e+03
5.158665e+02,3.052308e+03
5.187592e+02,3.041280e+03
5.216519e+02,3.046122e+03
5.245446e+02,3.048518e+03
5.274373e+02,3.025381e+03
5.303300e+02,3.033105e+03
5.332227e+02,3.028252e+03
5.361154e+02,3.022146e+03
5.390081e+02,3.025845e+03
5.419008e+02,3.017713e+03
5.447935e+02,3.038362e+03
5.476862e+02,3.015258e+03
5.505789e+02,3.005721e+03
5.534716e+02,3.004849e+03
5.563643e+02,3.009844e+03
5.592570e+02,3.009087e+03
5.621497e+02,3.004306e+03
5.650424e+02,2.977671e+03
5.679351e+02,2.973422e+03
5.708278e+02,2.980905e+03
5.737205e+02,2.982257e+03
5.766132e+02,2.974720e+03
5.795059e+02,2.963473e+03
5.823986e+02,2.985995e+03
5.852913e+02,2.977701e+03
5.881840e+02,2.977832e+03
5.910767e+02,2.967454e+03
5.939694e+02,2.975871e+03
5.968621e+02,2.972746e+03
5.997548e+02,2.969083e+03
6.026475e+02,2.963358e+03
6.055402e+02,2.978288e+03
6.084329e+02,2.966208e+03
6.113256e+02,2.954659e+03
6.142183e+02,2.948667e+03
6.171110e+02,2.950841e+03
6.200037e+02,2.927607e+03
6.228964e+02,2.948056e+03
6.257891e+02,2.937955e+03
6.286818e+02,2.936789e+03
6.315745e+02,2.925341e+03
6.344672e+02,2.907972e+03
6.373599e+02,2.921793e+03
6.402526e+02,2.912777e+03
6.431453e+02,2.917055e+03
6.460380e+02,2.898263e+03
6.489307e+02,2.893602e+03
6.518234e+02,2.901459e+03
6.547161e+02,2.898598e+03
6.576088e+02,2.876009e+03
6.605015e+02,2.886035e+03
6.633942e+02,2.863295e+03
6.662869e+02,2.881371e+03
6.691796e+02,2.881593e+03
6.720723e+02,2.876175e+03
6.749650e+02,2.863560e+03
6.778577e+02,2.855250e+03
6.807504e+02,2.866848e+03
6.836431e+02,2.853866e+03
6.865358e+02,2.845476e+03
6.894285e+02,2.843075e+03
6.923212e+02,2.839823e+03
6.952139e+02,2.848640e+03
6.981066e+02,2.839247e+03
7.009993e+02,2.835925e+03
7.038920e+02,2.827306e+03
7.067847e+02,2.824912e+03
7.096774e+02,2.822844e+03
7.125701e+02,2.822949e+03
7.154628e+02,2.831590e+03
7.183555e+02,2.810024e+03
7.212482e+02,2.818450e+03
7.241409e+02,2.807067e+03
7.270336e+02,2.805081e+03
7.299263e+02,2.808204e+03
7.328190e+02,2.800954e+03
7.357117e+02,2.805708e+03
7.386044e+02,2.793066e+03
7.414971e+02,2.791647e+03
7.443898e+02,2.801809e+03
7.472825e+02,2.802457e+03
7.501752e+02,2.774990e+03
7.530679e+02,2.775407e+03
7.559606e+02,2.775403e+03
7.588533e+02,2.777910e+03
7.617460e+02,2.773477e+03
7.646387e+02,2.775567e+03
7.675314e+02,2.749233e+03
7.704241e+02,2.738537e+03
7.733168e+02,2.735196e+03
7.762095e+02,2.744792e+03
7.791022e+02,2.753824e+03
7.819949e+02,2.738269e+03
7.848876e+02,2.741261e+03
7.877803e+02,2.728406e+03
7.906730e+02,2.731594e+03
7.935657e+02,2.730176e+03
7.964584e+02,2.724383e+03
7.993511e+02,2.723328e+03
8.022438e+02,2.695454e+03
8.051365e+02,2.696447e+03
8.080292e+02,2.702317e+03
8.109219e+02,2.722051e+03
8.138146e+02,2.714060e+03
8.167073e+02,2.710313e+03
8.196000e+02,2.707703e+03
8.224927e+02,2.683485e+03
8.253854e+02,2.719268e+03
8.282781e+02,2.668612e+03
8.311708e+02,2.678759e+03
8.340635e+02,2.676533e+03
8.369562e+02,2.688875e+03
8.398489e+02,2.678328e+03
8.427416e+02,2.679714e+03
8.456343e+02,2.653914e+03
8.485270e+02,2.654463e+03
8.514197e+02,2.675947e+03
8.543124e+02,2.655534e+03
8.572051e+02,2.653024e+03
8.600978e+02,2.640527e+03
8.629905e+02,2.652520e+03
8.658832e+02,2.650272e+03
8.687759e+02,2.649373e+03
8.716686e+02,2.638934e+03
8.745613e+02,2.630067e+03
8.774540e+02,2.636621e+03
8.803467e+02,2.633999e+03
8.832394e+02,2.625669e+03
8.861321e+02,2.617934e+03
8.890248e+02,2.615515e+03
8.919175e+02,2.617236e+03
8.948102e+02,2.608621e+03
8.977029e+02,2.609670e+03
9.005956e+02,2.610517e+03
9.034883e+02,2.610704e+03
9.063810e+02,2.577832e+03
9.092737e+02,2.583694e+03
9.121664e+02,2.577870e+03
9.150591e+02,2.572738e+03
9.179518e+02,2.567092e+03
9.208445e+02,2.561383e+03
9.237372e+02,2.558102e+03
9.266299e+02,2.537737e+03
9.295226e+02,2.567434e+03
9.324153e+02,2.546282e+03
9.353080e+02,2.541491e+03
9.382007e+02,2.517422e+03
9.410934e+02,2.535066e+03
9.439861e+02,2.529446e+03
9.468788e+02,2.531268e+03
9.497715e+02,2.529892e+03
9.526642e+02,2.519474e+03
9.555569e+02,2.507495e+03
9.584496e+02,2.520543e+03
9.613423e+02,2.527286e+03
9.642350e+02,2.521438e+03
9.671277e+02,2.501171e+03
9.700204e+02,2.503921e+03
9.729131e+02,2.494363e+03
9.758058e+02,2.506291e+03
9.786985e+02,2.501331e+03
9.815912e+02,2.489935e+03
9.844839e+02,2.481995e+03
9.873766e+02,2.475750e+03
9.902693e+02,2.466928e+03
9.931620e+02,2.474774e+03
9.960547e+02,2.476582e+03
9.989474e+02,2.479522e+03
1.001840e+03,2.445220e+03
1.004733e+03,2.437991e+03
1.007626e+03,2.442831e+03
1.010518e+03,2.470431e+03
1.013411e+03,2.453747e+03
1.016304e+03,2.440964e+03
1.019196e+03,2.438946e+03
1.022089e+03,2.440659e+03
1.024982e+03,2.437398e+03
1.027875e+03,2.444293e+03
1.030767e+03,2.431901e+03
1.033660e+03,2.433040e+03
1.036552e+03,2.426388e+03
1.039445e+03,2.420861e+03
1.042338e+03,2.424267e+03
1.045231e+03,2.408250e+03
1.048123e+03,2.403948e+03
1.051016e+03,2.412407e+03
1.053909e+03,2.416770e+03
1.056802e+03,2.414958e+03
1.059694e+03,2.403358e+03
1.062587e+03,2.407414e+03
1.065479e+03,2.391746e+03
1.068372e+03,2.397312e+03
1.071265e+03,2.387230e+03
1.074158e+03,2.398737e+03
1.077050e+03,2.387445e+03
1.079943e+03,2.387437e+03
1.082836e+03,2.398903e+03
1.085729e+03,2.399682e+03
1.088621e+03,2.408585e+03
1.091514e+03,2.405987e+03
1.094406e+03,2.396601e+03
1.097299e+03,2.397275e+03
1.100192e+03,2.392500e+03
1.103085e+03,2.373889e+03
1.105977e+03,2.380184e+03
1.108870e+03,2.366652e+03
1.111763e+03,2.357746e+03
1.114656e+03,2.367643e+03
1.117548e+03,2.372680e+03
1.120441e+03,2.369015e+03
1.123334e+03,2.353468e+03
1.126226e+03,2.334718e+03
1.129119e+03,2.331803e+03
1.132012e+03,2.329069e+03
1.134904e+03,2.316336e+03
1.137797e+03,2.314325e+03
1.140690e+03,2.306733e+03
1.143583e+03,2.308227e+03
1.146475e+03,2.306841e+03
1.149368e+03,2.316021e+03
1.152261e+03,2.294493e+03
1.155153e+03,2.280311e+03
1.158046e+03,2.275681e+03
1.160939e+03,2.272672e+03
1.163831e+03,2.275420e+03
1.166724e+03,2.276379e+03
1.169617e+03,2.269949e+03
1.172510e+03,2.257016e+03
1.175402e+03,2.259359e+03
1.178295e+03,2.248234e+03
1.181188e+03,2.267983e+03
1.184080e+03,2.242389e+03
1.186973e+03,2.241672e+03
1.189866e+03,2.232293e+03
1.192758e+03,2.240371e+03
1.195651e+03,2.232091e+03
1.198544e+03,2.236161e+03
1.201437e+03,2.230220e+03
1.204329e+03,2.232711e+03
1.207222e+03,2.228170e+03
1.210115e+03,2.227290e+03
1.213007e+03,2.215910e+03
1.215900e+03,2.221461e+03
1.218793e+03,2.211910e+03
1.221685e+03,2.209367e+03
1.224578e+03,2.206805e+03
1.227471e+03,2.215666e+03
1.230364e+03,2.193865e+03
1.233256e+03,2.191825e+03
1.236149e+03,2.171602e+03
1.239042e+03,2.195205e+03
1.241934e+03,2.183651e+03
1.244827e+03,2.173986e+03
1.247720e+03,2.178284e+03
1.250612e+03,2.164621e+03
1.253505e+03,2.179057e+03
1.256398e+03,2.175435e+03
1.259291e+03,2.180230e+03
1.262183e+03,2.168414e+03
1.265076e+03,2.164216e+03
1.267969e+03,2.151894e+03
1.270861e+03,2.157442e+03
1.273754e+03,2.156763e+03
1.276647e+03,2.164523e+03
1.279539e+03,2.146476e+03
1.282432e+03,2.144293e+03
1.285325e+03,2.154155e+03
1.288218e+03,2.149878e+03
1.291110e+03,2.143879e+03
1.294003e+03,2.140842e+03
1.296896e+03,2.137010e+03
1.299788e+03,2.137083e+03
1.302681e+03,2.141921e+03
1.305574e+03,2.128194e+03
1.308466e+03,2.123977e+03
1.311359e+03,2.123204e+03
1.314252e+03,2.122797e+03
1.317145e+03,2.113063e+03
1.320037e+03,2.126448e+03
1.322930e+03,2.117506e+03
1.325823e+03,2.113056e+03
1.328715e+03,2.109594e+03
1.331608e+03,2.115662e+03
1.334501e+03,2.111800e+03
1.337393e+03,2.103393e+03
1.340286e+03,2.103107e+03
1.343179e+03,2.086887e+03
1.346072e+03,2.089266e+03
1.348964e+03,2.091412e+03
1.351857e+03,2.095927e+03
1.354750e+03,2.084956e+03
1.357642e+03,2.074286e+03
1.360535e+03,2.074076e+03
1.363428e+03,2.080712e+03
1.366320e+03,2.080350e+03
1.369213e+03,2.078151e+03
1.372106e+03,2.067580e+03
1.374999e+03,2.070386e+03
1.377891e+03,2.063915e+03
1.380784e+03,2.067237e+03
1.383677e+03,2.067649e+03
1.386569e+03,2.049488e+03
1.389462e+03,2.029474e+03
1.392355e+03,2.040871e+03
1.395247e+03,2.021219e+03
1.398140e+03,2.026963e+03
1.401033e+03,2.020327e+03
1.403926e+03,2.021988e+03
1.406818e+03,2.026863e+03
1.409711e+03,2.019866e+03
1.412604e+03,2.022473e+03
1.415496e+03,2.014772e+03
1.418389e+03,2.003484e+03
1.421282e+03,2.003372e+03
1.424174e+03,2.004146e+03
1.427067e+03,1.988316e+03
1.429960e+03,2.001518e+03
1.432853e+03,1.983130e+03
1.435745e+03,1.992084e+03
1.438638e+03,1.977802e+03
1.441531e+03,1.986080e+03
1.444423e+03,1.981004e+03
1.447316e+03,1.960969e+03
1.450209e+03,1.975946e+03
1.453101e+03,1.958809e+03
1.455994e+03,1.966604e+03
1.458887e+03,1.965723e+03
1.461780e+03,1.972688e+03
1.464672e+03,1.963878e+03
1.467565e+03,1.948703e+03
1.470458e+03,1.948531e+03
1.473350e+03,1.953111e+03
1.476243e+03,1.953955e+03
1.479136e+03,1.940092e+03
1.482028e+03,1.944131e+03
1.484921e+03,1.933690e+03
1.487814e+03,1.939482e+03
1.490707e+03,1.925308e+03
1.493599e+03,1.930531e+03
1.496492e+03,1.928763e+03
1.499385e+03,1.909955e+03
1.502277e+03,1.897872e+03
1.505170e+03,1.907351e+03
1.508063e+03,1.906949e+03
1.510955e+03,1.890553e+03
1.513848e+03,1.885890e+03
1.516741e+03,1.890779e+03
1.519634e+03,1.909592e+03
1.522526e+03,1.893248e+03
1.525419e+03,1.874728e+03
1.528312e+03,1.884004e+03
1.531204e+03,1.880536e+03
1.534097e+03,1.877640e+03
1.536990e+03,1.863478e+03
1.539882e+03,1.876395e+03
1.542775e+03,1.852563e+03
1.545668e+03,1.867581e+03
1.548561e+03,1.863479e+03
1.551453e+03,1.858960e+03
1.554346e+03,1.866243e+03
1.557239e+03,1.853943e+03
1.560131e+03,1.849279e+03
1.563024e+03,1.856016e+03
1.565917e+03,1.856396e+03
1.568809e+03,1.854063e+03
1.571702e+03,1.860062e+03
1.574595e+03,1.848385e+03
1.577488e+03,1.857836e+03
1.580380e+03,1.829545e+03
1.583273e+03,1.838892e+03
1.586166e+03,1.843065e+03
1.589058e+03,1.833031e+03
1.591951e+03,1.822204e+03
1.594844e+03,1.828954e+03
1.597736e+03,1.819914e+03
1.600629e+03,1.818381e+03
1.603522e+03,1.811941e+03
1.606415e+03,1.798464e+03
1.609307e+03,1.802615e+03
1.612200e+03,1.804870e+03
1.615093e+03,1.791628e+03
1.617985e+03,1.798997e+03
1.620878e+03,1.794216e+03
1.623771e+03,1.797073e+03
1.626663e+03,1.777407e+03
1.629556e+03,1.785966e+03
1.632449e+03,1.790993e+03
1.635342e+03,1.771558e+03
1.638234e+03,1.768365e+03
1.641127e+03,1.753694e+03
1.644020e+03,1.754402e+03
1.646912e+03,1.758158e+03
1.649805e+03,1.777902e+03
1.652698e+03,1.751373e+03
1.655590e+03,1.736231e+03
1.658483e+03,1.735456e+03
1.661376e+03,1.732804e+03
1.664269e+03,1.741769e+03
1.667161e+03,1.719921e+03
1.670054e+03,1.728430e+03
1.672947e+03,1.717579e+03
1.675839e+03,1.721754e+03
1.678732e+03,1.716722e+03
1.681625e+03,1.706191e+03
1.684517e+03,1.706133e+03
1.687410e+03,1.716315e+03
1.690303e+03,1.694003e+03
1.693196e+03,1.696301e+03
1.696088e+03,1.689078e+03
1.698981e+03,1.693666e+03
1.701874e+03,1.693608e+03
1.704766e+03,1.690324e+03
1.707659e+03,1.694371e+03
1.710552e+03,1.682913e+03
1.713444e+03,1.691296e+03
1.716337e+03,1.678851e+03
1.719230e+03,1.670708e+03
1.722123e+03,1.680315e+03
1.725015e+03,1.672314e+03
1.727908e+03,1.668073e+03
1.730801e+03,1.662999e+03
1.733693e+03,1.658799e+03
1.736586e+03,1.663291e+03
1.739479e+03,1.635181e+03
1.742371e+03,1.651188e+03
1.745264e+03,1.638202e+03
1.748157e+03,1.632014e+03
1.751050e+03,1.636299e+03
1.753942e+03,1.628814e+03
1.756835e+03,1.619551e+03
1.759728e+03,1.623506e+03
1.762620e+03,1.613309e+03
1.765513e+03,1.609359e+03
1.768406e+03,1.624060e+03
1.771298e+03,1.614789e+03
1.774191e+03,1.615147e+03
1.777084e+03,1.596150e+03
1.779977e+03,1.610460e+03
1.782869e+03,1.594066e+03
1.785762e+03,1.610618e+03
1.788655e+03,1.602284e+03
1.791547e+03,1.597810e+03
1.794440e+03,1.598989e+03
1.797333e+03,1.578956e+03
1.800225e+03,1.589729e+03
1.803118e+03,1.578590e+03
1.806011e+03,1.574591e+03
1.808904e+03,1.563252e+03
1.811796e+03,1.572703e+03
1.814689e+03,1.578621e+03
1.817582e+03,1.579995e+03
1.820474e+03,1.580845e+03
1.823367e+03,1.554661e+03
1.826260e+03,1.552057e+03
1.829152e+03,1.553909e+03
1.832045e+03,1.535041e+03
1.834938e+03,1.539826e+03
1.837831e+03,1.555865e+03
1.840723e+03,1.520532e+03
1.843616e+03,1.540522e+03
1.846509e+03,1.525763e+03
1.849401e+03,1.544969e+03
1.852294e+03,1.522768e+03
1.855187e+03,1.515262e+03
1.858079e+03,1.517798e+03
1.860972e+03,1.537182e+03
1.863865e+03,1.518937e+03
1.866758e+03,1.515750e+03
1.869650e+03,1.514244e+03
1.872543e+03,1.488481e+03
1.875436e+03,1.499305e+03
1.878328e+03,1.478952e+03
1.881221e+03,1.493821e+03
1.884114e+03,1.495093e+03
1.887006e+03,1.479389e+03
1.889899e+03,1.483906e+03
1.892792e+03,1.488657e+03
1.895685e+03,1.468202e+03
1.898577e+03,1.474407e+03
1.901470e+03,1.480064e+03
1.904363e+03,1.470759e+03
1.907255e+03,1.464158e+03
1.910148e+03,1.457938e+03
1.913041e+03,1.467568e+03
1.915933e+03,1.453302e+03
1.918826e+03,1.452514e+03
1.921719e+03,1.451186e+03
1.924612e+03,1.439662e+03
1.927504e+03,1.444098e+03
1.930397e+03,1.427186e+03
1.933290e+03,1.425457e+03
1.936182e+03,1.425546e+03
1.939075e+03,1.440692e+03
1.941968e+03,1.419639e+03
1.944860e+03,1.412848e+03
1.947753e+03,1.416196e+03
1.950646e+03,1.415395e+03
1.953539e+03,1.417951e+03
1.956431e+03,1.401722e+03
1.959324e+03,1.417738e+03
1.962217e+03,1.396362e+03
1.965109e+03,1.393306e+03
1.968002e+03,1.394612e+03
1.970895e+03,1.375933e+03
1.973787e+03,1.398170e+03
1.976680e+03,1.385742e+03
1.979573e+03,1.380319e+03
1.982466e+03,1.369163e+03
1.985358e+03,1.373743e+03
1.988251e+03,1.362753e+03
1.991144e+03,1.349719e+03
1.994036e+03,1.358877e+03
1.996929e+03,1.371288e+03
1.999822e+03,1.356308e+03
2.002714e+03,1.349803e+03
2.005607e+03,1.351085e+03
2.008500e+03,1.352125e+03
2.011393e+03,1.331880e+03
2.014285e+03,1.353756e+03
2.017178e+03,1.333296e+03
2.020071e+03,1.332705e+03
2.022963e+03,1.314677e+03
2.025856e+03,1.328206e+03
2.028749e+03,1.324478e+03
2.031641e+03,1.333137e+03
2.034534e+03,1.324820e+03
2.037427e+03,1.318374e+03
2.040320e+03,1.304186e+03
2.043212e+03,1.309598e+03
2.046105e+03,1.302582e+03
2.048998e+03,1.310400e+03
2.051890e+03,1.299847e+03
2.054783e+03,1.282969e+03
2.057676e+03,1.291810e+03
2.060568e+03,1.289047e+03
2.063461e+03,1.284198e+03
2.066354e+03,1.272462e+03
2.069247e+03,1.283679e+03
2.072139e+03,1.252017e+03
2.075032e+03,1.262154e+03
2.077925e+03,1.259511e+03
2.080817e+03,1.256111e+03
2.083710e+03,1.254766e+03
2.086603e+03,1.247303e+03
2.089496e+03,1.240933e+03
2.092388e+03,1.245646e+03
2.095281e+03,1.244271e+03
2.098174e+03,1.255725e+03
2.101066e+03,1.230545e+03
2.103959e+03,1.236306e+03
2.106852e+03,1.222109e+03
2.109744e+03,1.240136e+03
2.112637e+03,1.213757e+03
2.115530e+03,1.213570e+03
2.118422e+03,1.204416e+03
2.121315e+03,1.222251e+03
2.124208e+03,1.217802e+03
2.127101e+03,1.205176e+03
2.129993e+03,1.200892e+03
2.132886e+03,1.197396e+03
2.135779e+03,1.196594e+03
2.138671e+03,1.192943e+03
2.141564e+03,1.200430e+03
2.144457e+03,1.201101e+03
2.147350e+03,1.181447e+03
2.150242e+03,1.178749e+03
2.153135e+03,1.196958e+03
2.156028e+03,1.170802e+03
2.158920e+03,1.172556e+03
2.161813e+03,1.173722e+03
2.164706e+03,1.154946e+03
2.167598e+03,1.157201e+03
2.170491e+03,1.161811e+03
2.173384e+03,1.162835e+03
2.176277e+03,1.137007e+03
2.179169e+03,1.152046e+03
2.182062e+03,1.140508e+03
2.184955e+03,1.151688e+03
2.187847e+03,1.140458e+03
2.190740e+03,1.137110e+03
2.193633e+03,1.124805e+03
2.196525e+03,1.132519e+03
2.199418e+03,1.119267e+03
2.202311e+03,1.127387e+03
2.205204e+03,1.111890e+03
2.208096e+03,1.117482e+03
2.210989e+03,1.103182e+03
2.213882e+03,1.100810e+03
2.216774e+03,1.108780e+03
2.219667e+03,1.100218e+03
2.222560e+03,1.099884e+03
2.225452e+03,1.098696e+03
2.228345e+03,1.098224e+03
2.231238e+03,1.083116e+03
2.234131e+03,1.082698e+03
2.237023e+03,1.090859e+03
2.239916e+03,1.076997e+03
2.242809e+03,1.080172e+03
2.245701e+03,1.069875e+03
2.248594e+03,1.068708e+03
2.251487e+03,1.074798e+03
2.254379e+03,1.070201e+03
2.257272e+03,1.058798e+03
2.260165e+03,1.053215e+03
2.263058e+03,1.052391e+03
2.265950e+03,1.065394e+03
2.268843e+03,1.031175e+03
2.271736e+03,1.034256e+03
2.274628e+03,1.050900e+03
2.277521e+03,1.042823e+03
2.280414e+03,1.048280e+03
2.283306e+03,1.034254e+03
2.286199e+03,1.036188e+03
2.289092e+03,1.024255e+03
2.291985e+03,1.032513e+03
2.294877e+03,1.014532e+03
2.297770e+03,1.030814e+03
2.300663e+03,1.014111e+03
2.303555e+03,1.014364e+03
2.306448e+03,1.005042e+03
2.309341e+03,1.010387e+03
2.312233e+03,9.937489e+02
2.315126e+03,1.005937e+03
2.318019e+03,9.872884e+02
2.320912e+03,9.963514e+02
2.323804e+03,9.974675e+02
2.326697e+03,9.942086e+02
2.329590e+03,9.946954e+02
2.332482e+03,9.897268e+02
2.335375e+03,9.728727e+02
2.338268e+03,9.763340e+02
2.341160e+03,9.739714e+02
2.344053e+03,9.834972e+02
2.346946e+03,9.839539e+02
2.349839e+03,9.627880e+02
2.352731e+03,9.632565e+02
2.355624e+03,9.599883e+02
2.358517e+03,9.593060e+02
2.361409e+03,9.665275e+02
2.364302e+03,9.484705e+02
2.367195e+03,9.459025e+02
2.370087e+03,9.372533e+02
2.372980e+03,9.360629e+02
2.375873e+03,9.496472e+02
2.378766e+03,9.359786e+02
2.381658e+03,9.333037e+02
2.384551e+03,9.314262e+02
2.387444e+03,9.395117e+02
2.390336e+03,9.170585e+02
2.393229e+03,9.279082e+02
2.396122e+03,9.244753e+02
2.399014e+03,9.197236e+02
2.401907e+03,9.250061e+02
2.404800e+03,9.144505e+02
2.407693e+03,9.107914e+02
2.410585e+03,9.027278e+02
2.413478e+03,8.952191e+02
2.416371e+03,9.003677e+02
2.419263e+03,9.155224e+02
2.422156e+03,9.089129e+02
2.425049e+03,8.899608e+02
2.427941e+03,8.953735e+02
2.430834e+03,8.842050e+02
2.433727e+03,8.770712e+02
2.436620e+03,8.988679e+02
2.439512e+03,8.863721e+02
2.442405e+03,8.741977e+02
2.445298e+03,8.877908e+02
2.448190e+03,8.885359e+02
2.451083e+03,8.829441e+02
2.453976e+03,8.708664e+02
2.456868e+03,8.635848e+02
2.459761e+03,8.623544e+02
2.462654e+03,8.553074e+02
2.465547e+03,8.558990e+02
2.468439e+03,8.430186e+02
2.471332e+03,8.608708e+02
2.474225e+03,8.520565e+02
2.477117e+03,8.561115e+02
2.480010e+03,8.701130e+02
2.482903e+03,8.554360e+02
2.485795e+03,8.446777e+02
2.488688e+03,8.538146e+02
2.491581e+03,8.492719e+02
2.494474e+03,8.336691e+02
2.497366e+03,8.289086e+02
2.500259e+03,8.474991e+02
2.503152e+03,8.333398e+02
2.506044e+03,8.297374e+02
2.508937e+03,8.406962e+02
2.511830e+03,8.201713e+02
2.514722e+03,8.143931e+02
2.517615e+03,8.251902e+02
2.520508e+03,8.211413e+02
2.523401e+03,8.297253e+02
2.526293e+03,8.087063e+02
2.529186e+03,8.048956e+02
2.532079e+03,8.137184e+02
2.534971e+03,8.106192e+02
2.537864e+03,8.011282e+02
2.540757e+03,8.060594e+02
2.543649e+03,8.019374e+02
2.546542e+03,8.231284e+02
2.549435e+03,8.131154e+02
2.552328e+03,8.030627e+02
2.555220e+03,8.153950e+02
2.558113e+03,8.002280e+02
2.561006e+03,8.019540e+02
2.563898e+03,8.081155e+02
2.566791e+03,7.857360e+02
2.569684e+03,8.044427e+02
2.572576e+03,7.784371e+02
2.575469e+03,7.945319e+02
2.578362e+03,7.852167e+02
2.581255e+03,7.825214e+02
2.584147e+03,7.857620e+02
2.587040e+03,7.641583e+02
2.589933e+03,7.652724e+02
2.592825e+03,7.568099e+02
2.595718e+03,7.699089e+02
2.598611e+03,7.560292e+02
2.601503e+03,7.678684e+02
2.604396e+03,7.526863e+02
2.607289e+03,7.625710e+02
2.610182e+03,7.513544e+02
2.613074e+03,7.532037e+02
2.615967e+03,7.697848e+02
2.618860e+03,7.557473e+02
2.621752e+03,7.489921e+02
2.624645e+03,7.553222e+02
2.627538e+03,7.483917e+02
2.630430e+03,7.285477e+02
2.633323e+03,7.375636e+02
2.636216e+03,7.296223e+02
2.639109e+03,7.386952e+02
2.642001e+03,7.412176e+02
2.644894e+03,7.203812e+02
2.647787e+03,7.146059e+02
2.650679e+03,7.180327e+02
2.653572e+03,7.355901e+02
2.656465e+03,7.388924e+02
2.659357e+03,7.286534e+02
2.662250e+03,7.249901e+02
2.665143e+03,7.252289e+02
2.668036e+03,7.483030e+02
2.670928e+03,7.163514e+02
2.673821e+03,7.302652e+02
2.676714e+03,7.112423e+02
2.679606e+03,7.287266e+02
2.682499e+03,7.102440e+02
2.685392e+03,7.277664e+02
2.688284e+03,7.154304e+02
2.691177e+03,7.150447e+02
2.694070e+03,7.100788e+02
2.696963e+03,7.250834e+02
2.699855e+03,7.247811e+02
2.702748e+03,7.145902e+02
2.705641e+03,7.084306e+02
2.708533e+03,7.069496e+02
2.711426e+03,6.931146e+02
2.714319e+03,7.149158e+02
2.717211e+03,7.059040e+02
2.720104e+03,7.097322e+02
2.722997e+03,7.081088e+02
2.725890e+03,6.965949e+02
2.728782e+03,7.040103e+02
2.731675e+03,6.968744e+02
2.734568e+03,6.872897e+02
2.737460e+03,6.848309e+02
2.740353e+03,6.957025e+02
2.743246e+03,6.643482e+02
2.746138e+03,6.941280e+02
2.749031e+03,6.984225e+02
2.751924e+03,6.796224e+02
2.754817e+03,6.822156e+02
2.757709e+03,6.766046e+02
2.760602e+03,6.740732e+02
2.763495e+03,6.964918e+02
2.766387e+03,6.765225e+02
2.769280e+03,6.605807e+02
2.772173e+03,6.735347e+02
2.775065e+03,6.921086e+02
2.777958e+03,6.742191e+02
2.780851e+03,6.720657e+02
2.783744e+03,6.691701e+02
2.786636e+03,6.656316e+02
2.789529e+03,6.771904e+02
2.792422e+03,6.783806e+02
2.795314e+03,6.462593e+02
2.798207e+03,6.694022e+02
2.801100e+03,6.476064e+02
2.803992e+03,6.546365e+02
2.806885e+03,6.462480e+02
2.809778e+03,6.632975e+02
2.812671e+03,6.537283e+02
2.815563e+03,6.700629e+02
2.818456e+03,6.712267e+02
2.821349e+03,6.482756e+02
2.824241e+03,6.462807e+02
2.827134e+03,6.523768e+02
2.830027e+03,6.651600e+02
2.832919e+03,6.492689e+02
2.835812e+03,6.611789e+02
2.838705e+03,6.547174e+02
2.841598e+03,6.595170e+02
2.844490e+03,6.712079e+02
2.847383e+03,6.518322e+02
2.850276e+03,6.715595e+02
2.853168e+03,6.641883e+02
2.856061e+03,6.649156e+02
2.858954e+03,6.597342e+02
2.861846e+03,6.619440e+02
2.864739e+03,6.749699e+02
2.867632e+03,6.739525e+02
2.870525e+03,6.776281e+02
2.873417e+03,6.647654e+02
2.876310e+03,6.908983e+02
2.879203e+03,6.731740e+02
2.882095e+03,6.816085e+02
2.884988e+03,6.678860e+02
2.887881e+03,6.910189e+02
2.890773e+03,6.924941e+02
2.893666e+03,6.942900e+02
2.896559e+03,6.884248e+02
2.899452e+03,6.931330e+02
2.902344e+03,6.994843e+02
2.905237e+03,6.608552e+02
2.908130e+03,6.565743e+02
2.911022e+03,6.853410e+02
2.913915e+03,6.457371e+02
2.916808e+03,6.558464e+02
2.919700e+03,6.513260e+02
2.922593e+03,6.428743e+02
2.925486e+03,6.451566e+02
2.928379e+03,6.273663e+02
2.931271e+03,6.432834e+02
2.934164e+03,6.549744e+02
2.937057e+03,6.429022e+02
2.939949e+03,6.297694e+02
2.942842e+03,6.235989e+02
2.945735e+03,6.438676e+02
2.948627e+03,6.331472e+02
2.951520e+03,6.410205e+02
2.954413e+03,6.078580e+02
2.957306e+03,6.562427e+02
2.960198e+03,6.423982e+02
2.963091e+03,6.299321e+02
2.965984e+03,6.131451e+02
2.968876e+03,6.048078e+02
2.971769e+03,6.124744e+02
2.974662e+03,6.020179e+02
2.977554e+03,5.852734e+02
2.980447e+03,6.026371e+02
2.983340e+03,6.028961e+02
2.986233e+03,6.156767e+02
2.989125e+03,5.846932e+02
2.992018e+03,5.862041e+02
2.994911e+03,5.950174e+02
2.997803e+03,5.751954e+02
3.000696e+03,6.046321e+02
3.003589e+03,5.814940e+02
3.006481e+03,6.008400e+02
3.009374e+03,5.771064e+02
3.012267e+03,5.786932e+02
3.015160e+03,5.618546e+02
3.018052e+03,5.711679e+02
3.020945e+03,5.763328e+02
3.023838e+03,5.410112e+02
3.026730e+03,5.861758e+02
3.029623e+03,5.872067e+02
3.032516e+03,5.946231e+02
3.035408e+03,5.561194e+02
3.038301e+03,5.913319e+02
3.041194e+03,5.790082e+02
3.044087e+03,5.509406e+02
3.046979e+03,5.634948e+02
3.049872e+03,5.590179e+02
3.052765e+03,5.761175e+02
3.055657e+03,5.564125e+02
3.058550e+03,5.775695e+02
3.061443e+03,5.562321e+02
3.064335e+03,5.726972e+02
3.067228e+03,5.611949e+02
3.070121e+03,5.290554e+02
3.073014e+03,5.436874e+02
3.075906e+03,5.695798e+02
3.078799e+03,5.506730e+02
3.081692e+03,5.731678e+02
3.084584e+03,5.499022e+02
3.087477e+03,5.587809e+02
3.090370e+03,5.377491e+02
3.093262e+03,5.634942e+02
3.096155e+03,5.520067e+02
3.099048e+03,5.577346e+02
3.101941e+03,5.699656e+02
3.104833e+03,5.681689e+02
3.107726e+03,5.931920e+02
3.110619e+03,5.295704e+02
3.113511e+03,5.558623e+02
3.116404e+03,5.511737e+02
3.119297e+03,5.762385e+02
3.122189e+03,5.520367e+02
3.125082e+03,5.908522e+02
3.127975e+03,5.594387e+02
3.130868e+03,5.922957e+02
3.133760e+03,5.864161e+02
3.136653e+03,5.450232e+02
3.139546e+03,5.587267e+02
3.142438e+03,5.688094e+02
3.145331e+03,5.412061e+02
3.148224e+03,5.683938e+02
3.151116e+03,5.315526e+02
3.154009e+03,5.866370e+02
3.156902e+03,5.758138e+02
3.159795e+03,5.567419e+02
3.162687e+03,6.033194e+02
3.165580e+03,5.719264e+02
3.168473e+03,5.673160e+02
3.171365e+03,5.685690e+02
3.174258e+03,5.784904e+02
3.177151e+03,5.676210e+02
3.180043e+03,5.459275e+02
3.182936e+03,5.816526e+02
3.185829e+03,5.648278e+02
3.188722e+03,5.066766e+02
3.191614e+03,5.927869e+02
3.194507e+03,5.782809e+02
3.197400e+03,5.497546e+02
3.200292e+03,6.089323e+02
3.203185e+03,0.000000e+00
3.206078e+03,0.000000e+00
3.208970e+03,0.000000e+00
3.211863e+03,0.000000e+00
3.214756e+03,0.000000e+00
3.217649e+03,0.000000e+00
3.220541e+03,0.000000e+00
3.223434e+03,0.000000e+00
3.226327e+03,0.000000e+00
3.229219e+03,0.000000e+00
3.232112e+03,0.000000e+00
3.235005e+03,0.000000e+00
3.237897e+03,0.000000e+00
3.240790e+03,0.000000e+00
3.243683e+03,0.000000e+00
3.246576e+03,0.000000e+00
3.249468e+03,0.000000e+00
3.252361e+03,0.000000e+00
3.255254e+03,0.000000e+00
3.258146e+03,0.000000e+00
3.261039e+03,0.000000e+00
3.263932e+03,0.000000e+00
3.266824e+03,0.000000e+00
3.269717e+03,0.000000e+00
3.272610e+03,0.000000e+00
3.275503e+03,0.000000e+00
3.278395e+03,0.000000e+00
3.281288e+03,0.000000e+00
3.284181e+03,0.000000e+00
3.287073e+03,0.000000e+00
3.289966e+03,0.000000e+00
3.292859e+03,0.000000e+00
3.295751e+03,0.000000e+00
3.298644e+03,0.000000e+00
3.301537e+03,0.000000e+00
3.304430e+03,0.000000e+00
3.307322e+03,0.000000e+00
3.310215e+03,0.000000e+00
3.313108e+03,0.000000e+00
3.316000e+03,0.000000e+00
3.318893e+03,0.000000e+00
3.321786e+03,0.000000e+00
3.324678e+03,0.000000e+00
3.327571e+03,0.000000e+00
3.330464e+03,0.000000e+00
3.333357e+03,0.000000e+00
3.336249e+03,0.000000e+00
3.339142e+03,0.000000e+00
3.342035e+03,0.000000e+00
3.344927e+03,0.000000e+00
3.347820e+03,0.000000e+00
3.350713e+03,0.000000e+00
3.353605e+03,0.000000e+00
3.356498e+03,0.000000e+00
3.359391e+03,0.000000e+00
3.362284e+03,0.000000e+00
3.365176e+03,0.000000e+00
3.368069e+03,0.000000e+00
3.370962e+03,0.000000e+00
3.373854e+03,0.000000e+00
3.376747e+03,0.000000e+00
3.379640e+03,0.000000e+00
3.382532e+03,0.000000e+00
3.385425e+03,0.000000e+00
3.388318e+03,0.000000e+00
3.391211e+03,0.000000e+00
3.394103e+03,0.000000e+00
3.396996e+03,0.000000e+00
3.399889e+03,0.000000e+00
3.402781e+03,0.000000e+00
3.405674e+03,0.000000e+00
3.408567e+03,0.000000e+00
3.411459e+03,0.000000e+00
3.414352e+03,0.000000e+00
3.417245e+03,0.000000e+00
3.420138e+03,0.000000e+00
3.423030e+03,0.000000e+00
3.425923e+03,0.000000e+00
3.428816e+03,0.000000e+00
3.431708e+03,0.000000e+00
3.434601e+03,0.000000e+00
3.437494e+03,0.000000e+00
3.440386e+03,0.000000e+00
3.443279e+03,0.000000e+00
3.446172e+03,0.000000e+00
3.449065e+03,0.000000e+00
3.451957e+03,0.000000e+00
3.454850e+03,0.000000e+00
3.457743e+03,0.000000e+00
3.460635e+03,0.000000e+00
3.463528e+03,0.000000e+00
3.466421e+03,0.000000e+00
3.469313e+03,0.000000e+00
3.472206e+03,0.000000e+00
3.475099e+03,0.000000e+00
3.477992e+03,0.000000e+00
3.480884e+03,0.000000e+00
3.483777e+03,0.000000e+00
3.486670e+03,0.000000e+00
3.489563e+03,0.000000e+00
3.492455e+03,0.000000e+00
3.495348e+03,0.000000e+00
3.498240e+03,0.000000e+00
3.500169e+03,0.000000e+00