File: RAMAN_data/12022024_r2/blue fibre1.CSV
9.931763e+01,0.000000e+00
1.022103e+02,0.000000e+00
1.051030e+02,0.000000e+00
1.079957e+02,0.000000e+00
1.108884e+02,0.000000e+00
1.137811e+02,0.000000e+00
1.166738e+02,0.000000e+00
1.195665e+02,0.000000e+00
1.224592e+02,0.000000e+00
1.253519e+02,0.000000e+00
1.282446e+02,0.000000e+00
1.311373e+02,0.000000e+00
1.340300e+02,0.000000e+00
1.369227e+02,0.000000e+00
1.398154e+02,0.000000e+00
1.427081e+02,0.000000e+00
1.456008e+02,0.000000e+00
1.484935e+02,0.000000e+00
1.513862e+02,0.000000e+00
1.542789e+02,0.000000e+00
1.571716e+02,0.000000e+00
1.600643e+02,0.000000e+00
1.629570e+02,0.000000e+00
1.658497e+02,0.000000e+00
1.687424e+02,0.000000e+00
1.716351e+02,0.000000e+00
1.745278e+02,0.000000e+00
1.774205e+02,0.000000e+00
1.803132e+02,0.000000e+00
1.832059e+02,0.000000e+00
1.860986e+02,0.000000e+00
1.889913e+02,0.000000e+00
1.918840e+02,0.000000e+00
1.947767e+02,0.000000e+00
1.976694e+02,0.000000e+00
2.005621e+02,8.037250e+03
2.034548e+02,8.068482e+03
2.063475e+02,8.105498e+03
2.092402e+02,8.133725e+03
2.121329e+02,8.127120e+03
2.150256e+02,8.177094e+03
2.179183e+02,8.211105e+03
2.208110e+02,8.243832e+03
2.237037e+02,8.254729e+03
2.265964e+02,8.294987e+03
2.294892e+02,8.339556e+03
2.323819e+02,8.388317e+03
2.352746e+02,8.442177e+03
2.381673e+02,8.457195e+03
2.410600e+02,8.436764e+03
2.439527e+02,8.518864e+03
2.468454e+02,8.601214e+03
2.497381e+02,8.650623e+03
2.526308e+02,8.708919e+03
2.555235e+02,8.671293e+03
2.584161e+02,8.666580e+03
2.613088e+02,8.715233e+03
2.642015e+02,8.752685e+03
2.670942e+02,8.803217e+03
2.699869e+02,8.808798e+03
2.728796e+02,8.836649e+03
2.757723e+02,8.920404e+03
2.786650e+02,8.938743e+03
2.815577e+02,8.949356e+03
2.844504e+02,8.936666e+03
2.873431e+02,8.933299e+03
2.902358e+02,8.940001e+03
2.931285e+02,8.963175e+03
2.960212e+02,8.997819e+03
2.989139e+02,9.030231e+03
3.018066e+02,9.013515e+03
3.046993e+02,9.026779e+03
3.075920e+02,9.029235e+03
3.104847e+02,9.040645e+03
3.133774e+02,9.097568e+03
3.162701e+02,9.144438e+03
3.191628e+02,9.145536e+03
3.220555e+02,9.173830e+03
3.249482e+02,9.183243e+03
3.278409e+02,9.205646e+03
3.307336e+02,9.227665e+03
3.336263e+02,9.281865e+03
3.365190e+02,9.251641e+03
3.394117e+02,9.272342e+03
3.423044e+02,9.310965e+03
3.451971e+02,9.339307e+03
3.480898e+02,9.350288e+03
3.509825e+02,9.365882e+03
3.538752e+02,9.395801e+03
3.567680e+02,9.410124e+03
3.596607e+02,9.454935e+03
3.625534e+02,9.467270e+03
3.654461e+02,9.483120e+03
3.683388e+02,9.480708e+03
3.712315e+02,9.514735e+03
3.741242e+02,9.561641e+03
3.770169e+02,9.597839e+03
3.799096e+02,9.608783e+03
3.828023e+02,9.598604e+03
3.856950e+02,9.626248e+03
3.885877e+02,9.627995e+03
3.914804e+02,9.661484e+03
3.943731e+02,9.678098e+03
3.972658e+02,9.652616e+03
4.001585e+02,9.650834e+03
4.030512e+02,9.677741e+03
4.059439e+02,9.704368e+03
4.088366e+02,9.741601e+03
4.117293e+02,9.726529e+03
4.146220e+02,9.738806e+03
4.175147e+02,9.773929e+03
4.204074e+02,9.800338e+03
4.233001e+02,9.824428e+03
4.261928e+02,9.807853e+03
4.290855e+02,9.830716e+03
4.319782e+02,9.863333e+03
4.348709e+02,9.889730e+03
4.377636e+02,9.912441e+03
4.406563e+02,9.889246e+03
4.435490e+02,9.877417e+03
4.464417e+02,9.925274e+03
4.493344e+02,9.921015e+03
4.522271e+02,9.987521e+03
4.551198e+02,9.985942e+03
4.580125e+02,9.992526e+03
4.609052e+02,1.000191e+04
4.637979e+02,1.000497e+04
4.666906e+02,1.001029e+04
4.695833e+02,1.001705e+04
4.724760e+02,1.006234e+04
4.753687e+02,1.003364e+04
4.782614e+02,1.005770e+04
4.811541e+02,1.006500e+04
4.840468e+02,1.008999e+04
4.869395e+02,1.007366e+04
4.898322e+02,1.010060e+04
4.927249e+02,1.010878e+04
4.956176e+02,1.015366e+04
4.985103e+02,1.018364e+04
5.014030e+02,1.017645e+04
5.042957e+02,1.018482e+04
5.071884e+02,1.018246e+04
5.100811e+02,1.018877e+04
5.129738e+02,1.020546e+04
5.158665e+02,1.025138e+04
5.187592e+02,1.025303e+04
5.216519e+02,1.026320e+04
5.245446e+02,1.029569e+04
5.274373e+02,1.032225e+04
5.303300e+02,1.033135e+04
5.332227e+02,1.034624e+04
5.361154e+02,1.038199e+04
5.390081e+02,1.046387e+04
5.419008e+02,1.055517e+04
5.447935e+02,1.053715e+04
5.476862e+02,1.053031e+04
5.505789e+02,1.048519e+04
5.534716e+02,1.044951e+04
5.563643e+02,1.049150e+04
5.592570e+02,1.048479e+04
5.621497e+02,1.052330e+04
5.650424e+02,1.043140e+04
5.679351e+02,1.043178e+04
5.708278e+02,1.035725e+04
5.737205e+02,1.040480e+04
5.766132e+02,1.040003e+04
5.795059e+02,1.039214e+04
5.823986e+02,1.039079e+04
5.852913e+02,1.037312e+04
5.881840e+02,1.039950e+04
5.910767e+02,1.045788e+04
5.939694e+02,1.048293e+04
5.968621e+02,1.049942e+04
5.997548e+02,1.048504e+04
6.026475e+02,1.047926e+04
6.055402e+02,1.046651e+04
6.084329e+02,1.052297e+04
6.113256e+02,1.054731e+04
6.142183e+02,1.051279e+04
6.171110e+02,1.046363e+04
6.200037e+02,1.046314e+04
6.228964e+02,1.044489e+04
6.257891e+02,1.047209e+04
6.286818e+02,1.047897e+04
6.315745e+02,1.045538e+04
6.344672e+02,1.047713e+04
6.373599e+02,1.046647e+04
6.402526e+02,1.048352e+04
6.431453e+02,1.045549e+04
6.460380e+02,1.039979e+04
6.489307e+02,1.041410e+04
6.518234e+02,1.045243e+04
6.547161e+02,1.046468e+04
6.576088e+02,1.042873e+04
6.605015e+02,1.043220e+04
6.633942e+02,1.040282e+04
6.662869e+02,1.041573e+04
6.691796e+02,1.046861e+04
6.720723e+02,1.047565e+04
6.749650e+02,1.043784e+04
6.778577e+02,1.040644e+04
6.807504e+02,1.037996e+04
6.836431e+02,1.040357e+04
6.865358e+02,1.039151e+04
6.894285e+02,1.039321e+04
6.923212e+02,1.036555e+04
6.952139e+02,1.035808e+04
6.981066e+02,1.042703e+04
7.009993e+02,1.037941e+04
7.038920e+02,1.034356e+04
7.067847e+02,1.035608e+04
7.096774e+02,1.036445e+04
7.125701e+02,1.038437e+04
7.154628e+02,1.037092e+04
7.183555e+02,1.036626e+04
7.212482e+02,1.035258e+04
7.241409e+02,1.034434e+04
7.270336e+02,1.033034e+04
7.299263e+02,1.035184e+04
7.328190e+02,1.031806e+04
7.357117e+02,1.031605e+04
7.386044e+02,1.032609e+04
7.414971e+02,1.031070e+04
7.443898e+02,1.036034e+04
7.472825e+02,1.034394e+04
7.501752e+02,1.034450e+04
7.530679e+02,1.033194e+04
7.559606e+02,1.033690e+04
7.588533e+02,1.033709e+04
7.617460e+02,1.033824e+04
7.646387e+02,1.030439e+04
7.675314e+02,1.032275e+04
7.704241e+02,1.026633e+04
7.733168e+02,1.029981e+04
7.762095e+02,1.032750e+04
7.791022e+02,1.031671e+04
7.819949e+02,1.025928e+04
7.848876e+02,1.029262e+04
7.877803e+02,1.028250e+04
7.906730e+02,1.027716e+04
7.935657e+02,1.028749e+04
7.964584e+02,1.025092e+04
7.993511e+02,1.022181e+04
8.022438e+02,1.020941e+04
8.051365e+02,1.022900e+04
8.080292e+02,1.021164e+04
8.109219e+02,1.018531e+04
8.138146e+02,1.016088e+04
8.167073e+02,1.015795e+04
8.196000e+02,1.015479e+04
8.224927e+02,1.017679e+04
8.253854e+02,1.015134e+04
8.282781e+02,1.010513e+04
8.311708e+02,1.014236e+04
8.340635e+02,1.015215e+04
8.369562e+02,1.011947e+04
8.398489e+02,1.012569e+04
8.427416e+02,1.011079e+04
8.456343e+02,1.008683e+04
8.485270e+02,1.008853e+04
8.514197e+02,1.007494e+04
8.543124e+02,1.007622e+04
8.572051e+02,1.007131e+04
8.600978e+02,1.004009e+04
8.629905e+02,1.002814e+04
8.658832e+02,1.003548e+04
8.687759e+02,1.004805e+04
8.716686e+02,1.002350e+04
8.745613e+02,9.976418e+03
8.774540e+02,9.967536e+03
8.803467e+02,9.949875e+03
8.832394e+02,9.966981e+03
8.861321e+02,9.935524e+03
8.890248e+02,9.917135e+03
8.919175e+02,9.916048e+03
8.948102e+02,9.900446e+03
8.977029e+02,9.895241e+03
9.005956e+02,9.904145e+03
9.034883e+02,9.872638e+03
9.063810e+02,9.849144e+03
9.092737e+02,9.833212e+03
9.121664e+02,9.818931e+03
9.150591e+02,9.782339e+03
9.179518e+02,9.798215e+03
9.208445e+02,9.737786e+03
9.237372e+02,9.702359e+03
9.266299e+02,9.762284e+03
9.295226e+02,9.731793e+03
9.324153e+02,9.715878e+03
9.353080e+02,9.702902e+03
9.382007e+02,9.676001e+03
9.410934e+02,9.644045e+03
9.439861e+02,9.631438e+03
9.468788e+02,9.655141e+03
9.497715e+02,9.660073e+03
9.526642e+02,9.631065e+03
9.555569e+02,9.594755e+03
9.584496e+02,9.577362e+03
9.613423e+02,9.579690e+03
9.642350e+02,9.585893e+03
9.671277e+02,9.544531e+03
9.700204e+02,9.536562e+03
9.729131e+02,9.522825e+03
9.758058e+02,9.499615e+03
9.786985e+02,9.516021e+03
9.815912e+02,9.470550e+03
9.844839e+02,9.470104e+03
9.873766e+02,9.450622e+03
9.902693e+02,9.436083e+03
9.931620e+02,9.431075e+03
9.960547e+02,9.435576e+03
9.989474e+02,9.440432e+03
1.001840e+03,9.361796e+03
1.004733e+03,9.367170e+03
1.007626e+03,9.364728e+03
1.010518e+03,9.380638e+03
1.013411e+03,9.325799e+03
1.016304e+03,9.312223e+03
1.019196e+03,9.296158e+03
1.022089e+03,9.275176e+03
1.024982e+03,9.276618e+03
1.027875e+03,9.243368e+03
1.030767e+03,9.230361e+03
1.033660e+03,9.238032e+03
1.036552e+03,9.243790e+03
1.039445e+03,9.230910e+03
1.042338e+03,9.212271e+03
1.045231e+03,9.203879e+03
1.048123e+03,9.174361e+03
1.051016e+03,9.151752e+03
1.053909e+03,9.173045e+03
1.056802e+03,9.166607e+03
1.059694e+03,9.124204e+03
1.062587e+03,9.101693e+03
1.065479e+03,9.109105e+03
1.068372e+03,9.111776e+03
1.071265e+03,9.101384e+03
1.074158e+03,9.109782e+03
1.077050e+03,9.080310e+03
1.079943e+03,9.045037e+03
1.082836e+03,9.108418e+03
1.085729e+03,9.071355e+03
1.088621e+03,9.049010e+03
1.091514e+03,9.032298e+03
1.094406e+03,8.987208e+03
1.097299e+03,8.958399e+03
1.100192e+03,8.946388e+03
1.103085e+03,8.919732e+03
1.105977e+03,8.888135e+03
1.108870e+03,8.863947e+03
1.111763e+03,8.819504e+03
1.114656e+03,8.831672e+03
1.117548e+03,8.857979e+03
1.120441e+03,8.820794e+03
1.123334e+03,8.815257e+03
1.126226e+03,8.768007e+03
1.129119e+03,8.751132e+03
1.132012e+03,8.750879e+03
1.134904e+03,8.735991e+03
1.137797e+03,8.683152e+03
1.140690e+03,8.689315e+03
1.143583e+03,8.679194e+03
1.146475e+03,8.666588e+03
1.149368e+03,8.670106e+03
1.152261e+03,8.650978e+03
1.155153e+03,8.574122e+03
1.158046e+03,8.565135e+03
1.160939e+03,8.569952e+03
1.163831e+03,8.597929e+03
1.166724e+03,8.539116e+03
1.169617e+03,8.526521e+03
1.172510e+03,8.490482e+03
1.175402e+03,8.489694e+03
1.178295e+03,8.514604e+03
1.181188e+03,8.477855e+03
1.184080e+03,8.450678e+03
1.186973e+03,8.430534e+03
1.189866e+03,8.430624e+03
1.192758e+03,8.448341e+03
1.195651e+03,8.439193e+03
1.198544e+03,8.416266e+03
1.201437e+03,8.397017e+03
1.204329e+03,8.346900e+03
1.207222e+03,8.336651e+03
1.210115e+03,8.353226e+03
1.213007e+03,8.356178e+03
1.215900e+03,8.316281e+03
1.218793e+03,8.330487e+03
1.221685e+03,8.343439e+03
1.224578e+03,8.346949e+03
1.227471e+03,8.318279e+03
1.230364e+03,8.277227e+03
1.233256e+03,8.231831e+03
1.236149e+03,8.204770e+03
1.239042e+03,8.219839e+03
1.241934e+03,8.224994e+03
1.244827e+03,8.178413e+03
1.247720e+03,8.162669e+03
1.250612e+03,8.130665e+03
1.253505e+03,8.110553e+03
1.256398e+03,8.097982e+03
1.259291e+03,8.085613e+03
1.262183e+03,8.061052e+03
1.265076e+03,8.044001e+03
1.267969e+03,8.021130e+03
1.270861e+03,8.039341e+03
1.273754e+03,8.036626e+03
1.276647e+03,8.030976e+03
1.279539e+03,7.975380e+03
1.282432e+03,7.953429e+03
1.285325e+03,7.969401e+03
1.288218e+03,7.926717e+03
1.291110e+03,7.944573e+03
1.294003e+03,7.931428e+03
1.296896e+03,7.881304e+03
1.299788e+03,7.903161e+03
1.302681e+03,7.893963e+03
1.305574e+03,7.904835e+03
1.308466e+03,7.924535e+03
1.311359e+03,7.904700e+03
1.314252e+03,7.843727e+03
1.317145e+03,7.835388e+03
1.320037e+03,7.852448e+03
1.322930e+03,7.818505e+03
1.325823e+03,7.800199e+03
1.328715e+03,7.759372e+03
1.331608e+03,7.794168e+03
1.334501e+03,7.795184e+03
1.337393e+03,7.777500e+03
1.340286e+03,7.753376e+03
1.343179e+03,7.727500e+03
1.346072e+03,7.722670e+03
1.348964e+03,7.715817e+03
1.351857e+03,7.717299e+03
1.354750e+03,7.707055e+03
1.357642e+03,7.655319e+03
1.360535e+03,7.722328e+03
1.363428e+03,7.692178e+03
1.366320e+03,7.703932e+03
1.369213e+03,7.667903e+03
1.372106e+03,7.630504e+03
1.374999e+03,7.580762e+03
1.377891e+03,7.596852e+03
1.380784e+03,7.572643e+03
1.383677e+03,7.564307e+03
1.386569e+03,7.545537e+03
1.389462e+03,7.526062e+03
1.392355e+03,7.509131e+03
1.395247e+03,7.509573e+03
1.398140e+03,7.511151e+03
1.401033e+03,7.500865e+03
1.403926e+03,7.452531e+03
1.406818e+03,7.444829e+03
1.409711e+03,7.441383e+03
1.412604e+03,7.454898e+03
1.415496e+03,7.409932e+03
1.418389e+03,7.384815e+03
1.421282e+03,7.347603e+03
1.424174e+03,7.351479e+03
1.427067e+03,7.352062e+03
1.429960e+03,7.368333e+03
1.432853e+03,7.343141e+03
1.435745e+03,7.289052e+03
1.438638e+03,7.299990e+03
1.441531e+03,7.286408e+03
1.444423e+03,7.284662e+03
1.447316e+03,7.250514e+03
1.450209e+03,7.255247e+03
1.453101e+03,7.253116e+03
1.455994e+03,7.281478e+03
1.458887e+03,7.269238e+03
1.461780e+03,7.247951e+03
1.464672e+03,7.253478e+03
1.467565e+03,7.170114e+03
1.470458e+03,7.184978e+03
1.473350e+03,7.155531e+03
1.476243e+03,7.135038e+03
1.479136e+03,7.144412e+03
1.482028e+03,7.151341e+03
1.484921e+03,7.065015e+03
1.487814e+03,7.062676e+03
1.490707e+03,7.063143e+03
1.493599e+03,7.034578e+03
1.496492e+03,7.021562e+03
1.499385e+03,6.992542e+03
1.502277e+03,7.042073e+03
1.505170e+03,6.998236e+03
1.508063e+03,6.992616e+03
1.510955e+03,6.981588e+03
1.513848e+03,6.958784e+03
1.516741e+03,6.929713e+03
1.519634e+03,6.944319e+03
1.522526e+03,6.954775e+03
1.525419e+03,6.919647e+03
1.528312e+03,6.906042e+03
1.531204e+03,6.873284e+03
1.534097e+03,6.858481e+03
1.536990e+03,6.867083e+03
1.539882e+03,6.840964e+03
1.542775e+03,6.844621e+03
1.545668e+03,6.814437e+03
1.548561e+03,6.835797e+03
1.551453e+03,6.839075e+03
1.554346e+03,6.828766e+03
1.557239e+03,6.808345e+03
1.560131e+03,6.875075e+03
1.563024e+03,6.925172e+03
1.565917e+03,7.010692e+03
1.568809e+03,7.145375e+03
1.571702e+03,7.198735e+03
1.574595e+03,7.116833e+03
1.577488e+03,6.989410e+03
1.580380e+03,6.972316e+03
1.583273e+03,6.971116e+03
1.586166e+03,6.870156e+03
1.589058e+03,6.777304e+03
1.591951e+03,6.695405e+03
1.594844e+03,6.682144e+03
1.597736e+03,6.647382e+03
1.600629e+03,6.647964e+03
1.603522e+03,6.659104e+03
1.606415e+03,6.607827e+03
1.609307e+03,6.624362e+03
1.612200e+03,6.562784e+03
1.615093e+03,6.581254e+03
1.617985e+03,6.579676e+03
1.620878e+03,6.598754e+03
1.623771e+03,6.537633e+03
1.626663e+03,6.581639e+03
1.629556e+03,6.549514e+03
1.632449e+03,6.550828e+03
1.635342e+03,6.528246e+03
1.638234e+03,6.482602e+03
1.641127e+03,6.459743e+03
1.644020e+03,6.483744e+03
1.646912e+03,6.467811e+03
1.649805e+03,6.451600e+03
1.652698e+03,6.427882e+03
1.655590e+03,6.405795e+03
1.658483e+03,6.392803e+03
1.661376e+03,6.380417e+03
1.664269e+03,6.389163e+03
1.667161e+03,6.378113e+03
1.670054e+03,6.347196e+03
1.672947e+03,6.374045e+03
1.675839e+03,6.348797e+03
1.678732e+03,6.347294e+03
1.681625e+03,6.349237e+03
1.684517e+03,6.318491e+03
1.687410e+03,6.275680e+03
1.690303e+03,6.323822e+03
1.693196e+03,6.279628e+03
1.696088e+03,6.249085e+03
1.698981e+03,6.278663e+03
1.701874e+03,6.255716e+03
1.704766e+03,6.241995e+03
1.707659e+03,6.213561e+03
1.710552e+03,6.226711e+03
1.713444e+03,6.194954e+03
1.716337e+03,6.198458e+03
1.719230e+03,6.160907e+03
1.722123e+03,6.203023e+03
1.725015e+03,6.149260e+03
1.727908e+03,6.156283e+03
1.730801e+03,6.124667e+03
1.733693e+03,6.126547e+03
1.736586e+03,6.171477e+03
1.739479e+03,6.127522e+03
1.742371e+03,6.136416e+03
1.745264e+03,6.104471e+03
1.748157e+03,6.075050e+03
1.751050e+03,6.086231e+03
1.753942e+03,6.082710e+03
1.756835e+03,6.091460e+03
1.759728e+03,6.047622e+03
1.762620e+03,6.043076e+03
1.765513e+03,6.032336e+03
1.768406e+03,6.058052e+03
1.771298e+03,6.017792e+03
1.774191e+03,6.007145e+03
1.777084e+03,5.990256e+03
1.779977e+03,5.960460e+03
1.782869e+03,5.982782e+03
1.785762e+03,5.959634e+03
1.788655e+03,5.965890e+03
1.791547e+03,5.930951e+03
1.794440e+03,5.947333e+03
1.797333e+03,5.916154e+03
1.800225e+03,5.937384e+03
1.803118e+03,5.879889e+03
1.806011e+03,5.876412e+03
1.808904e+03,5.898803e+03
1.811796e+03,5.897431e+03
1.814689e+03,5.869159e+03
1.817582e+03,5.874864e+03
1.820474e+03,5.859903e+03
1.823367e+03,5.832833e+03
1.826260e+03,5.758891e+03
1.829152e+03,5.815743e+03
1.832045e+03,5.835625e+03
1.834938e+03,5.791685e+03
1.837831e+03,5.770248e+03
1.840723e+03,5.769683e+03
1.843616e+03,5.776579e+03
1.846509e+03,5.789522e+03
1.849401e+03,5.779288e+03
1.852294e+03,5.720360e+03
1.855187e+03,5.723244e+03
1.858079e+03,5.714774e+03
1.860972e+03,5.716296e+03
1.863865e+03,5.686399e+03
1.866758e+03,5.695458e+03
1.869650e+03,5.674788e+03
1.872543e+03,5.671611e+03
1.875436e+03,5.671904e+03
1.878328e+03,5.678459e+03
1.881221e+03,5.649708e+03
1.884114e+03,5.610634e+03
1.887006e+03,5.613725e+03
1.889899e+03,5.607827e+03
1.892792e+03,5.580771e+03
1.895685e+03,5.579920e+03
1.898577e+03,5.556280e+03
1.901470e+03,5.548239e+03
1.904363e+03,5.551904e+03
1.907255e+03,5.584953e+03
1.910148e+03,5.552562e+03
1.913041e+03,5.543748e+03
1.915933e+03,5.517497e+03
1.918826e+03,5.470866e+03
1.921719e+03,5.502974e+03
1.924612e+03,5.493422e+03
1.927504e+03,5.479737e+03
1.930397e+03,5.451173e+03
1.933290e+03,5.466292e+03
1.936182e+03,5.442884e+03
1.939075e+03,5.453299e+03
1.941968e+03,5.442190e+03
1.944860e+03,5.431636e+03
1.947753e+03,5.414720e+03
1.950646e+03,5.399052e+03
1.953539e+03,5.392288e+03
1.956431e+03,5.361231e+03
1.959324e+03,5.358484e+03
1.962217e+03,5.386146e+03
1.965109e+03,5.308970e+03
1.968002e+03,5.351150e+03
1.970895e+03,5.319685e+03
1.973787e+03,5.315521e+03
1.976680e+03,5.278683e+03
1.979573e+03,5.307977e+03
1.982466e+03,5.261931e+03
1.985358e+03,5.282998e+03
1.988251e+03,5.248460e+03
1.991144e+03,5.235439e+03
1.994036e+03,5.229984e+03
1.996929e+03,5.234780e+03
1.999822e+03,5.229649e+03
2.002714e+03,5.240583e+03
2.005607e+03,5.205651e+03
2.008500e+03,5.188107e+03
2.011393e+03,5.156346e+03
2.014285e+03,5.167995e+03
2.017178e+03,5.137798e+03
2.020071e+03,5.136071e+03
2.022963e+03,5.115948e+03
2.025856e+03,5.091998e+03
2.028749e+03,5.100595e+03
2.031641e+03,5.090234e+03
2.034534e+03,5.098576e+03
2.037427e+03,5.044943e+03
2.040320e+03,5.029814e+03
2.043212e+03,5.017105e+03
2.046105e+03,5.043085e+03
2.048998e+03,5.037747e+03
2.051890e+03,5.019818e+03
2.054783e+03,4.961756e+03
2.057676e+03,4.985099e+03
2.060568e+03,4.974514e+03
2.063461e+03,4.979916e+03
2.066354e+03,4.942877e+03
2.069247e+03,4.935727e+03
2.072139e+03,4.927741e+03
2.075032e+03,4.938271e+03
2.077925e+03,4.928344e+03
2.080817e+03,4.912838e+03
2.083710e+03,4.893023e+03
2.086603e+03,4.864702e+03
2.089496e+03,4.885107e+03
2.092388e+03,4.848721e+03
2.095281e+03,4.852698e+03
2.098174e+03,4.848288e+03
2.101066e+03,4.817494e+03
2.103959e+03,4.811289e+03
2.106852e+03,4.797785e+03
2.109744e+03,4.797495e+03
2.112637e+03,4.784565e+03
2.115530e+03,4.749361e+03
2.118422e+03,4.713602e+03
2.121315e+03,4.780027e+03
2.124208e+03,4.761627e+03
2.127101e+03,4.754516e+03
2.129993e+03,4.701282e+03
2.132886e+03,4.681715e+03
2.135779e+03,4.700050e+03
2.138671e+03,4.683231e+03
2.141564e+03,4.664878e+03
2.144457e+03,4.673391e+03
2.147350e+03,4.636002e+03
2.150242e+03,4.647929e+03
2.153135e+03,4.636989e+03
2.156028e+03,4.608502e+03
2.158920e+03,4.593411e+03
2.161813e+03,4.604147e+03
2.164706e+03,4.554779e+03
2.167598e+03,4.536554e+03
2.170491e+03,4.583405e+03
2.173384e+03,4.565639e+03
2.176277e+03,4.541123e+03
2.179169e+03,4.493894e+03
2.182062e+03,4.527006e+03
2.184955e+03,4.501750e+03
2.187847e+03,4.499899e+03
2.190740e+03,4.483442e+03
2.193633e+03,4.412814e+03
2.196525e+03,4.467753e+03
2.199418e+03,4.423218e+03
2.202311e+03,4.444108e+03
2.205204e+03,4.428823e+03
2.208096e+03,4.400158e+03
2.210989e+03,4.365445e+03
2.213882e+03,4.370601e+03
2.216774e+03,4.392019e+03
2.219667e+03,4.352012e+03
2.222560e+03,4.336756e+03
2.225452e+03,4.288140e+03
2.228345e+03,4.284485e+03
2.231238e+03,4.335355e+03
2.234131e+03,4.325606e+03
2.237023e+03,4.322616e+03
2.239916e+03,4.276415e+03
2.242809e+03,4.249611e+03
2.245701e+03,4.231578e+03
2.248594e+03,4.247774e+03
2.251487e+03,4.215904e+03
2.254379e+03,4.211987e+03
2.257272e+03,4.210124e+03
2.260165e+03,4.149280e+03
2.263058e+03,4.163498e+03
2.265950e+03,4.169554e+03
2.268843e+03,4.139786e+03
2.271736e+03,4.139583e+03
2.274628e+03,4.076311e+03
2.277521e+03,4.106431e+03
2.280414e+03,4.130909e+03
2.283306e+03,4.084245e+03
2.286199e+03,4.073432e+03
2.289092e+03,4.057090e+03
2.291985e+03,4.054447e+03
2.294877e+03,4.051500e+03
2.297770e+03,4.065242e+03
2.300663e+03,4.064524e+03
2.303555e+03,4.011887e+03
2.306448e+03,4.047324e+03
2.309341e+03,4.003802e+03
2.312233e+03,3.994159e+03
2.315126e+03,3.984420e+03
2.318019e+03,3.974806e+03
2.320912e+03,3.965235e+03
2.323804e+03,3.942888e+03
2.326697e+03,3.974932e+03
2.329590e+03,3.944290e+03
2.332482e+03,3.905094e+03
2.335375e+03,3.912981e+03
2.338268e+03,3.890636e+03
2.341160e+03,3.893340e+03
2.344053e+03,3.902199e+03
2.346946e+03,3.880519e+03
2.349839e+03,3.851379e+03
2.352731e+03,3.836647e+03
2.355624e+03,3.852248e+03
2.358517e+03,3.838070e+03
2.361409e+03,3.841459e+03
2.364302e+03,3.818719e+03
2.367195e+03,3.771001e+03
2.370087e+03,3.767378e+03
2.372980e+03,3.792939e+03
2.375873e+03,3.779877e+03
2.378766e+03,3.784625e+03
2.381658e+03,3.751661e+03
2.384551e+03,3.736352e+03
2.387444e+03,3.741488e+03
2.390336e+03,3.729301e+03
2.393229e+03,3.713188e+03
2.396122e+03,3.667669e+03
2.399014e+03,3.685901e+03
2.401907e+03,3.693586e+03
2.404800e+03,3.666529e+03
2.407693e+03,3.676165e+03
2.410585e+03,3.642109e+03
2.413478e+03,3.602671e+03
2.416371e+03,3.622400e+03
2.419263e+03,3.619523e+03
2.422156e+03,3.604019e+03
2.425049e+03,3.616129e+03
2.427941e+03,3.572369e+03
2.430834e+03,3.584452e+03
2.433727e+03,3.591200e+03
2.436620e+03,3.562800e+03
2.439512e+03,3.550922e+03
2.442405e+03,3.519970e+03
2.445298e+03,3.516516e+03
2.448190e+03,3.535272e+03
2.451083e+03,3.538972e+03
2.453976e+03,3.497505e+03
2.456868e+03,3.488614e+03
2.459761e+03,3.488444e+03
2.462654e+03,3.448695e+03
2.465547e+03,3.464229e+03
2.468439e+03,3.457399e+03
2.471332e+03,3.432987e+03
2.474225e+03,3.450749e+03
2.477117e+03,3.415892e+03
2.480010e+03,3.420205e+03
2.482903e+03,3.398790e+03
2.485795e+03,3.398746e+03
2.488688e+03,3.379611e+03
2.491581e+03,3.395975e+03
2.494474e+03,3.344527e+03
2.497366e+03,3.369174e+03
2.500259e+03,3.348088e+03
2.503152e+03,3.341207e+03
2.506044e+03,3.339408e+03
2.508937e+03,3.320456e+03
2.511830e+03,3.329014e+03
2.514722e+03,3.328474e+03
2.517615e+03,3.327765e+03
2.520508e+03,3.281063e+03
2.523401e+03,3.268454e+03
2.526293e+03,3.282661e+03
2.529186e+03,3.277499e+03
2.532079e+03,3.254561e+03
2.534971e+03,3.240137e+03
2.537864e+03,3.232655e+03
2.540757e+03,3.244183e+03
2.543649e+03,3.223992e+03
2.546542e+03,3.250948e+03
2.549435e+03,3.208552e+03
2.552328e+03,3.199789e+03
2.555220e+03,3.208931e+03
2.558113e+03,3.182679e+03
2.561006e+03,3.191591e+03
2.563898e+03,3.169227e+03
2.566791e+03,3.165849e+03
2.569684e+03,3.133071e+03
2.572576e+03,3.143692e+03
2.575469e+03,3.144503e+03
2.578362e+03,3.118840e+03
2.581255e+03,3.118642e+03
2.584147e+03,3.102674e+03
2.587040e+03,3.106919e+03
2.589933e+03,3.109257e+03
2.592825e+03,3.094348e+03
2.595718e+03,3.105778e+03
2.598611e+03,3.073750e+03
2.601503e+03,3.053678e+03
2.604396e+03,3.057214e+03
2.607289e+03,3.056677e+03
2.610182e+03,3.037687e+03
2.613074e+03,3.043968e+03
2.615967e+03,3.029050e+03
2.618860e+03,3.006090e+03
2.621752e+03,2.996605e+03
2.624645e+03,3.003213e+03
2.627538e+03,2.974103e+03
2.630430e+03,2.977782e+03
2.633323e+03,3.005464e+03
2.636216e+03,2.978290e+03
2.639109e+03,2.995785e+03
2.642001e+03,2.968321e+03
2.644894e+03,2.952210e+03
2.647787e+03,2.944082e+03
2.650679e+03,2.930496e+03
2.653572e+03,2.948984e+03
2.656465e+03,2.908819e+03
2.659357e+03,2.900869e+03
2.662250e+03,2.925132e+03
2.665143e+03,2.932713e+03
2.668036e+03,2.885180e+03
2.670928e+03,2.902523e+03
2.673821e+03,2.890443e+03
2.676714e+03,2.901983e+03
2.679606e+03,2.886294e+03
2.682499e+03,2.874648e+03
2.685392e+03,2.865793e+03
2.688284e+03,2.862789e+03
2.691177e+03,2.842102e+03
2.694070e+03,2.837255e+03
2.696963e+03,2.854069e+03
2.699855e+03,2.818071e+03
2.702748e+03,2.819363e+03
2.705641e+03,2.789842e+03
2.708533e+03,2.805199e+03
2.711426e+03,2.777282e+03
2.714319e+03,2.801870e+03
2.717211e+03,2.813685e+03
2.720104e+03,2.794964e+03
2.722997e+03,2.768652e+03
2.725890e+03,2.757686e+03
2.728782e+03,2.786220e+03
2.731675e+03,2.752878e+03
2.734568e+03,2.739748e+03
2.737460e+03,2.749856e+03
2.740353e+03,2.717896e+03
2.743246e+03,2.731574e+03
2.746138e+03,2.706668e+03
2.749031e+03,2.724012e+03
2.751924e+03,2.716816e+03
2.754817e+03,2.712626e+03
2.757709e+03,2.719980e+03
2.760602e+03,2.681345e+03
2.763495e+03,2.695302e+03
2.766387e+03,2.684196e+03
2.769280e+03,2.684990e+03
2.772173e+03,2.649288e+03
2.775065e+03,2.662211e+03
2.777958e+03,2.663664e+03
2.780851e+03,2.654460e+03
2.783744e+03,2.658877e+03
2.786636e+03,2.650576e+03
2.789529e+03,2.629891e+03
2.792422e+03,2.623552e+03
2.795314e+03,2.612699e+03
2.798207e+03,2.613682e+03
2.801100e+03,2.608163e+03
2.803992e+03,2.601016e+03
2.806885e+03,2.587194e+03
2.809778e+03,2.604461e+03
2.812671e+03,2.605684e+03
2.815563e+03,2.603912e+03
2.818456e+03,2.539757e+03
2.821349e+03,2.542798e+03
2.824241e+03,2.560290e+03
2.827134e+03,2.555030e+03
2.830027e+03,2.571861e+03
2.832919e+03,2.581635e+03
2.835812e+03,2.523944e+03
2.838705e+03,2.502803e+03
2.841598e+03,2.538668e+03
2.844490e+03,2.537207e+03
2.847383e+03,2.529022e+03
2.850276e+03,2.524384e+03
2.853168e+03,2.548006e+03
2.856061e+03,2.530833e+03
2.858954e+03,2.502728e+03
2.861846e+03,2.524221e+03
2.864739e+03,2.514188e+03
2.867632e+03,2.515781e+03
2.870525e+03,2.491679e+03
2.873417e+03,2.485737e+03
2.876310e+03,2.518234e+03
2.879203e+03,2.494448e+03
2.882095e+03,2.464831e+03
2.884988e+03,2.511396e+03
2.887881e+03,2.461949e+03
2.890773e+03,2.473453e+03
2.893666e+03,2.471138e+03
2.896559e+03,2.458166e+03
2.899452e+03,2.480571e+03
2.902344e+03,2.460480e+03
2.905237e+03,2.457955e+03
2.908130e+03,2.451126e+03
2.911022e+03,2.447836e+03
2.913915e+03,2.401313e+03
2.916808e+03,2.442757e+03
2.919700e+03,2.375413e+03
2.922593e+03,2.390361e+03
2.925486e+03,2.397172e+03
2.928379e+03,2.425020e+03
2.931271e+03,2.402293e+03
2.934164e+03,2.396166e+03
2.937057e+03,2.384290e+03
2.939949e+03,2.335015e+03
2.942842e+03,2.364476e+03
2.945735e+03,2.360746e+03
2.948627e+03,2.332802e+03
2.951520e+03,2.377733e+03
2.954413e+03,2.364990e+03
2.957306e+03,2.389733e+03
2.960198e+03,2.327753e+03
2.963091e+03,2.353186e+03
2.965984e+03,2.304454e+03
2.968876e+03,2.347911e+03
2.971769e+03,2.273834e+03
2.974662e+03,2.277373e+03
2.977554e+03,2.305806e+03
2.980447e+03,2.292976e+03
2.983340e+03,2.290850e+03
2.986233e+03,2.307399e+03
2.989125e+03,2.248571e+03
2.992018e+03,2.234357e+03
2.994911e+03,2.249296e+03
2.997803e+03,2.287243e+03
3.000696e+03,2.240880e+03
3.003589e+03,2.281958e+03
3.006481e+03,2.226295e+03
3.009374e+03,2.241113e+03
3.012267e+03,2.278587e+03
3.015160e+03,2.262342e+03
3.018052e+03,2.215671e+03
3.020945e+03,2.240124e+03
3.023838e+03,2.244392e+03
3.026730e+03,2.191194e+03
3.029623e+03,2.218117e+03
3.032516e+03,2.194113e+03
3.035408e+03,2.210164e+03
3.038301e+03,2.233475e+03
3.041194e+03,2.252324e+03
3.044087e+03,2.226694e+03
3.046979e+03,2.169007e+03
3.049872e+03,2.212681e+03
3.052765e+03,2.205096e+03
3.055657e+03,2.223738e+03
3.058550e+03,2.179631e+03
3.061443e+03,2.196794e+03
3.064335e+03,2.225475e+03
3.067228e+03,2.190168e+03
3.070121e+03,2.165273e+03
3.073014e+03,2.184918e+03
3.075906e+03,2.146058e+03
3.078799e+03,2.212518e+03
3.081692e+03,2.204353e+03
3.084584e+03,2.189790e+03
3.087477e+03,2.157086e+03
3.090370e+03,2.172476e+03
3.093262e+03,2.122636e+03
3.096155e+03,2.146241e+03
3.099048e+03,2.163482e+03
3.101941e+03,2.139479e+03
3.104833e+03,2.146079e+03
3.107726e+03,2.138801e+03
3.110619e+03,2.105817e+03
3.113511e+03,2.140031e+03
3.116404e+03,2.130234e+03
3.119297e+03,2.119466e+03
3.122189e+03,2.152759e+03
3.125082e+03,2.156170e+03
3.127975e+03,2.132788e+03
3.130868e+03,2.160640e+03
3.133760e+03,2.115854e+03
3.136653e+03,2.081431e+03
3.139546e+03,2.137059e+03
3.142438e+03,2.101214e+03
3.145331e+03,2.126177e+03
3.148224e+03,2.131362e+03
3.151116e+03,2.100440e+03
3.154009e+03,2.189437e+03
3.156902e+03,2.104881e+03
3.159795e+03,2.066553e+03
3.162687e+03,2.113648e+03
3.165580e+03,2.144131e+03
3.168473e+03,2.115453e+03
3.171365e+03,2.132971e+03
3.174258e+03,2.065911e+03
3.177151e+03,2.112004e+03
3.180043e+03,2.144576e+03
3.182936e+03,2.138952e+03
3.185829e+03,2.087153e+03
3.188722e+03,2.138047e+03
3.191614e+03,2.125515e+03
3.194507e+03,2.160729e+03
3.197400e+03,2.142749e+03
3.200292e+03,2.058010e+03
3.203185e+03,0.000000e+00
3.206078e+03,0.000000e+00
3.208970e+03,0.000000e+00
3.211863e+03,0.000000e+00
3.214756e+03,0.000000e+00
3.217649e+03,0.000000e+00
3.220541e+03,0.000000e+00
3.223434e+03,0.000000e+00
3.226327e+03,0.000000e+00
3.229219e+03,0.000000e+00
3.232112e+03,0.000000e+00
3.235005e+03,0.000000e+00
3.237897e+03,0.000000e+00
3.240790e+03,0.000000e+00
3.243683e+03,0.000000e+00
3.246576e+03,0.000000e+00
3.249468e+03,0.000000e+00
3.252361e+03,0.000000e+00
3.255254e+03,0.000000e+00
3.258146e+03,0.000000e+00
3.261039e+03,0.000000e+00
3.263932e+03,0.000000e+00
3.266824e+03,0.000000e+00
3.269717e+03,0.000000e+00
3.272610e+03,0.000000e+00
3.275503e+03,0.000000e+00
3.278395e+03,0.000000e+00
3.281288e+03,0.000000e+00
3.284181e+03,0.000000e+00
3.287073e+03,0.000000e+00
3.289966e+03,0.000000e+00
3.292859e+03,0.000000e+00
3.295751e+03,0.000000e+00
3.298644e+03,0.000000e+00
3.301537e+03,0.000000e+00
3.304430e+03,0.000000e+00
3.307322e+03,0.000000e+00
3.310215e+03,0.000000e+00
3.313108e+03,0.000000e+00
3.316000e+03,0.000000e+00
3.318893e+03,0.000000e+00
3.321786e+03,0.000000e+00
3.324678e+03,0.000000e+00
3.327571e+03,0.000000e+00
3.330464e+03,0.000000e+00
3.333357e+03,0.000000e+00
3.336249e+03,0.000000e+00
3.339142e+03,0.000000e+00
3.342035e+03,0.000000e+00
3.344927e+03,0.000000e+00
3.347820e+03,0.000000e+00
3.350713e+03,0.000000e+00
3.353605e+03,0.000000e+00
3.356498e+03,0.000000e+00
3.359391e+03,0.000000e+00
3.362284e+03,0.000000e+00
3.365176e+03,0.000000e+00
3.368069e+03,0.000000e+00
3.370962e+03,0.000000e+00
3.373854e+03,0.000000e+00
3.376747e+03,0.000000e+00
3.379640e+03,0.000000e+00
3.382532e+03,0.000000e+00
3.385425e+03,0.000000e+00
3.388318e+03,0.000000e+00
3.391211e+03,0.000000e+00
3.394103e+03,0.000000e+00
3.396996e+03,0.000000e+00
3.399889e+03,0.000000e+00
3.402781e+03,0.000000e+00
3.405674e+03,0.000000e+00
3.408567e+03,0.000000e+00
3.411459e+03,0.000000e+00
3.414352e+03,0.000000e+00
3.417245e+03,0.000000e+00
3.420138e+03,0.000000e+00
3.423030e+03,0.000000e+00
3.425923e+03,0.000000e+00
3.428816e+03,0.000000e+00
3.431708e+03,0.000000e+00
3.434601e+03,0.000000e+00
3.437494e+03,0.000000e+00
3.440386e+03,0.000000e+00
3.443279e+03,0.000000e+00
3.446172e+03,0.000000e+00
3.449065e+03,0.000000e+00
3.451957e+03,0.000000e+00
3.454850e+03,0.000000e+00
3.457743e+03,0.000000e+00
3.460635e+03,0.000000e+00
3.463528e+03,0.000000e+00
3.466421e+03,0.000000e+00
3.469313e+03,0.000000e+00
3.472206e+03,0.000000e+00
3.475099e+03,0.000000e+00
3.477992e+03,0.000000e+00
3.480884e+03,0.000000e+00
3.483777e+03,0.000000e+00
3.486670e+03,0.000000e+00
3.489563e+03,0.000000e+00
3.492455e+03,0.000000e+00
3.495348e+03,0.000000e+00
3.498240e+03,0.000000e+00
3.500169e+03,0.000000e+00