File: RAMAN_data/12022024_r2/blue fibre2.CSV
9.931763e+01,0.000000e+00
1.022103e+02,0.000000e+00
1.051030e+02,0.000000e+00
1.079957e+02,0.000000e+00
1.108884e+02,0.000000e+00
1.137811e+02,0.000000e+00
1.166738e+02,0.000000e+00
1.195665e+02,0.000000e+00
1.224592e+02,0.000000e+00
1.253519e+02,0.000000e+00
1.282446e+02,0.000000e+00
1.311373e+02,0.000000e+00
1.340300e+02,0.000000e+00
1.369227e+02,0.000000e+00
1.398154e+02,0.000000e+00
1.427081e+02,0.000000e+00
1.456008e+02,0.000000e+00
1.484935e+02,0.000000e+00
1.513862e+02,0.000000e+00
1.542789e+02,0.000000e+00
1.571716e+02,0.000000e+00
1.600643e+02,0.000000e+00
1.629570e+02,0.000000e+00
1.658497e+02,0.000000e+00
1.687424e+02,0.000000e+00
1.716351e+02,0.000000e+00
1.745278e+02,0.000000e+00
1.774205e+02,0.000000e+00
1.803132e+02,0.000000e+00
1.832059e+02,0.000000e+00
1.860986e+02,0.000000e+00
1.889913e+02,0.000000e+00
1.918840e+02,0.000000e+00
1.947767e+02,0.000000e+00
1.976694e+02,0.000000e+00
2.005621e+02,1.341436e+03
2.034548e+02,1.332216e+03
2.063475e+02,1.334578e+03
2.092402e+02,1.332742e+03
2.121329e+02,1.352250e+03
2.150256e+02,1.336543e+03
2.179183e+02,1.351370e+03
2.208110e+02,1.354809e+03
2.237037e+02,1.353706e+03
2.265964e+02,1.337629e+03
2.294892e+02,1.345751e+03
2.323819e+02,1.356796e+03
2.352746e+02,1.358848e+03
2.381673e+02,1.362162e+03
2.410600e+02,1.357934e+03
2.439527e+02,1.356217e+03
2.468454e+02,1.376527e+03
2.497381e+02,1.376605e+03
2.526308e+02,1.365303e+03
2.555235e+02,1.373615e+03
2.584161e+02,1.369334e+03
2.613088e+02,1.371799e+03
2.642015e+02,1.381006e+03
2.670942e+02,1.385729e+03
2.699869e+02,1.381098e+03
2.728796e+02,1.382834e+03
2.757723e+02,1.385510e+03
2.786650e+02,1.396535e+03
2.815577e+02,1.396061e+03
2.844504e+02,1.382271e+03
2.873431e+02,1.385269e+03
2.902358e+02,1.380041e+03
2.931285e+02,1.373576e+03
2.960212e+02,1.383500e+03
2.989139e+02,1.390287e+03
3.018066e+02,1.384115e+03
3.046993e+02,1.375010e+03
3.075920e+02,1.387843e+03
3.104847e+02,1.391549e+03
3.133774e+02,1.386268e+03
3.162701e+02,1.386999e+03
3.191628e+02,1.388338e+03
3.220555e+02,1.394382e+03
3.249482e+02,1.404093e+03
3.278409e+02,1.406156e+03
3.307336e+02,1.401385e+03
3.336263e+02,1.398297e+03
3.365190e+02,1.392020e+03
3.394117e+02,1.395172e+03
3.423044e+02,1.409965e+03
3.451971e+02,1.407819e+03
3.480898e+02,1.403449e+03
3.509825e+02,1.404652e+03
3.538752e+02,1.413910e+03
3.567680e+02,1.404314e+03
3.596607e+02,1.398335e+03
3.625534e+02,1.409626e+03
3.654461e+02,1.399333e+03
3.683388e+02,1.395300e+03
3.712315e+02,1.405200e+03
3.741242e+02,1.437077e+03
3.770169e+02,1.423600e+03
3.799096e+02,1.427656e+03
3.828023e+02,1.418842e+03
3.856950e+02,1.401746e+03
3.885877e+02,1.402371e+03
3.914804e+02,1.394974e+03
3.943731e+02,1.400405e+03
3.972658e+02,1.382739e+03
4.001585e+02,1.392028e+03
4.030512e+02,1.393768e+03
4.059439e+02,1.389822e+03
4.088366e+02,1.392795e+03
4.117293e+02,1.398028e+03
4.146220e+02,1.389557e+03
4.175147e+02,1.396212e+03
4.204074e+02,1.396945e+03
4.233001e+02,1.399419e+03
4.261928e+02,1.386529e+03
4.290855e+02,1.407370e+03
4.319782e+02,1.411495e+03
4.348709e+02,1.401008e+03
4.377636e+02,1.395712e+03
4.406563e+02,1.394842e+03
4.435490e+02,1.395383e+03
4.464417e+02,1.399727e+03
4.493344e+02,1.395759e+03
4.522271e+02,1.399273e+03
4.551198e+02,1.405864e+03
4.580125e+02,1.398100e+03
4.609052e+02,1.385139e+03
4.637979e+02,1.375085e+03
4.666906e+02,1.378851e+03
4.695833e+02,1.381193e+03
4.724760e+02,1.371556e+03
4.753687e+02,1.374555e+03
4.782614e+02,1.364863e+03
4.811541e+02,1.371178e+03
4.840468e+02,1.374625e+03
4.869395e+02,1.364577e+03
4.898322e+02,1.372296e+03
4.927249e+02,1.372145e+03
4.956176e+02,1.367223e+03
4.985103e+02,1.369885e+03
5.014030e+02,1.376099e+03
5.042957e+02,1.369666e+03
5.071884e+02,1.365675e+03
5.100811e+02,1.365954e+03
5.129738e+02,1.378276e+03
5.158665e+02,1.375244e+03
5.187592e+02,1.367161e+03
5.216519e+02,1.361737e+03
5.245446e+02,1.362978e+03
5.274373e+02,1.358841e+03
5.303300e+02,1.367382e+03
5.332227e+02,1.366096e+03
5.361154e+02,1.357705e+03
5.390081e+02,1.380409e+03
5.419008e+02,1.381420e+03
5.447935e+02,1.377063e+03
5.476862e+02,1.377525e+03
5.505789e+02,1.361436e+03
5.534716e+02,1.361496e+03
5.563643e+02,1.360607e+03
5.592570e+02,1.345809e+03
5.621497e+02,1.360307e+03
5.650424e+02,1.354599e+03
5.679351e+02,1.349333e+03
5.708278e+02,1.344134e+03
5.737205e+02,1.349982e+03
5.766132e+02,1.342657e+03
5.795059e+02,1.331190e+03
5.823986e+02,1.330642e+03
5.852913e+02,1.343957e+03
5.881840e+02,1.336388e+03
5.910767e+02,1.335219e+03
5.939694e+02,1.342342e+03
5.968621e+02,1.344121e+03
5.997548e+02,1.339757e+03
6.026475e+02,1.338045e+03
6.055402e+02,1.336182e+03
6.084329e+02,1.337889e+03
6.113256e+02,1.332388e+03
6.142183e+02,1.318601e+03
6.171110e+02,1.321951e+03
6.200037e+02,1.322750e+03
6.228964e+02,1.328668e+03
6.257891e+02,1.322550e+03
6.286818e+02,1.325192e+03
6.315745e+02,1.323290e+03
6.344672e+02,1.316716e+03
6.373599e+02,1.300016e+03
6.402526e+02,1.312181e+03
6.431453e+02,1.307742e+03
6.460380e+02,1.304647e+03
6.489307e+02,1.304449e+03
6.518234e+02,1.299429e+03
6.547161e+02,1.297603e+03
6.576088e+02,1.297880e+03
6.605015e+02,1.295988e+03
6.633942e+02,1.296357e+03
6.662869e+02,1.298660e+03
6.691796e+02,1.289856e+03
6.720723e+02,1.289720e+03
6.749650e+02,1.281469e+03
6.778577e+02,1.293205e+03
6.807504e+02,1.289740e+03
6.836431e+02,1.280110e+03
6.865358e+02,1.278512e+03
6.894285e+02,1.269522e+03
6.923212e+02,1.280460e+03
6.952139e+02,1.274767e+03
6.981066e+02,1.266211e+03
7.009993e+02,1.264182e+03
7.038920e+02,1.265188e+03
7.067847e+02,1.263833e+03
7.096774e+02,1.267520e+03
7.125701e+02,1.272822e+03
7.154628e+02,1.264233e+03
7.183555e+02,1.259444e+03
7.212482e+02,1.268964e+03
7.241409e+02,1.268167e+03
7.270336e+02,1.246557e+03
7.299263e+02,1.248850e+03
7.328190e+02,1.245433e+03
7.357117e+02,1.257130e+03
7.386044e+02,1.244010e+03
7.414971e+02,1.241855e+03
7.443898e+02,1.245417e+03
7.472825e+02,1.240361e+03
7.501752e+02,1.237776e+03
7.530679e+02,1.243128e+03
7.559606e+02,1.245043e+03
7.588533e+02,1.244512e+03
7.617460e+02,1.239861e+03
7.646387e+02,1.234444e+03
7.675314e+02,1.236362e+03
7.704241e+02,1.220591e+03
7.733168e+02,1.222299e+03
7.762095e+02,1.222857e+03
7.791022e+02,1.220115e+03
7.819949e+02,1.222559e+03
7.848876e+02,1.211394e+03
7.877803e+02,1.216677e+03
7.906730e+02,1.213130e+03
7.935657e+02,1.218546e+03
7.964584e+02,1.213482e+03
7.993511e+02,1.210080e+03
8.022438e+02,1.197946e+03
8.051365e+02,1.195119e+03
8.080292e+02,1.196857e+03
8.109219e+02,1.203571e+03
8.138146e+02,1.198266e+03
8.167073e+02,1.194613e+03
8.196000e+02,1.199939e+03
8.224927e+02,1.189554e+03
8.253854e+02,1.186162e+03
8.282781e+02,1.187591e+03
8.311708e+02,1.193351e+03
8.340635e+02,1.190546e+03
8.369562e+02,1.177299e+03
8.398489e+02,1.179393e+03
8.427416e+02,1.176129e+03
8.456343e+02,1.172532e+03
8.485270e+02,1.170380e+03
8.514197e+02,1.178827e+03
8.543124e+02,1.178454e+03
8.572051e+02,1.159922e+03
8.600978e+02,1.161196e+03
8.629905e+02,1.161367e+03
8.658832e+02,1.163318e+03
8.687759e+02,1.168240e+03
8.716686e+02,1.151959e+03
8.745613e+02,1.157472e+03
8.774540e+02,1.161416e+03
8.803467e+02,1.163594e+03
8.832394e+02,1.164934e+03
8.861321e+02,1.168979e+03
8.890248e+02,1.149448e+03
8.919175e+02,1.142528e+03
8.948102e+02,1.152253e+03
8.977029e+02,1.142194e+03
9.005956e+02,1.137830e+03
9.034883e+02,1.133348e+03
9.063810e+02,1.131157e+03
9.092737e+02,1.141490e+03
9.121664e+02,1.132868e+03
9.150591e+02,1.129348e+03
9.179518e+02,1.127009e+03
9.208445e+02,1.127635e+03
9.237372e+02,1.118677e+03
9.266299e+02,1.127143e+03
9.295226e+02,1.127771e+03
9.324153e+02,1.107046e+03
9.353080e+02,1.111461e+03
9.382007e+02,1.104961e+03
9.410934e+02,1.108696e+03
9.439861e+02,1.102654e+03
9.468788e+02,1.094621e+03
9.497715e+02,1.105634e+03
9.526642e+02,1.095993e+03
9.555569e+02,1.096718e+03
9.584496e+02,1.092464e+03
9.613423e+02,1.096029e+03
9.642350e+02,1.096346e+03
9.671277e+02,1.096549e+03
9.700204e+02,1.098719e+03
9.729131e+02,1.085162e+03
9.758058e+02,1.078942e+03
9.786985e+02,1.080234e+03
9.815912e+02,1.084274e+03
9.844839e+02,1.078021e+03
9.873766e+02,1.075390e+03
9.902693e+02,1.070333e+03
9.931620e+02,1.078476e+03
9.960547e+02,1.065410e+03
9.989474e+02,1.075931e+03
1.001840e+03,1.062396e+03
1.004733e+03,1.051552e+03
1.007626e+03,1.059352e+03
1.010518e+03,1.061108e+03
1.013411e+03,1.059708e+03
1.016304e+03,1.065279e+03
1.019196e+03,1.050750e+03
1.022089e+03,1.047733e+03
1.024982e+03,1.052810e+03
1.027875e+03,1.051476e+03
1.030767e+03,1.052102e+03
1.033660e+03,1.054068e+03
1.036552e+03,1.050685e+03
1.039445e+03,1.045018e+03
1.042338e+03,1.041952e+03
1.045231e+03,1.043649e+03
1.048123e+03,1.046744e+03
1.051016e+03,1.036666e+03
1.053909e+03,1.050663e+03
1.056802e+03,1.046704e+03
1.059694e+03,1.041317e+03
1.062587e+03,1.042158e+03
1.065479e+03,1.042501e+03
1.068372e+03,1.034281e+03
1.071265e+03,1.035453e+03
1.074158e+03,1.035958e+03
1.077050e+03,1.033365e+03
1.079943e+03,1.040040e+03
1.082836e+03,1.050602e+03
1.085729e+03,1.049479e+03
1.088621e+03,1.050944e+03
1.091514e+03,1.072743e+03
1.094406e+03,1.065623e+03
1.097299e+03,1.054948e+03
1.100192e+03,1.039354e+03
1.103085e+03,1.030750e+03
1.105977e+03,1.037278e+03
1.108870e+03,1.023257e+03
1.111763e+03,1.031165e+03
1.114656e+03,1.037673e+03
1.117548e+03,1.041910e+03
1.120441e+03,1.042502e+03
1.123334e+03,1.034640e+03
1.126226e+03,1.017526e+03
1.129119e+03,1.010639e+03
1.132012e+03,1.003729e+03
1.134904e+03,1.007641e+03
1.137797e+03,1.002598e+03
1.140690e+03,9.998420e+02
1.143583e+03,9.875395e+02
1.146475e+03,9.958932e+02
1.149368e+03,1.001198e+03
1.152261e+03,9.917761e+02
1.155153e+03,9.922846e+02
1.158046e+03,9.837549e+02
1.160939e+03,9.773434e+02
1.163831e+03,9.838429e+02
1.166724e+03,9.829539e+02
1.169617e+03,9.750706e+02
1.172510e+03,9.745247e+02
1.175402e+03,9.656747e+02
1.178295e+03,9.643148e+02
1.181188e+03,9.741572e+02
1.184080e+03,9.619232e+02
1.186973e+03,9.556768e+02
1.189866e+03,9.620253e+02
1.192758e+03,9.699900e+02
1.195651e+03,9.577996e+02
1.198544e+03,9.608438e+02
1.201437e+03,9.599390e+02
1.204329e+03,9.542267e+02
1.207222e+03,9.458694e+02
1.210115e+03,9.627027e+02
1.213007e+03,9.525082e+02
1.215900e+03,9.507698e+02
1.218793e+03,9.507509e+02
1.221685e+03,9.550489e+02
1.224578e+03,9.582473e+02
1.227471e+03,9.555231e+02
1.230364e+03,9.503648e+02
1.233256e+03,9.490859e+02
1.236149e+03,9.487019e+02
1.239042e+03,9.527517e+02
1.241934e+03,9.488836e+02
1.244827e+03,9.419537e+02
1.247720e+03,9.323728e+02
1.250612e+03,9.408936e+02
1.253505e+03,9.421588e+02
1.256398e+03,9.455755e+02
1.259291e+03,9.329120e+02
1.262183e+03,9.353674e+02
1.265076e+03,9.351879e+02
1.267969e+03,9.331551e+02
1.270861e+03,9.336197e+02
1.273754e+03,9.402580e+02
1.276647e+03,9.276355e+02
1.279539e+03,9.267597e+02
1.282432e+03,9.207356e+02
1.285325e+03,9.276527e+02
1.288218e+03,9.295647e+02
1.291110e+03,9.289661e+02
1.294003e+03,9.227030e+02
1.296896e+03,9.235938e+02
1.299788e+03,9.178010e+02
1.302681e+03,9.169794e+02
1.305574e+03,9.187715e+02
1.308466e+03,9.272162e+02
1.311359e+03,9.219252e+02
1.314252e+03,9.249554e+02
1.317145e+03,9.177900e+02
1.320037e+03,9.244639e+02
1.322930e+03,9.241177e+02
1.325823e+03,9.199998e+02
1.328715e+03,9.202638e+02
1.331608e+03,9.206721e+02
1.334501e+03,9.304643e+02
1.337393e+03,9.196741e+02
1.340286e+03,9.145787e+02
1.343179e+03,9.088873e+02
1.346072e+03,9.110987e+02
1.348964e+03,9.089620e+02
1.351857e+03,9.065865e+02
1.354750e+03,9.009372e+02
1.357642e+03,8.952675e+02
1.360535e+03,9.006459e+02
1.363428e+03,9.027670e+02
1.366320e+03,9.035834e+02
1.369213e+03,9.039929e+02
1.372106e+03,9.099230e+02
1.374999e+03,9.073708e+02
1.377891e+03,8.966064e+02
1.380784e+03,9.002434e+02
1.383677e+03,9.012548e+02
1.386569e+03,8.925051e+02
1.389462e+03,8.767373e+02
1.392355e+03,8.876500e+02
1.395247e+03,8.796230e+02
1.398140e+03,8.744180e+02
1.401033e+03,8.778692e+02
1.403926e+03,8.725529e+02
1.406818e+03,8.611508e+02
1.409711e+03,8.737249e+02
1.412604e+03,8.695183e+02
1.415496e+03,8.650107e+02
1.418389e+03,8.723943e+02
1.421282e+03,8.665017e+02
1.424174e+03,8.592792e+02
1.427067e+03,8.601579e+02
1.429960e+03,8.611561e+02
1.432853e+03,8.592697e+02
1.435745e+03,8.564525e+02
1.438638e+03,8.568240e+02
1.441531e+03,8.562507e+02
1.444423e+03,8.580011e+02
1.447316e+03,8.544932e+02
1.450209e+03,8.577292e+02
1.453101e+03,8.541604e+02
1.455994e+03,8.550853e+02
1.458887e+03,8.568490e+02
1.461780e+03,8.564352e+02
1.464672e+03,8.535652e+02
1.467565e+03,8.434013e+02
1.470458e+03,8.475113e+02
1.473350e+03,8.473401e+02
1.476243e+03,8.428597e+02
1.479136e+03,8.500506e+02
1.482028e+03,8.501422e+02
1.484921e+03,8.374164e+02
1.487814e+03,8.369354e+02
1.490707e+03,8.365000e+02
1.493599e+03,8.286573e+02
1.496492e+03,8.278484e+02
1.499385e+03,8.307977e+02
1.502277e+03,8.360830e+02
1.505170e+03,8.313656e+02
1.508063e+03,8.226078e+02
1.510955e+03,8.222679e+02
1.513848e+03,8.215441e+02
1.516741e+03,8.243184e+02
1.519634e+03,8.133658e+02
1.522526e+03,8.208244e+02
1.525419e+03,8.215989e+02
1.528312e+03,8.126796e+02
1.531204e+03,8.157806e+02
1.534097e+03,8.134507e+02
1.536990e+03,8.076289e+02
1.539882e+03,8.165114e+02
1.542775e+03,8.189119e+02
1.545668e+03,8.132885e+02
1.548561e+03,8.067885e+02
1.551453e+03,8.144806e+02
1.554346e+03,8.124905e+02
1.557239e+03,8.161586e+02
1.560131e+03,8.190798e+02
1.563024e+03,8.198280e+02
1.565917e+03,8.365777e+02
1.568809e+03,8.569582e+02
1.571702e+03,8.575672e+02
1.574595e+03,8.454537e+02
1.577488e+03,8.351988e+02
1.580380e+03,8.225715e+02
1.583273e+03,8.261393e+02
1.586166e+03,8.217780e+02
1.589058e+03,8.102214e+02
1.591951e+03,8.089324e+02
1.594844e+03,8.039385e+02
1.597736e+03,7.981005e+02
1.600629e+03,7.910659e+02
1.603522e+03,7.936514e+02
1.606415e+03,7.851151e+02
1.609307e+03,7.851747e+02
1.612200e+03,7.871694e+02
1.615093e+03,7.887466e+02
1.617985e+03,7.913304e+02
1.620878e+03,7.883974e+02
1.623771e+03,7.877215e+02
1.626663e+03,7.835039e+02
1.629556e+03,7.734333e+02
1.632449e+03,7.717823e+02
1.635342e+03,7.741404e+02
1.638234e+03,7.721998e+02
1.641127e+03,7.713890e+02
1.644020e+03,7.677281e+02
1.646912e+03,7.682188e+02
1.649805e+03,7.627324e+02
1.652698e+03,7.626259e+02
1.655590e+03,7.609238e+02
1.658483e+03,7.615745e+02
1.661376e+03,7.617206e+02
1.664269e+03,7.545793e+02
1.667161e+03,7.697458e+02
1.670054e+03,7.531561e+02
1.672947e+03,7.557289e+02
1.675839e+03,7.478652e+02
1.678732e+03,7.518976e+02
1.681625e+03,7.524294e+02
1.684517e+03,7.536277e+02
1.687410e+03,7.414685e+02
1.690303e+03,7.458594e+02
1.693196e+03,7.435351e+02
1.696088e+03,7.399083e+02
1.698981e+03,7.310432e+02
1.701874e+03,7.405608e+02
1.704766e+03,7.317967e+02
1.707659e+03,7.399600e+02
1.710552e+03,7.315482e+02
1.713444e+03,7.327877e+02
1.716337e+03,7.377835e+02
1.719230e+03,7.296094e+02
1.722123e+03,7.287382e+02
1.725015e+03,7.252664e+02
1.727908e+03,7.230934e+02
1.730801e+03,7.260460e+02
1.733693e+03,7.167141e+02
1.736586e+03,7.199257e+02
1.739479e+03,7.122592e+02
1.742371e+03,7.174227e+02
1.745264e+03,7.154216e+02
1.748157e+03,7.090490e+02
1.751050e+03,7.119432e+02
1.753942e+03,7.159489e+02
1.756835e+03,7.156714e+02
1.759728e+03,7.074987e+02
1.762620e+03,7.124256e+02
1.765513e+03,6.987868e+02
1.768406e+03,7.052031e+02
1.771298e+03,6.990400e+02
1.774191e+03,6.977900e+02
1.777084e+03,7.019197e+02
1.779977e+03,6.944208e+02
1.782869e+03,7.026750e+02
1.785762e+03,6.970535e+02
1.788655e+03,6.978643e+02
1.791547e+03,6.996636e+02
1.794440e+03,6.853779e+02
1.797333e+03,6.790541e+02
1.800225e+03,6.965090e+02
1.803118e+03,6.874539e+02
1.806011e+03,6.887403e+02
1.808904e+03,6.832555e+02
1.811796e+03,6.860311e+02
1.814689e+03,6.886081e+02
1.817582e+03,6.861846e+02
1.820474e+03,6.863993e+02
1.823367e+03,6.796555e+02
1.826260e+03,6.778157e+02
1.829152e+03,6.705906e+02
1.832045e+03,6.786780e+02
1.834938e+03,6.656367e+02
1.837831e+03,6.626943e+02
1.840723e+03,6.779936e+02
1.843616e+03,6.671127e+02
1.846509e+03,6.646968e+02
1.849401e+03,6.527768e+02
1.852294e+03,6.531666e+02
1.855187e+03,6.655358e+02
1.858079e+03,6.649678e+02
1.860972e+03,6.573424e+02
1.863865e+03,6.629658e+02
1.866758e+03,6.522315e+02
1.869650e+03,6.590150e+02
1.872543e+03,6.568972e+02
1.875436e+03,6.613214e+02
1.878328e+03,6.523981e+02
1.881221e+03,6.623470e+02
1.884114e+03,6.489786e+02
1.887006e+03,6.481942e+02
1.889899e+03,6.465800e+02
1.892792e+03,6.352940e+02
1.895685e+03,6.384855e+02
1.898577e+03,6.418876e+02
1.901470e+03,6.335527e+02
1.904363e+03,6.394880e+02
1.907255e+03,6.457250e+02
1.910148e+03,6.361551e+02
1.913041e+03,6.431484e+02
1.915933e+03,6.363289e+02
1.918826e+03,6.241429e+02
1.921719e+03,6.331721e+02
1.924612e+03,6.282054e+02
1.927504e+03,6.286453e+02
1.930397e+03,6.335375e+02
1.933290e+03,6.138109e+02
1.936182e+03,6.207315e+02
1.939075e+03,6.150139e+02
1.941968e+03,6.176533e+02
1.944860e+03,6.209431e+02
1.947753e+03,6.163522e+02
1.950646e+03,6.164904e+02
1.953539e+03,6.081248e+02
1.956431e+03,6.121722e+02
1.959324e+03,6.251286e+02
1.962217e+03,6.157844e+02
1.965109e+03,6.036467e+02
1.968002e+03,6.083904e+02
1.970895e+03,6.127347e+02
1.973787e+03,6.045760e+02
1.976680e+03,6.017682e+02
1.979573e+03,5.970142e+02
1.982466e+03,5.963624e+02
1.985358e+03,5.955543e+02
1.988251e+03,6.007536e+02
1.991144e+03,5.975207e+02
1.994036e+03,5.963672e+02
1.996929e+03,5.819929e+02
1.999822e+03,5.958583e+02
2.002714e+03,5.969763e+02
2.005607e+03,5.944468e+02
2.008500e+03,5.813378e+02
2.011393e+03,5.855822e+02
2.014285e+03,5.819778e+02
2.017178e+03,5.853368e+02
2.020071e+03,5.805088e+02
2.022963e+03,5.726606e+02
2.025856e+03,5.737393e+02
2.028749e+03,5.901342e+02
2.031641e+03,5.644904e+02
2.034534e+03,5.652468e+02
2.037427e+03,5.587951e+02
2.040320e+03,5.659138e+02
2.043212e+03,5.805198e+02
2.046105e+03,5.684627e+02
2.048998e+03,5.624903e+02
2.051890e+03,5.626785e+02
2.054783e+03,5.653135e+02
2.057676e+03,5.622717e+02
2.060568e+03,5.496603e+02
2.063461e+03,5.597676e+02
2.066354e+03,5.614149e+02
2.069247e+03,5.568721e+02
2.072139e+03,5.513041e+02
2.075032e+03,5.500703e+02
2.077925e+03,5.545502e+02
2.080817e+03,5.423420e+02
2.083710e+03,5.560545e+02
2.086603e+03,5.485264e+02
2.089496e+03,5.505258e+02
2.092388e+03,5.305257e+02
2.095281e+03,5.417495e+02
2.098174e+03,5.569612e+02
2.101066e+03,5.386967e+02
2.103959e+03,5.379408e+02
2.106852e+03,5.342682e+02
2.109744e+03,5.343806e+02
2.112637e+03,5.289490e+02
2.115530e+03,5.289404e+02
2.118422e+03,5.293087e+02
2.121315e+03,5.402502e+02
2.124208e+03,5.354044e+02
2.127101e+03,5.302529e+02
2.129993e+03,5.275707e+02
2.132886e+03,5.295288e+02
2.135779e+03,5.325549e+02
2.138671e+03,5.126108e+02
2.141564e+03,5.298851e+02
2.144457e+03,5.203274e+02
2.147350e+03,5.169469e+02
2.150242e+03,5.260800e+02
2.153135e+03,5.244400e+02
2.156028e+03,5.163966e+02
2.158920e+03,5.147100e+02
2.161813e+03,5.157343e+02
2.164706e+03,5.117957e+02
2.167598e+03,4.989660e+02
2.170491e+03,5.122478e+02
2.173384e+03,5.071343e+02
2.176277e+03,4.998156e+02
2.179169e+03,5.034096e+02
2.182062e+03,4.960064e+02
2.184955e+03,5.077768e+02
2.187847e+03,4.984187e+02
2.190740e+03,5.024289e+02
2.193633e+03,5.042505e+02
2.196525e+03,4.895267e+02
2.199418e+03,4.802138e+02
2.202311e+03,4.934905e+02
2.205204e+03,4.962936e+02
2.208096e+03,4.847154e+02
2.210989e+03,4.738510e+02
2.213882e+03,4.805885e+02
2.216774e+03,4.937371e+02
2.219667e+03,4.897767e+02
2.222560e+03,4.920204e+02
2.225452e+03,4.765657e+02
2.228345e+03,4.764040e+02
2.231238e+03,4.759073e+02
2.234131e+03,4.721472e+02
2.237023e+03,4.763538e+02
2.239916e+03,4.716798e+02
2.242809e+03,4.704260e+02
2.245701e+03,4.684386e+02
2.248594e+03,4.704030e+02
2.251487e+03,4.597310e+02
2.254379e+03,4.642968e+02
2.257272e+03,4.614037e+02
2.260165e+03,4.603823e+02
2.263058e+03,4.611523e+02
2.265950e+03,4.622348e+02
2.268843e+03,4.607376e+02
2.271736e+03,4.491160e+02
2.274628e+03,4.614660e+02
2.277521e+03,4.584572e+02
2.280414e+03,4.469409e+02
2.283306e+03,4.603849e+02
2.286199e+03,4.605761e+02
2.289092e+03,4.543741e+02
2.291985e+03,4.528805e+02
2.294877e+03,4.549350e+02
2.297770e+03,4.546484e+02
2.300663e+03,4.510333e+02
2.303555e+03,4.409113e+02
2.306448e+03,4.440146e+02
2.309341e+03,4.422080e+02
2.312233e+03,4.486025e+02
2.315126e+03,4.393509e+02
2.318019e+03,4.394910e+02
2.320912e+03,4.475941e+02
2.323804e+03,4.422294e+02
2.326697e+03,4.405636e+02
2.329590e+03,4.381494e+02
2.332482e+03,4.416205e+02
2.335375e+03,4.407604e+02
2.338268e+03,4.403257e+02
2.341160e+03,4.336837e+02
2.344053e+03,4.367836e+02
2.346946e+03,4.261940e+02
2.349839e+03,4.264843e+02
2.352731e+03,4.331283e+02
2.355624e+03,4.252003e+02
2.358517e+03,4.351404e+02
2.361409e+03,4.371112e+02
2.364302e+03,4.223964e+02
2.367195e+03,4.184381e+02
2.370087e+03,4.232918e+02
2.372980e+03,4.177694e+02
2.375873e+03,4.227411e+02
2.378766e+03,4.238716e+02
2.381658e+03,4.169945e+02
2.384551e+03,4.165393e+02
2.387444e+03,4.123304e+02
2.390336e+03,4.129394e+02
2.393229e+03,4.176324e+02
2.396122e+03,4.061368e+02
2.399014e+03,4.052842e+02
2.401907e+03,4.048881e+02
2.404800e+03,4.008058e+02
2.407693e+03,4.066993e+02
2.410585e+03,4.092089e+02
2.413478e+03,4.088907e+02
2.416371e+03,4.033612e+02
2.419263e+03,3.951410e+02
2.422156e+03,4.066271e+02
2.425049e+03,4.034073e+02
2.427941e+03,4.006498e+02
2.430834e+03,4.015753e+02
2.433727e+03,4.013377e+02
2.436620e+03,3.952034e+02
2.439512e+03,3.878023e+02
2.442405e+03,3.839553e+02
2.445298e+03,3.913698e+02
2.448190e+03,3.919568e+02
2.451083e+03,4.017179e+02
2.453976e+03,3.998338e+02
2.456868e+03,3.924656e+02
2.459761e+03,3.879567e+02
2.462654e+03,3.973103e+02
2.465547e+03,3.912457e+02
2.468439e+03,3.819425e+02
2.471332e+03,3.918730e+02
2.474225e+03,3.843585e+02
2.477117e+03,3.783730e+02
2.480010e+03,3.888433e+02
2.482903e+03,3.754496e+02
2.485795e+03,3.773085e+02
2.488688e+03,3.849685e+02
2.491581e+03,3.832231e+02
2.494474e+03,3.835652e+02
2.497366e+03,3.741400e+02
2.500259e+03,3.832901e+02
2.503152e+03,3.883387e+02
2.506044e+03,3.719235e+02
2.508937e+03,3.716020e+02
2.511830e+03,3.694189e+02
2.514722e+03,3.707627e+02
2.517615e+03,3.715998e+02
2.520508e+03,3.740251e+02
2.523401e+03,3.718503e+02
2.526293e+03,3.709771e+02
2.529186e+03,3.699411e+02
2.532079e+03,3.697430e+02
2.534971e+03,3.688362e+02
2.537864e+03,3.610350e+02
2.540757e+03,3.681787e+02
2.543649e+03,3.701639e+02
2.546542e+03,3.738904e+02
2.549435e+03,3.674727e+02
2.552328e+03,3.787519e+02
2.555220e+03,3.733899e+02
2.558113e+03,3.678335e+02
2.561006e+03,3.729662e+02
2.563898e+03,3.701272e+02
2.566791e+03,3.735619e+02
2.569684e+03,3.664493e+02
2.572576e+03,3.688795e+02
2.575469e+03,3.671263e+02
2.578362e+03,3.700498e+02
2.581255e+03,3.465611e+02
2.584147e+03,3.467069e+02
2.587040e+03,3.535053e+02
2.589933e+03,3.582740e+02
2.592825e+03,3.455905e+02
2.595718e+03,3.601197e+02
2.598611e+03,3.488978e+02
2.601503e+03,3.576101e+02
2.604396e+03,3.400414e+02
2.607289e+03,3.528517e+02
2.610182e+03,3.410514e+02
2.613074e+03,3.489342e+02
2.615967e+03,3.468972e+02
2.618860e+03,3.399660e+02
2.621752e+03,3.476663e+02
2.624645e+03,3.372425e+02
2.627538e+03,3.490112e+02
2.630430e+03,3.363005e+02
2.633323e+03,3.400828e+02
2.636216e+03,3.421321e+02
2.639109e+03,3.556230e+02
2.642001e+03,3.482650e+02
2.644894e+03,3.404953e+02
2.647787e+03,3.323235e+02
2.650679e+03,3.358778e+02
2.653572e+03,3.447128e+02
2.656465e+03,3.375538e+02
2.659357e+03,3.410371e+02
2.662250e+03,3.383793e+02
2.665143e+03,3.335140e+02
2.668036e+03,3.393354e+02
2.670928e+03,3.375606e+02
2.673821e+03,3.276064e+02
2.676714e+03,3.315489e+02
2.679606e+03,3.314413e+02
2.682499e+03,3.402958e+02
2.685392e+03,3.383666e+02
2.688284e+03,3.250283e+02
2.691177e+03,3.410354e+02
2.694070e+03,3.324913e+02
2.696963e+03,3.322683e+02
2.699855e+03,3.335220e+02
2.702748e+03,3.311668e+02
2.705641e+03,3.281787e+02
2.708533e+03,3.375943e+02
2.711426e+03,3.160069e+02
2.714319e+03,3.288913e+02
2.717211e+03,3.252495e+02
2.720104e+03,3.376017e+02
2.722997e+03,3.264217e+02
2.725890e+03,3.208260e+02
2.728782e+03,3.286108e+02
2.731675e+03,3.191512e+02
2.734568e+03,3.341451e+02
2.737460e+03,3.287687e+02
2.740353e+03,3.233347e+02
2.743246e+03,3.261844e+02
2.746138e+03,3.247825e+02
2.749031e+03,3.172860e+02
2.751924e+03,3.118188e+02
2.754817e+03,3.210798e+02
2.757709e+03,3.211698e+02
2.760602e+03,3.015376e+02
2.763495e+03,3.126932e+02
2.766387e+03,3.135428e+02
2.769280e+03,3.237003e+02
2.772173e+03,3.156496e+02
2.775065e+03,3.188520e+02
2.777958e+03,3.188602e+02
2.780851e+03,3.174117e+02
2.783744e+03,3.109093e+02
2.786636e+03,3.108880e+02
2.789529e+03,3.155098e+02
2.792422e+03,3.230464e+02
2.795314e+03,2.925473e+02
2.798207e+03,3.036434e+02
2.801100e+03,3.146660e+02
2.803992e+03,3.068830e+02
2.806885e+03,3.070567e+02
2.809778e+03,3.245552e+02
2.812671e+03,3.153671e+02
2.815563e+03,3.154582e+02
2.818456e+03,2.980017e+02
2.821349e+03,3.017081e+02
2.824241e+03,3.045115e+02
2.827134e+03,3.382432e+02
2.830027e+03,2.991083e+02
2.832919e+03,3.084149e+02
2.835812e+03,3.180443e+02
2.838705e+03,3.185557e+02
2.841598e+03,3.289544e+02
2.844490e+03,3.205032e+02
2.847383e+03,3.144853e+02
2.850276e+03,3.146250e+02
2.853168e+03,3.255815e+02
2.856061e+03,3.237282e+02
2.858954e+03,3.331129e+02
2.861846e+03,3.296515e+02
2.864739e+03,3.348070e+02
2.867632e+03,3.339442e+02
2.870525e+03,3.299411e+02
2.873417e+03,3.312141e+02
2.876310e+03,3.364427e+02
2.879203e+03,3.264503e+02
2.882095e+03,3.409543e+02
2.884988e+03,3.525626e+02
2.887881e+03,3.422759e+02
2.890773e+03,3.433667e+02
2.893666e+03,3.406676e+02
2.896559e+03,3.389215e+02
2.899452e+03,3.662269e+02
2.902344e+03,3.491166e+02
2.905237e+03,3.562178e+02
2.908130e+03,3.379726e+02
2.911022e+03,3.292654e+02
2.913915e+03,3.244737e+02
2.916808e+03,3.353642e+02
2.919700e+03,3.338244e+02
2.922593e+03,3.253045e+02
2.925486e+03,3.289996e+02
2.928379e+03,3.072856e+02
2.931271e+03,3.227931e+02
2.934164e+03,3.167253e+02
2.937057e+03,3.031201e+02
2.939949e+03,3.209561e+02
2.942842e+03,3.114132e+02
2.945735e+03,3.153312e+02
2.948627e+03,3.171533e+02
2.951520e+03,3.020524e+02
2.954413e+03,2.983803e+02
2.957306e+03,3.603268e+02
2.960198e+03,3.238110e+02
2.963091e+03,3.013821e+02
2.965984e+03,2.974449e+02
2.968876e+03,2.931859e+02
2.971769e+03,3.002122e+02
2.974662e+03,2.779422e+02
2.977554e+03,3.000094e+02
2.980447e+03,2.842755e+02
2.983340e+03,2.922750e+02
2.986233e+03,2.878445e+02
2.989125e+03,2.878148e+02
2.992018e+03,2.909904e+02
2.994911e+03,2.858112e+02
2.997803e+03,2.808071e+02
3.000696e+03,3.042902e+02
3.003589e+03,2.977945e+02
3.006481e+03,2.767448e+02
3.009374e+03,2.740451e+02
3.012267e+03,2.927346e+02
3.015160e+03,2.634187e+02
3.018052e+03,2.741851e+02
3.020945e+03,2.845797e+02
3.023838e+03,2.618224e+02
3.026730e+03,2.773866e+02
3.029623e+03,2.988932e+02
3.032516e+03,2.756655e+02
3.035408e+03,2.777211e+02
3.038301e+03,2.732416e+02
3.041194e+03,2.791866e+02
3.044087e+03,2.766152e+02
3.046979e+03,2.633067e+02
3.049872e+03,2.795793e+02
3.052765e+03,2.568383e+02
3.055657e+03,2.778902e+02
3.058550e+03,2.746448e+02
3.061443e+03,2.678378e+02
3.064335e+03,2.821460e+02
3.067228e+03,2.741837e+02
3.070121e+03,2.660743e+02
3.073014e+03,2.613997e+02
3.075906e+03,3.043178e+02
3.078799e+03,2.770169e+02
3.081692e+03,2.736723e+02
3.084584e+03,2.709031e+02
3.087477e+03,2.786974e+02
3.090370e+03,2.666726e+02
3.093262e+03,2.688616e+02
3.096155e+03,2.830197e+02
3.099048e+03,2.903048e+02
3.101941e+03,2.764672e+02
3.104833e+03,2.468803e+02
3.107726e+03,2.871622e+02
3.110619e+03,2.697490e+02
3.113511e+03,2.872407e+02
3.116404e+03,2.809755e+02
3.119297e+03,2.817621e+02
3.122189e+03,2.804996e+02
3.125082e+03,2.943810e+02
3.127975e+03,2.703033e+02
3.130868e+03,2.689794e+02
3.133760e+03,2.973183e+02
3.136653e+03,2.696559e+02
3.139546e+03,2.636531e+02
3.142438e+03,3.115883e+02
3.145331e+03,2.394891e+02
3.148224e+03,2.900680e+02
3.151116e+03,2.712167e+02
3.154009e+03,3.147416e+02
3.156902e+03,2.776949e+02
3.159795e+03,2.786947e+02
3.162687e+03,2.891656e+02
3.165580e+03,2.884588e+02
3.168473e+03,2.853986e+02
3.171365e+03,2.677316e+02
3.174258e+03,3.086673e+02
3.177151e+03,2.818187e+02
3.180043e+03,2.932644e+02
3.182936e+03,2.711761e+02
3.185829e+03,3.100968e+02
3.188722e+03,2.866956e+02
3.191614e+03,2.877131e+02
3.194507e+03,2.618592e+02
3.197400e+03,2.582326e+02
3.200292e+03,2.995786e+02
3.203185e+03,0.000000e+00
3.206078e+03,0.000000e+00
3.208970e+03,0.000000e+00
3.211863e+03,0.000000e+00
3.214756e+03,0.000000e+00
3.217649e+03,0.000000e+00
3.220541e+03,0.000000e+00
3.223434e+03,0.000000e+00
3.226327e+03,0.000000e+00
3.229219e+03,0.000000e+00
3.232112e+03,0.000000e+00
3.235005e+03,0.000000e+00
3.237897e+03,0.000000e+00
3.240790e+03,0.000000e+00
3.243683e+03,0.000000e+00
3.246576e+03,0.000000e+00
3.249468e+03,0.000000e+00
3.252361e+03,0.000000e+00
3.255254e+03,0.000000e+00
3.258146e+03,0.000000e+00
3.261039e+03,0.000000e+00
3.263932e+03,0.000000e+00
3.266824e+03,0.000000e+00
3.269717e+03,0.000000e+00
3.272610e+03,0.000000e+00
3.275503e+03,0.000000e+00
3.278395e+03,0.000000e+00
3.281288e+03,0.000000e+00
3.284181e+03,0.000000e+00
3.287073e+03,0.000000e+00
3.289966e+03,0.000000e+00
3.292859e+03,0.000000e+00
3.295751e+03,0.000000e+00
3.298644e+03,0.000000e+00
3.301537e+03,0.000000e+00
3.304430e+03,0.000000e+00
3.307322e+03,0.000000e+00
3.310215e+03,0.000000e+00
3.313108e+03,0.000000e+00
3.316000e+03,0.000000e+00
3.318893e+03,0.000000e+00
3.321786e+03,0.000000e+00
3.324678e+03,0.000000e+00
3.327571e+03,0.000000e+00
3.330464e+03,0.000000e+00
3.333357e+03,0.000000e+00
3.336249e+03,0.000000e+00
3.339142e+03,0.000000e+00
3.342035e+03,0.000000e+00
3.344927e+03,0.000000e+00
3.347820e+03,0.000000e+00
3.350713e+03,0.000000e+00
3.353605e+03,0.000000e+00
3.356498e+03,0.000000e+00
3.359391e+03,0.000000e+00
3.362284e+03,0.000000e+00
3.365176e+03,0.000000e+00
3.368069e+03,0.000000e+00
3.370962e+03,0.000000e+00
3.373854e+03,0.000000e+00
3.376747e+03,0.000000e+00
3.379640e+03,0.000000e+00
3.382532e+03,0.000000e+00
3.385425e+03,0.000000e+00
3.388318e+03,0.000000e+00
3.391211e+03,0.000000e+00
3.394103e+03,0.000000e+00
3.396996e+03,0.000000e+00
3.399889e+03,0.000000e+00
3.402781e+03,0.000000e+00
3.405674e+03,0.000000e+00
3.408567e+03,0.000000e+00
3.411459e+03,0.000000e+00
3.414352e+03,0.000000e+00
3.417245e+03,0.000000e+00
3.420138e+03,0.000000e+00
3.423030e+03,0.000000e+00
3.425923e+03,0.000000e+00
3.428816e+03,0.000000e+00
3.431708e+03,0.000000e+00
3.434601e+03,0.000000e+00
3.437494e+03,0.000000e+00
3.440386e+03,0.000000e+00
3.443279e+03,0.000000e+00
3.446172e+03,0.000000e+00
3.449065e+03,0.000000e+00
3.451957e+03,0.000000e+00
3.454850e+03,0.000000e+00
3.457743e+03,0.000000e+00
3.460635e+03,0.000000e+00
3.463528e+03,0.000000e+00
3.466421e+03,0.000000e+00
3.469313e+03,0.000000e+00
3.472206e+03,0.000000e+00
3.475099e+03,0.000000e+00
3.477992e+03,0.000000e+00
3.480884e+03,0.000000e+00
3.483777e+03,0.000000e+00
3.486670e+03,0.000000e+00
3.489563e+03,0.000000e+00
3.492455e+03,0.000000e+00
3.495348e+03,0.000000e+00
3.498240e+03,0.000000e+00
3.500169e+03,0.000000e+00