File: RAMAN_data/12022024_r2/red fibre4.CSV
9.931763e+01,0.000000e+00
1.022103e+02,0.000000e+00
1.051030e+02,0.000000e+00
1.079957e+02,0.000000e+00
1.108884e+02,0.000000e+00
1.137811e+02,0.000000e+00
1.166738e+02,0.000000e+00
1.195665e+02,0.000000e+00
1.224592e+02,0.000000e+00
1.253519e+02,0.000000e+00
1.282446e+02,0.000000e+00
1.311373e+02,0.000000e+00
1.340300e+02,0.000000e+00
1.369227e+02,0.000000e+00
1.398154e+02,0.000000e+00
1.427081e+02,0.000000e+00
1.456008e+02,0.000000e+00
1.484935e+02,0.000000e+00
1.513862e+02,0.000000e+00
1.542789e+02,0.000000e+00
1.571716e+02,0.000000e+00
1.600643e+02,0.000000e+00
1.629570e+02,0.000000e+00
1.658497e+02,0.000000e+00
1.687424e+02,0.000000e+00
1.716351e+02,0.000000e+00
1.745278e+02,0.000000e+00
1.774205e+02,0.000000e+00
1.803132e+02,0.000000e+00
1.832059e+02,0.000000e+00
1.860986e+02,0.000000e+00
1.889913e+02,0.000000e+00
1.918840e+02,0.000000e+00
1.947767e+02,0.000000e+00
1.976694e+02,0.000000e+00
2.005621e+02,1.291063e+03
2.034548e+02,1.294458e+03
2.063475e+02,1.299959e+03
2.092402e+02,1.298468e+03
2.121329e+02,1.284318e+03
2.150256e+02,1.293343e+03
2.179183e+02,1.297212e+03
2.208110e+02,1.294264e+03
2.237037e+02,1.289282e+03
2.265964e+02,1.284597e+03
2.294892e+02,1.286758e+03
2.323819e+02,1.294641e+03
2.352746e+02,1.289762e+03
2.381673e+02,1.295290e+03
2.410600e+02,1.291752e+03
2.439527e+02,1.288071e+03
2.468454e+02,1.285177e+03
2.497381e+02,1.284787e+03
2.526308e+02,1.290557e+03
2.555235e+02,1.291107e+03
2.584161e+02,1.284959e+03
2.613088e+02,1.290025e+03
2.642015e+02,1.296043e+03
2.670942e+02,1.297211e+03
2.699869e+02,1.290375e+03
2.728796e+02,1.291054e+03
2.757723e+02,1.287271e+03
2.786650e+02,1.299722e+03
2.815577e+02,1.289299e+03
2.844504e+02,1.299150e+03
2.873431e+02,1.282443e+03
2.902358e+02,1.289240e+03
2.931285e+02,1.287958e+03
2.960212e+02,1.285084e+03
2.989139e+02,1.285493e+03
3.018066e+02,1.287052e+03
3.046993e+02,1.274172e+03
3.075920e+02,1.280013e+03
3.104847e+02,1.277406e+03
3.133774e+02,1.278111e+03
3.162701e+02,1.274964e+03
3.191628e+02,1.266725e+03
3.220555e+02,1.276579e+03
3.249482e+02,1.276743e+03
3.278409e+02,1.273512e+03
3.307336e+02,1.273878e+03
3.336263e+02,1.266884e+03
3.365190e+02,1.271808e+03
3.394117e+02,1.277879e+03
3.423044e+02,1.263369e+03
3.451971e+02,1.268398e+03
3.480898e+02,1.264738e+03
3.509825e+02,1.248106e+03
3.538752e+02,1.251805e+03
3.567680e+02,1.259909e+03
3.596607e+02,1.258754e+03
3.625534e+02,1.259808e+03
3.654461e+02,1.254781e+03
3.683388e+02,1.250382e+03
3.712315e+02,1.269982e+03
3.741242e+02,1.276725e+03
3.770169e+02,1.273415e+03
3.799096e+02,1.267457e+03
3.828023e+02,1.251899e+03
3.856950e+02,1.247507e+03
3.885877e+02,1.239819e+03
3.914804e+02,1.230758e+03
3.943731e+02,1.243283e+03
3.972658e+02,1.235233e+03
4.001585e+02,1.225206e+03
4.030512e+02,1.236625e+03
4.059439e+02,1.226477e+03
4.088366e+02,1.222375e+03
4.117293e+02,1.219660e+03
4.146220e+02,1.217648e+03
4.175147e+02,1.218335e+03
4.204074e+02,1.225133e+03
4.233001e+02,1.229557e+03
4.261928e+02,1.228476e+03
4.290855e+02,1.224407e+03
4.319782e+02,1.228271e+03
4.348709e+02,1.242522e+03
4.377636e+02,1.233288e+03
4.406563e+02,1.228642e+03
4.435490e+02,1.217107e+03
4.464417e+02,1.212329e+03
4.493344e+02,1.207531e+03
4.522271e+02,1.218500e+03
4.551198e+02,1.218242e+03
4.580125e+02,1.206714e+03
4.609052e+02,1.204764e+03
4.637979e+02,1.198469e+03
4.666906e+02,1.204276e+03
4.695833e+02,1.193416e+03
4.724760e+02,1.182979e+03
4.753687e+02,1.189318e+03
4.782614e+02,1.182774e+03
4.811541e+02,1.192442e+03
4.840468e+02,1.180381e+03
4.869395e+02,1.172701e+03
4.898322e+02,1.177001e+03
4.927249e+02,1.178437e+03
4.956176e+02,1.169542e+03
4.985103e+02,1.177154e+03
5.014030e+02,1.172803e+03
5.042957e+02,1.169773e+03
5.071884e+02,1.165391e+03
5.100811e+02,1.167502e+03
5.129738e+02,1.162741e+03
5.158665e+02,1.161289e+03
5.187592e+02,1.160968e+03
5.216519e+02,1.157078e+03
5.245446e+02,1.150302e+03
5.274373e+02,1.152237e+03
5.303300e+02,1.155797e+03
5.332227e+02,1.144703e+03
5.361154e+02,1.135955e+03
5.390081e+02,1.133051e+03
5.419008e+02,1.144754e+03
5.447935e+02,1.122254e+03
5.476862e+02,1.139992e+03
5.505789e+02,1.128221e+03
5.534716e+02,1.117905e+03
5.563643e+02,1.118542e+03
5.592570e+02,1.119658e+03
5.621497e+02,1.130693e+03
5.650424e+02,1.125296e+03
5.679351e+02,1.119375e+03
5.708278e+02,1.117128e+03
5.737205e+02,1.107931e+03
5.766132e+02,1.116433e+03
5.795059e+02,1.110784e+03
5.823986e+02,1.118047e+03
5.852913e+02,1.109599e+03
5.881840e+02,1.104087e+03
5.910767e+02,1.118337e+03
5.939694e+02,1.117887e+03
5.968621e+02,1.106007e+03
5.997548e+02,1.104601e+03
6.026475e+02,1.102716e+03
6.055402e+02,1.107943e+03
6.084329e+02,1.107779e+03
6.113256e+02,1.090802e+03
6.142183e+02,1.091357e+03
6.171110e+02,1.087625e+03
6.200037e+02,1.092813e+03
6.228964e+02,1.086206e+03
6.257891e+02,1.094484e+03
6.286818e+02,1.088624e+03
6.315745e+02,1.088889e+03
6.344672e+02,1.086616e+03
6.373599e+02,1.078316e+03
6.402526e+02,1.074743e+03
6.431453e+02,1.078485e+03
6.460380e+02,1.079777e+03
6.489307e+02,1.063399e+03
6.518234e+02,1.072478e+03
6.547161e+02,1.066955e+03
6.576088e+02,1.060287e+03
6.605015e+02,1.053182e+03
6.633942e+02,1.055612e+03
6.662869e+02,1.054152e+03
6.691796e+02,1.049045e+03
6.720723e+02,1.052863e+03
6.749650e+02,1.047174e+03
6.778577e+02,1.050233e+03
6.807504e+02,1.045810e+03
6.836431e+02,1.042407e+03
6.865358e+02,1.046504e+03
6.894285e+02,1.040118e+03
6.923212e+02,1.036293e+03
6.952139e+02,1.027199e+03
6.981066e+02,1.040250e+03
7.009993e+02,1.030434e+03
7.038920e+02,1.031375e+03
7.067847e+02,1.028680e+03
7.096774e+02,1.021292e+03
7.125701e+02,1.026149e+03
7.154628e+02,1.012923e+03
7.183555e+02,1.004570e+03
7.212482e+02,1.015719e+03
7.241409e+02,1.011643e+03
7.270336e+02,1.011190e+03
7.299263e+02,1.010469e+03
7.328190e+02,1.005834e+03
7.357117e+02,1.001028e+03
7.386044e+02,1.003618e+03
7.414971e+02,1.002220e+03
7.443898e+02,9.958315e+02
7.472825e+02,9.978300e+02
7.501752e+02,9.949528e+02
7.530679e+02,9.888787e+02
7.559606e+02,1.000697e+03
7.588533e+02,9.944396e+02
7.617460e+02,9.921389e+02
7.646387e+02,9.896202e+02
7.675314e+02,9.929551e+02
7.704241e+02,9.771374e+02
7.733168e+02,9.742787e+02
7.762095e+02,9.862617e+02
7.791022e+02,9.847253e+02
7.819949e+02,9.723195e+02
7.848876e+02,9.656210e+02
7.877803e+02,9.784495e+02
7.906730e+02,9.807656e+02
7.935657e+02,9.754851e+02
7.964584e+02,9.776808e+02
7.993511e+02,9.742140e+02
8.022438e+02,9.641661e+02
8.051365e+02,9.617858e+02
8.080292e+02,9.675986e+02
8.109219e+02,9.664886e+02
8.138146e+02,9.582985e+02
8.167073e+02,9.613143e+02
8.196000e+02,9.635207e+02
8.224927e+02,9.636445e+02
8.253854e+02,9.597258e+02
8.282781e+02,9.640191e+02
8.311708e+02,9.574573e+02
8.340635e+02,9.622598e+02
8.369562e+02,9.664095e+02
8.398489e+02,9.546115e+02
8.427416e+02,9.585818e+02
8.456343e+02,9.457758e+02
8.485270e+02,9.523459e+02
8.514197e+02,9.431647e+02
8.543124e+02,9.490553e+02
8.572051e+02,9.481007e+02
8.600978e+02,9.418221e+02
8.629905e+02,9.494399e+02
8.658832e+02,9.406241e+02
8.687759e+02,9.316807e+02
8.716686e+02,9.266088e+02
8.745613e+02,9.390359e+02
8.774540e+02,9.375872e+02
8.803467e+02,9.324937e+02
8.832394e+02,9.262350e+02
8.861321e+02,9.329960e+02
8.890248e+02,9.276178e+02
8.919175e+02,9.257352e+02
8.948102e+02,9.281155e+02
8.977029e+02,9.312556e+02
9.005956e+02,9.237676e+02
9.034883e+02,9.280839e+02
9.063810e+02,9.199131e+02
9.092737e+02,9.135983e+02
9.121664e+02,9.097659e+02
9.150591e+02,9.094997e+02
9.179518e+02,9.105492e+02
9.208445e+02,9.082809e+02
9.237372e+02,8.990850e+02
9.266299e+02,9.004678e+02
9.295226e+02,8.995910e+02
9.324153e+02,8.934371e+02
9.353080e+02,8.926715e+02
9.382007e+02,8.791725e+02
9.410934e+02,8.824816e+02
9.439861e+02,8.918556e+02
9.468788e+02,8.928566e+02
9.497715e+02,8.923638e+02
9.526642e+02,8.827815e+02
9.555569e+02,8.873855e+02
9.584496e+02,8.860004e+02
9.613423e+02,8.880466e+02
9.642350e+02,8.883806e+02
9.671277e+02,8.833649e+02
9.700204e+02,8.870606e+02
9.729131e+02,8.806196e+02
9.758058e+02,8.800818e+02
9.786985e+02,8.772654e+02
9.815912e+02,8.784214e+02
9.844839e+02,8.769429e+02
9.873766e+02,8.770244e+02
9.902693e+02,8.814047e+02
9.931620e+02,8.826158e+02
9.960547e+02,8.842576e+02
9.989474e+02,8.806420e+02
1.001840e+03,8.739265e+02
1.004733e+03,8.643860e+02
1.007626e+03,8.644526e+02
1.010518e+03,8.708285e+02
1.013411e+03,8.588420e+02
1.016304e+03,8.588940e+02
1.019196e+03,8.624023e+02
1.022089e+03,8.702156e+02
1.024982e+03,8.636932e+02
1.027875e+03,8.701512e+02
1.030767e+03,8.654554e+02
1.033660e+03,8.708971e+02
1.036552e+03,8.705886e+02
1.039445e+03,8.681980e+02
1.042338e+03,8.604796e+02
1.045231e+03,8.571467e+02
1.048123e+03,8.627883e+02
1.051016e+03,8.721790e+02
1.053909e+03,8.632547e+02
1.056802e+03,8.647184e+02
1.059694e+03,8.649094e+02
1.062587e+03,8.649886e+02
1.065479e+03,8.612500e+02
1.068372e+03,8.696960e+02
1.071265e+03,8.725131e+02
1.074158e+03,8.783557e+02
1.077050e+03,8.685803e+02
1.079943e+03,8.662348e+02
1.082836e+03,8.748779e+02
1.085729e+03,8.810958e+02
1.088621e+03,8.858244e+02
1.091514e+03,9.057950e+02
1.094406e+03,9.087011e+02
1.097299e+03,8.902989e+02
1.100192e+03,8.926387e+02
1.103085e+03,8.756423e+02
1.105977e+03,8.747382e+02
1.108870e+03,8.804622e+02
1.111763e+03,8.796693e+02
1.114656e+03,8.910917e+02
1.117548e+03,8.907802e+02
1.120441e+03,8.903448e+02
1.123334e+03,8.779730e+02
1.126226e+03,8.774747e+02
1.129119e+03,8.640917e+02
1.132012e+03,8.574334e+02
1.134904e+03,8.537454e+02
1.137797e+03,8.566063e+02
1.140690e+03,8.561668e+02
1.143583e+03,8.680497e+02
1.146475e+03,8.635766e+02
1.149368e+03,8.560790e+02
1.152261e+03,8.409036e+02
1.155153e+03,8.393194e+02
1.158046e+03,8.315541e+02
1.160939e+03,8.272923e+02
1.163831e+03,8.279398e+02
1.166724e+03,8.222565e+02
1.169617e+03,8.303373e+02
1.172510e+03,8.274036e+02
1.175402e+03,8.233774e+02
1.178295e+03,8.248380e+02
1.181188e+03,8.175013e+02
1.184080e+03,8.186475e+02
1.186973e+03,8.209460e+02
1.189866e+03,8.113575e+02
1.192758e+03,8.187972e+02
1.195651e+03,8.196058e+02
1.198544e+03,8.347123e+02
1.201437e+03,8.273704e+02
1.204329e+03,8.241442e+02
1.207222e+03,8.162239e+02
1.210115e+03,8.165961e+02
1.213007e+03,8.108792e+02
1.215900e+03,7.996407e+02
1.218793e+03,8.057880e+02
1.221685e+03,8.075396e+02
1.224578e+03,8.104072e+02
1.227471e+03,7.987061e+02
1.230364e+03,7.988459e+02
1.233256e+03,8.013984e+02
1.236149e+03,7.967453e+02
1.239042e+03,7.962216e+02
1.241934e+03,8.041931e+02
1.244827e+03,8.065315e+02
1.247720e+03,7.973780e+02
1.250612e+03,7.961398e+02
1.253505e+03,7.974881e+02
1.256398e+03,7.980305e+02
1.259291e+03,7.966428e+02
1.262183e+03,7.920175e+02
1.265076e+03,7.923181e+02
1.267969e+03,7.946119e+02
1.270861e+03,8.006609e+02
1.273754e+03,8.047170e+02
1.276647e+03,8.076102e+02
1.279539e+03,8.091653e+02
1.282432e+03,7.938405e+02
1.285325e+03,8.130343e+02
1.288218e+03,8.066641e+02
1.291110e+03,8.057147e+02
1.294003e+03,8.041162e+02
1.296896e+03,7.967156e+02
1.299788e+03,8.028107e+02
1.302681e+03,7.883683e+02
1.305574e+03,7.977918e+02
1.308466e+03,8.020364e+02
1.311359e+03,7.985292e+02
1.314252e+03,8.000339e+02
1.317145e+03,8.039691e+02
1.320037e+03,8.005793e+02
1.322930e+03,7.950045e+02
1.325823e+03,8.019519e+02
1.328715e+03,8.070134e+02
1.331608e+03,8.101830e+02
1.334501e+03,8.181364e+02
1.337393e+03,8.219250e+02
1.340286e+03,8.235358e+02
1.343179e+03,8.130579e+02
1.346072e+03,8.069656e+02
1.348964e+03,7.962199e+02
1.351857e+03,7.973199e+02
1.354750e+03,7.933995e+02
1.357642e+03,7.960319e+02
1.360535e+03,7.966115e+02
1.363428e+03,7.905422e+02
1.366320e+03,7.969429e+02
1.369213e+03,7.957953e+02
1.372106e+03,7.966016e+02
1.374999e+03,8.054899e+02
1.377891e+03,8.127826e+02
1.380784e+03,8.059795e+02
1.383677e+03,7.974158e+02
1.386569e+03,7.879744e+02
1.389462e+03,7.848549e+02
1.392355e+03,7.765981e+02
1.395247e+03,7.704571e+02
1.398140e+03,7.731744e+02
1.401033e+03,7.588317e+02
1.403926e+03,7.663389e+02
1.406818e+03,7.647121e+02
1.409711e+03,7.626452e+02
1.412604e+03,7.618803e+02
1.415496e+03,7.598399e+02
1.418389e+03,7.589642e+02
1.421282e+03,7.677967e+02
1.424174e+03,7.618223e+02
1.427067e+03,7.524433e+02
1.429960e+03,7.508193e+02
1.432853e+03,7.497008e+02
1.435745e+03,7.495241e+02
1.438638e+03,7.461870e+02
1.441531e+03,7.427391e+02
1.444423e+03,7.493199e+02
1.447316e+03,7.488245e+02
1.450209e+03,7.497120e+02
1.453101e+03,7.407987e+02
1.455994e+03,7.514594e+02
1.458887e+03,7.468209e+02
1.461780e+03,7.473274e+02
1.464672e+03,7.385085e+02
1.467565e+03,7.391484e+02
1.470458e+03,7.303806e+02
1.473350e+03,7.347770e+02
1.476243e+03,7.340872e+02
1.479136e+03,7.347577e+02
1.482028e+03,7.297568e+02
1.484921e+03,7.289463e+02
1.487814e+03,7.270573e+02
1.490707e+03,7.260612e+02
1.493599e+03,7.185251e+02
1.496492e+03,7.198150e+02
1.499385e+03,7.215502e+02
1.502277e+03,7.220551e+02
1.505170e+03,7.161826e+02
1.508063e+03,7.121316e+02
1.510955e+03,7.186191e+02
1.513848e+03,7.130686e+02
1.516741e+03,7.150176e+02
1.519634e+03,7.125455e+02
1.522526e+03,7.140107e+02
1.525419e+03,7.186674e+02
1.528312e+03,7.106290e+02
1.531204e+03,7.041110e+02
1.534097e+03,7.040354e+02
1.536990e+03,7.084649e+02
1.539882e+03,7.138046e+02
1.542775e+03,6.980490e+02
1.545668e+03,7.095006e+02
1.548561e+03,6.996188e+02
1.551453e+03,7.014857e+02
1.554346e+03,7.034672e+02
1.557239e+03,6.993688e+02
1.560131e+03,7.012325e+02
1.563024e+03,6.969781e+02
1.565917e+03,6.990309e+02
1.568809e+03,7.000305e+02
1.571702e+03,7.021052e+02
1.574595e+03,6.969827e+02
1.577488e+03,6.969911e+02
1.580380e+03,6.895850e+02
1.583273e+03,7.027833e+02
1.586166e+03,6.995815e+02
1.589058e+03,6.942996e+02
1.591951e+03,6.927392e+02
1.594844e+03,6.914191e+02
1.597736e+03,6.911168e+02
1.600629e+03,6.941876e+02
1.603522e+03,7.023826e+02
1.606415e+03,7.083319e+02
1.609307e+03,7.147395e+02
1.612200e+03,7.231545e+02
1.615093e+03,7.212341e+02
1.617985e+03,6.989916e+02
1.620878e+03,6.914650e+02
1.623771e+03,6.765543e+02
1.626663e+03,6.811552e+02
1.629556e+03,6.716601e+02
1.632449e+03,6.681567e+02
1.635342e+03,6.722107e+02
1.638234e+03,6.659090e+02
1.641127e+03,6.630034e+02
1.644020e+03,6.581023e+02
1.646912e+03,6.670246e+02
1.649805e+03,6.589363e+02
1.652698e+03,6.619932e+02
1.655590e+03,6.567161e+02
1.658483e+03,6.557451e+02
1.661376e+03,6.577270e+02
1.664269e+03,6.478964e+02
1.667161e+03,6.553196e+02
1.670054e+03,6.548953e+02
1.672947e+03,6.478781e+02
1.675839e+03,6.543481e+02
1.678732e+03,6.469696e+02
1.681625e+03,6.408089e+02
1.684517e+03,6.443026e+02
1.687410e+03,6.436533e+02
1.690303e+03,6.506535e+02
1.693196e+03,6.413906e+02
1.696088e+03,6.411439e+02
1.698981e+03,6.430844e+02
1.701874e+03,6.410573e+02
1.704766e+03,6.325934e+02
1.707659e+03,6.455207e+02
1.710552e+03,6.449347e+02
1.713444e+03,6.401080e+02
1.716337e+03,6.397284e+02
1.719230e+03,6.539445e+02
1.722123e+03,6.517409e+02
1.725015e+03,6.428406e+02
1.727908e+03,6.476399e+02
1.730801e+03,6.482379e+02
1.733693e+03,6.368736e+02
1.736586e+03,6.373535e+02
1.739479e+03,6.276972e+02
1.742371e+03,6.265258e+02
1.745264e+03,6.234371e+02
1.748157e+03,6.087386e+02
1.751050e+03,6.211693e+02
1.753942e+03,6.226414e+02
1.756835e+03,6.162543e+02
1.759728e+03,6.081366e+02
1.762620e+03,6.053520e+02
1.765513e+03,6.128876e+02
1.768406e+03,6.117753e+02
1.771298e+03,6.064944e+02
1.774191e+03,6.026100e+02
1.777084e+03,6.071415e+02
1.779977e+03,5.986602e+02
1.782869e+03,5.955344e+02
1.785762e+03,6.041019e+02
1.788655e+03,5.961188e+02
1.791547e+03,5.944365e+02
1.794440e+03,5.967765e+02
1.797333e+03,5.858192e+02
1.800225e+03,5.860052e+02
1.803118e+03,5.867125e+02
1.806011e+03,5.823725e+02
1.808904e+03,5.763019e+02
1.811796e+03,5.811459e+02
1.814689e+03,5.867685e+02
1.817582e+03,5.801339e+02
1.820474e+03,5.819554e+02
1.823367e+03,5.807926e+02
1.826260e+03,5.706323e+02
1.829152e+03,5.764006e+02
1.832045e+03,5.706908e+02
1.834938e+03,5.653196e+02
1.837831e+03,5.681616e+02
1.840723e+03,5.682222e+02
1.843616e+03,5.671497e+02
1.846509e+03,5.655157e+02
1.849401e+03,5.720280e+02
1.852294e+03,5.518954e+02
1.855187e+03,5.550402e+02
1.858079e+03,5.583298e+02
1.860972e+03,5.550534e+02
1.863865e+03,5.592623e+02
1.866758e+03,5.439103e+02
1.869650e+03,5.537701e+02
1.872543e+03,5.538034e+02
1.875436e+03,5.558106e+02
1.878328e+03,5.443874e+02
1.881221e+03,5.527332e+02
1.884114e+03,5.479208e+02
1.887006e+03,5.492236e+02
1.889899e+03,5.564574e+02
1.892792e+03,5.472405e+02
1.895685e+03,5.390513e+02
1.898577e+03,5.440145e+02
1.901470e+03,5.384558e+02
1.904363e+03,5.423031e+02
1.907255e+03,5.370859e+02
1.910148e+03,5.378251e+02
1.913041e+03,5.412830e+02
1.915933e+03,5.391934e+02
1.918826e+03,5.338035e+02
1.921719e+03,5.291316e+02
1.924612e+03,5.348406e+02
1.927504e+03,5.198140e+02
1.930397e+03,5.341064e+02
1.933290e+03,5.230144e+02
1.936182e+03,5.322963e+02
1.939075e+03,5.125015e+02
1.941968e+03,5.292778e+02
1.944860e+03,5.228535e+02
1.947753e+03,5.228829e+02
1.950646e+03,5.079824e+02
1.953539e+03,5.168360e+02
1.956431e+03,5.163087e+02
1.959324e+03,5.182192e+02
1.962217e+03,5.084898e+02
1.965109e+03,5.054114e+02
1.968002e+03,5.053059e+02
1.970895e+03,4.984179e+02
1.973787e+03,5.013176e+02
1.976680e+03,5.000223e+02
1.979573e+03,4.987959e+02
1.982466e+03,5.137415e+02
1.985358e+03,4.981785e+02
1.988251e+03,4.914807e+02
1.991144e+03,4.810654e+02
1.994036e+03,4.933384e+02
1.996929e+03,4.879484e+02
1.999822e+03,4.954922e+02
2.002714e+03,4.937369e+02
2.005607e+03,4.865355e+02
2.008500e+03,4.799164e+02
2.011393e+03,4.782808e+02
2.014285e+03,4.773598e+02
2.017178e+03,4.894198e+02
2.020071e+03,4.715443e+02
2.022963e+03,4.761066e+02
2.025856e+03,4.812182e+02
2.028749e+03,4.713179e+02
2.031641e+03,4.747976e+02
2.034534e+03,4.824253e+02
2.037427e+03,4.651127e+02
2.040320e+03,4.622383e+02
2.043212e+03,4.663877e+02
2.046105e+03,4.719917e+02
2.048998e+03,4.607624e+02
2.051890e+03,4.578720e+02
2.054783e+03,4.627187e+02
2.057676e+03,4.581089e+02
2.060568e+03,4.595269e+02
2.063461e+03,4.606675e+02
2.066354e+03,4.611265e+02
2.069247e+03,4.553993e+02
2.072139e+03,4.633047e+02
2.075032e+03,4.515330e+02
2.077925e+03,4.631581e+02
2.080817e+03,4.534665e+02
2.083710e+03,4.529660e+02
2.086603e+03,4.417372e+02
2.089496e+03,4.474643e+02
2.092388e+03,4.444878e+02
2.095281e+03,4.485074e+02
2.098174e+03,4.506491e+02
2.101066e+03,4.431908e+02
2.103959e+03,4.278327e+02
2.106852e+03,4.407913e+02
2.109744e+03,4.421999e+02
2.112637e+03,4.382709e+02
2.115530e+03,4.318465e+02
2.118422e+03,4.261192e+02
2.121315e+03,4.347275e+02
2.124208e+03,4.344164e+02
2.127101e+03,4.237289e+02
2.129993e+03,4.241239e+02
2.132886e+03,4.288423e+02
2.135779e+03,4.165215e+02
2.138671e+03,4.284577e+02
2.141564e+03,4.281039e+02
2.144457e+03,4.241939e+02
2.147350e+03,4.037452e+02
2.150242e+03,4.178282e+02
2.153135e+03,4.223209e+02
2.156028e+03,4.135850e+02
2.158920e+03,4.065698e+02
2.161813e+03,4.155975e+02
2.164706e+03,4.079683e+02
2.167598e+03,4.077892e+02
2.170491e+03,4.097777e+02
2.173384e+03,4.055606e+02
2.176277e+03,4.018017e+02
2.179169e+03,4.029367e+02
2.182062e+03,3.985913e+02
2.184955e+03,3.985163e+02
2.187847e+03,3.949651e+02
2.190740e+03,3.996754e+02
2.193633e+03,3.881658e+02
2.196525e+03,4.003554e+02
2.199418e+03,3.937338e+02
2.202311e+03,3.932816e+02
2.205204e+03,4.007603e+02
2.208096e+03,3.890541e+02
2.210989e+03,3.865804e+02
2.213882e+03,3.834393e+02
2.216774e+03,3.852671e+02
2.219667e+03,3.877075e+02
2.222560e+03,3.802705e+02
2.225452e+03,3.823676e+02
2.228345e+03,3.850834e+02
2.231238e+03,3.927713e+02
2.234131e+03,3.779470e+02
2.237023e+03,3.923019e+02
2.239916e+03,3.859110e+02
2.242809e+03,3.696114e+02
2.245701e+03,3.831397e+02
2.248594e+03,3.691595e+02
2.251487e+03,3.725666e+02
2.254379e+03,3.760132e+02
2.257272e+03,3.813304e+02
2.260165e+03,3.689112e+02
2.263058e+03,3.760876e+02
2.265950e+03,3.713174e+02
2.268843e+03,3.640627e+02
2.271736e+03,3.697972e+02
2.274628e+03,3.631049e+02
2.277521e+03,3.658678e+02
2.280414e+03,3.592125e+02
2.283306e+03,3.593744e+02
2.286199e+03,3.710528e+02
2.289092e+03,3.492958e+02
2.291985e+03,3.590975e+02
2.294877e+03,3.621165e+02
2.297770e+03,3.567697e+02
2.300663e+03,3.595150e+02
2.303555e+03,3.539738e+02
2.306448e+03,3.431049e+02
2.309341e+03,3.540913e+02
2.312233e+03,3.467486e+02
2.315126e+03,3.448258e+02
2.318019e+03,3.507772e+02
2.320912e+03,3.410931e+02
2.323804e+03,3.431731e+02
2.326697e+03,3.476202e+02
2.329590e+03,3.464182e+02
2.332482e+03,3.391889e+02
2.335375e+03,3.390965e+02
2.338268e+03,3.417656e+02
2.341160e+03,3.331357e+02
2.344053e+03,3.462953e+02
2.346946e+03,3.365730e+02
2.349839e+03,3.312542e+02
2.352731e+03,3.339074e+02
2.355624e+03,3.363197e+02
2.358517e+03,3.337751e+02
2.361409e+03,3.422073e+02
2.364302e+03,3.413387e+02
2.367195e+03,3.316776e+02
2.370087e+03,3.388878e+02
2.372980e+03,3.331519e+02
2.375873e+03,3.364255e+02
2.378766e+03,3.280457e+02
2.381658e+03,3.265073e+02
2.384551e+03,3.245465e+02
2.387444e+03,3.230342e+02
2.390336e+03,3.222451e+02
2.393229e+03,3.207912e+02
2.396122e+03,3.244478e+02
2.399014e+03,3.243566e+02
2.401907e+03,3.200347e+02
2.404800e+03,3.222833e+02
2.407693e+03,3.257952e+02
2.410585e+03,3.160031e+02
2.413478e+03,3.163555e+02
2.416371e+03,3.166968e+02
2.419263e+03,3.211647e+02
2.422156e+03,3.232559e+02
2.425049e+03,3.123012e+02
2.427941e+03,3.141837e+02
2.430834e+03,3.154152e+02
2.433727e+03,3.116483e+02
2.436620e+03,3.186245e+02
2.439512e+03,3.061640e+02
2.442405e+03,3.096518e+02
2.445298e+03,3.084213e+02
2.448190e+03,3.084817e+02
2.451083e+03,3.021712e+02
2.453976e+03,3.094112e+02
2.456868e+03,3.028226e+02
2.459761e+03,3.030357e+02
2.462654e+03,3.007539e+02
2.465547e+03,2.957132e+02
2.468439e+03,2.955240e+02
2.471332e+03,2.971880e+02
2.474225e+03,2.967355e+02
2.477117e+03,3.057025e+02
2.480010e+03,3.011529e+02
2.482903e+03,2.933555e+02
2.485795e+03,2.926968e+02
2.488688e+03,3.045729e+02
2.491581e+03,2.902240e+02
2.494474e+03,2.884861e+02
2.497366e+03,3.002404e+02
2.500259e+03,2.924160e+02
2.503152e+03,2.927980e+02
2.506044e+03,2.935532e+02
2.508937e+03,2.911037e+02
2.511830e+03,2.939083e+02
2.514722e+03,2.905338e+02
2.517615e+03,2.870717e+02
2.520508e+03,2.926210e+02
2.523401e+03,2.889308e+02
2.526293e+03,2.865938e+02
2.529186e+03,2.780022e+02
2.532079e+03,2.894959e+02
2.534971e+03,2.882391e+02
2.537864e+03,2.876566e+02
2.540757e+03,2.865834e+02
2.543649e+03,2.911631e+02
2.546542e+03,2.904727e+02
2.549435e+03,2.910474e+02
2.552328e+03,2.883253e+02
2.555220e+03,2.845014e+02
2.558113e+03,2.901833e+02
2.561006e+03,2.943166e+02
2.563898e+03,2.931507e+02
2.566791e+03,2.835960e+02
2.569684e+03,2.882689e+02
2.572576e+03,2.873190e+02
2.575469e+03,2.945776e+02
2.578362e+03,2.855450e+02
2.581255e+03,2.847409e+02
2.584147e+03,2.702719e+02
2.587040e+03,2.762059e+02
2.589933e+03,2.817986e+02
2.592825e+03,2.750997e+02
2.595718e+03,2.810760e+02
2.598611e+03,2.677068e+02
2.601503e+03,2.723217e+02
2.604396e+03,2.671042e+02
2.607289e+03,2.755135e+02
2.610182e+03,2.654947e+02
2.613074e+03,2.708521e+02
2.615967e+03,2.717549e+02
2.618860e+03,2.624800e+02
2.621752e+03,2.656226e+02
2.624645e+03,2.736577e+02
2.627538e+03,2.624348e+02
2.630430e+03,2.667516e+02
2.633323e+03,2.665771e+02
2.636216e+03,2.628424e+02
2.639109e+03,2.589473e+02
2.642001e+03,2.666018e+02
2.644894e+03,2.633907e+02
2.647787e+03,2.572163e+02
2.650679e+03,2.590794e+02
2.653572e+03,2.632790e+02
2.656465e+03,2.700800e+02
2.659357e+03,2.588189e+02
2.662250e+03,2.628945e+02
2.665143e+03,2.581073e+02
2.668036e+03,2.539280e+02
2.670928e+03,2.545493e+02
2.673821e+03,2.585995e+02
2.676714e+03,2.511516e+02
2.679606e+03,2.618134e+02
2.682499e+03,2.635494e+02
2.685392e+03,2.580939e+02
2.688284e+03,2.581749e+02
2.691177e+03,2.594327e+02
2.694070e+03,2.482620e+02
2.696963e+03,2.575527e+02
2.699855e+03,2.523447e+02
2.702748e+03,2.498071e+02
2.705641e+03,2.573981e+02
2.708533e+03,2.626082e+02
2.711426e+03,2.448719e+02
2.714319e+03,2.637226e+02
2.717211e+03,2.538259e+02
2.720104e+03,2.564304e+02
2.722997e+03,2.554049e+02
2.725890e+03,2.519369e+02
2.728782e+03,2.562198e+02
2.731675e+03,2.483091e+02
2.734568e+03,2.549564e+02
2.737460e+03,2.519055e+02
2.740353e+03,2.492097e+02
2.743246e+03,2.487176e+02
2.746138e+03,2.568811e+02
2.749031e+03,2.490885e+02
2.751924e+03,2.458430e+02
2.754817e+03,2.564641e+02
2.757709e+03,2.486069e+02
2.760602e+03,2.515290e+02
2.763495e+03,2.484760e+02
2.766387e+03,2.542746e+02
2.769280e+03,2.495834e+02
2.772173e+03,2.398113e+02
2.775065e+03,2.508001e+02
2.777958e+03,2.454727e+02
2.780851e+03,2.510119e+02
2.783744e+03,2.556895e+02
2.786636e+03,2.426043e+02
2.789529e+03,2.421114e+02
2.792422e+03,2.475236e+02
2.795314e+03,2.460175e+02
2.798207e+03,2.369709e+02
2.801100e+03,2.536382e+02
2.803992e+03,2.444014e+02
2.806885e+03,2.401066e+02
2.809778e+03,2.480750e+02
2.812671e+03,2.429218e+02
2.815563e+03,2.385470e+02
2.818456e+03,2.425797e+02
2.821349e+03,2.603873e+02
2.824241e+03,2.401524e+02
2.827134e+03,2.439059e+02
2.830027e+03,2.474505e+02
2.832919e+03,2.425822e+02
2.835812e+03,2.443812e+02
2.838705e+03,2.542378e+02
2.841598e+03,2.506003e+02
2.844490e+03,2.499013e+02
2.847383e+03,2.491135e+02
2.850276e+03,2.470036e+02
2.853168e+03,2.610022e+02
2.856061e+03,2.673063e+02
2.858954e+03,2.530525e+02
2.861846e+03,2.653532e+02
2.864739e+03,2.463937e+02
2.867632e+03,2.709179e+02
2.870525e+03,2.679937e+02
2.873417e+03,2.737359e+02
2.876310e+03,2.882372e+02
2.879203e+03,2.837764e+02
2.882095e+03,2.781661e+02
2.884988e+03,2.850218e+02
2.887881e+03,2.898672e+02
2.890773e+03,2.817384e+02
2.893666e+03,2.888474e+02
2.896559e+03,2.920966e+02
2.899452e+03,2.975663e+02
2.902344e+03,2.861757e+02
2.905237e+03,2.828055e+02
2.908130e+03,2.841886e+02
2.911022e+03,2.863773e+02
2.913915e+03,2.399609e+02
2.916808e+03,2.820901e+02
2.919700e+03,2.641561e+02
2.922593e+03,2.456190e+02
2.925486e+03,2.606012e+02
2.928379e+03,2.521125e+02
2.931271e+03,2.682127e+02
2.934164e+03,2.559053e+02
2.937057e+03,2.405792e+02
2.939949e+03,2.572976e+02
2.942842e+03,2.499635e+02
2.945735e+03,2.529039e+02
2.948627e+03,2.519826e+02
2.951520e+03,2.472615e+02
2.954413e+03,2.467856e+02
2.957306e+03,2.857138e+02
2.960198e+03,2.693861e+02
2.963091e+03,2.557413e+02
2.965984e+03,2.354546e+02
2.968876e+03,2.483391e+02
2.971769e+03,2.394405e+02
2.974662e+03,2.396159e+02
2.977554e+03,2.413118e+02
2.980447e+03,2.399907e+02
2.983340e+03,2.245608e+02
2.986233e+03,2.262981e+02
2.989125e+03,2.375361e+02
2.992018e+03,2.226871e+02
2.994911e+03,2.176809e+02
2.997803e+03,2.354900e+02
3.000696e+03,2.185072e+02
3.003589e+03,2.121792e+02
3.006481e+03,2.377065e+02
3.009374e+03,2.159800e+02
3.012267e+03,2.437015e+02
3.015160e+03,2.287398e+02
3.018052e+03,2.034820e+02
3.020945e+03,2.129135e+02
3.023838e+03,2.128225e+02
3.026730e+03,2.045408e+02
3.029623e+03,2.208643e+02
3.032516e+03,2.083400e+02
3.035408e+03,2.212039e+02
3.038301e+03,2.032463e+02
3.041194e+03,2.160577e+02
3.044087e+03,2.111931e+02
3.046979e+03,2.102191e+02
3.049872e+03,2.186413e+02
3.052765e+03,2.072714e+02
3.055657e+03,2.237587e+02
3.058550e+03,2.009791e+02
3.061443e+03,2.200280e+02
3.064335e+03,2.143542e+02
3.067228e+03,2.142099e+02
3.070121e+03,2.222945e+02
3.073014e+03,1.896344e+02
3.075906e+03,2.227141e+02
3.078799e+03,2.204888e+02
3.081692e+03,2.201833e+02
3.084584e+03,2.174959e+02
3.087477e+03,2.117467e+02
3.090370e+03,2.155744e+02
3.093262e+03,2.018095e+02
3.096155e+03,2.106385e+02
3.099048e+03,2.040562e+02
3.101941e+03,2.232386e+02
3.104833e+03,1.888045e+02
3.107726e+03,2.453802e+02
3.110619e+03,2.013165e+02
3.113511e+03,2.004157e+02
3.116404e+03,2.247741e+02
3.119297e+03,2.258719e+02
3.122189e+03,2.308054e+02
3.125082e+03,2.205336e+02
3.127975e+03,2.234560e+02
3.130868e+03,2.194987e+02
3.133760e+03,2.265040e+02
3.136653e+03,1.975196e+02
3.139546e+03,2.226516e+02
3.142438e+03,2.262283e+02
3.145331e+03,2.087662e+02
3.148224e+03,2.183896e+02
3.151116e+03,2.015268e+02
3.154009e+03,2.243858e+02
3.156902e+03,2.154536e+02
3.159795e+03,2.113630e+02
3.162687e+03,2.157158e+02
3.165580e+03,2.347370e+02
3.168473e+03,2.412734e+02
3.171365e+03,2.183667e+02
3.174258e+03,2.275637e+02
3.177151e+03,2.218890e+02
3.180043e+03,2.153460e+02
3.182936e+03,2.209934e+02
3.185829e+03,2.326337e+02
3.188722e+03,1.913308e+02
3.191614e+03,2.466119e+02
3.194507e+03,2.340453e+02
3.197400e+03,1.891653e+02
3.200292e+03,2.414054e+02
3.203185e+03,0.000000e+00
3.206078e+03,0.000000e+00
3.208970e+03,0.000000e+00
3.211863e+03,0.000000e+00
3.214756e+03,0.000000e+00
3.217649e+03,0.000000e+00
3.220541e+03,0.000000e+00
3.223434e+03,0.000000e+00
3.226327e+03,0.000000e+00
3.229219e+03,0.000000e+00
3.232112e+03,0.000000e+00
3.235005e+03,0.000000e+00
3.237897e+03,0.000000e+00
3.240790e+03,0.000000e+00
3.243683e+03,0.000000e+00
3.246576e+03,0.000000e+00
3.249468e+03,0.000000e+00
3.252361e+03,0.000000e+00
3.255254e+03,0.000000e+00
3.258146e+03,0.000000e+00
3.261039e+03,0.000000e+00
3.263932e+03,0.000000e+00
3.266824e+03,0.000000e+00
3.269717e+03,0.000000e+00
3.272610e+03,0.000000e+00
3.275503e+03,0.000000e+00
3.278395e+03,0.000000e+00
3.281288e+03,0.000000e+00
3.284181e+03,0.000000e+00
3.287073e+03,0.000000e+00
3.289966e+03,0.000000e+00
3.292859e+03,0.000000e+00
3.295751e+03,0.000000e+00
3.298644e+03,0.000000e+00
3.301537e+03,0.000000e+00
3.304430e+03,0.000000e+00
3.307322e+03,0.000000e+00
3.310215e+03,0.000000e+00
3.313108e+03,0.000000e+00
3.316000e+03,0.000000e+00
3.318893e+03,0.000000e+00
3.321786e+03,0.000000e+00
3.324678e+03,0.000000e+00
3.327571e+03,0.000000e+00
3.330464e+03,0.000000e+00
3.333357e+03,0.000000e+00
3.336249e+03,0.000000e+00
3.339142e+03,0.000000e+00
3.342035e+03,0.000000e+00
3.344927e+03,0.000000e+00
3.347820e+03,0.000000e+00
3.350713e+03,0.000000e+00
3.353605e+03,0.000000e+00
3.356498e+03,0.000000e+00
3.359391e+03,0.000000e+00
3.362284e+03,0.000000e+00
3.365176e+03,0.000000e+00
3.368069e+03,0.000000e+00
3.370962e+03,0.000000e+00
3.373854e+03,0.000000e+00
3.376747e+03,0.000000e+00
3.379640e+03,0.000000e+00
3.382532e+03,0.000000e+00
3.385425e+03,0.000000e+00
3.388318e+03,0.000000e+00
3.391211e+03,0.000000e+00
3.394103e+03,0.000000e+00
3.396996e+03,0.000000e+00
3.399889e+03,0.000000e+00
3.402781e+03,0.000000e+00
3.405674e+03,0.000000e+00
3.408567e+03,0.000000e+00
3.411459e+03,0.000000e+00
3.414352e+03,0.000000e+00
3.417245e+03,0.000000e+00
3.420138e+03,0.000000e+00
3.423030e+03,0.000000e+00
3.425923e+03,0.000000e+00
3.428816e+03,0.000000e+00
3.431708e+03,0.000000e+00
3.434601e+03,0.000000e+00
3.437494e+03,0.000000e+00
3.440386e+03,0.000000e+00
3.443279e+03,0.000000e+00
3.446172e+03,0.000000e+00
3.449065e+03,0.000000e+00
3.451957e+03,0.000000e+00
3.454850e+03,0.000000e+00
3.457743e+03,0.000000e+00
3.460635e+03,0.000000e+00
3.463528e+03,0.000000e+00
3.466421e+03,0.000000e+00
3.469313e+03,0.000000e+00
3.472206e+03,0.000000e+00
3.475099e+03,0.000000e+00
3.477992e+03,0.000000e+00
3.480884e+03,0.000000e+00
3.483777e+03,0.000000e+00
3.486670e+03,0.000000e+00
3.489563e+03,0.000000e+00
3.492455e+03,0.000000e+00
3.495348e+03,0.000000e+00
3.498240e+03,0.000000e+00
3.500169e+03,0.000000e+00