File: RAMAN_data/12022024_r2/red fibre1.CSV
9.931763e+01,0.000000e+00
1.022103e+02,0.000000e+00
1.051030e+02,0.000000e+00
1.079957e+02,0.000000e+00
1.108884e+02,0.000000e+00
1.137811e+02,0.000000e+00
1.166738e+02,0.000000e+00
1.195665e+02,0.000000e+00
1.224592e+02,0.000000e+00
1.253519e+02,0.000000e+00
1.282446e+02,0.000000e+00
1.311373e+02,0.000000e+00
1.340300e+02,0.000000e+00
1.369227e+02,0.000000e+00
1.398154e+02,0.000000e+00
1.427081e+02,0.000000e+00
1.456008e+02,0.000000e+00
1.484935e+02,0.000000e+00
1.513862e+02,0.000000e+00
1.542789e+02,0.000000e+00
1.571716e+02,0.000000e+00
1.600643e+02,0.000000e+00
1.629570e+02,0.000000e+00
1.658497e+02,0.000000e+00
1.687424e+02,0.000000e+00
1.716351e+02,0.000000e+00
1.745278e+02,0.000000e+00
1.774205e+02,0.000000e+00
1.803132e+02,0.000000e+00
1.832059e+02,0.000000e+00
1.860986e+02,0.000000e+00
1.889913e+02,0.000000e+00
1.918840e+02,0.000000e+00
1.947767e+02,0.000000e+00
1.976694e+02,0.000000e+00
2.005621e+02,2.555344e+03
2.034548e+02,2.553173e+03
2.063475e+02,2.561733e+03
2.092402e+02,2.556980e+03
2.121329e+02,2.562102e+03
2.150256e+02,2.551009e+03
2.179183e+02,2.552813e+03
2.208110e+02,2.565943e+03
2.237037e+02,2.560298e+03
2.265964e+02,2.551595e+03
2.294892e+02,2.563099e+03
2.323819e+02,2.574943e+03
2.352746e+02,2.564825e+03
2.381673e+02,2.566853e+03
2.410600e+02,2.582132e+03
2.439527e+02,2.562827e+03
2.468454e+02,2.563332e+03
2.497381e+02,2.575851e+03
2.526308e+02,2.603533e+03
2.555235e+02,2.566515e+03
2.584161e+02,2.575645e+03
2.613088e+02,2.580538e+03
2.642015e+02,2.575539e+03
2.670942e+02,2.573254e+03
2.699869e+02,2.583077e+03
2.728796e+02,2.583015e+03
2.757723e+02,2.574365e+03
2.786650e+02,2.581455e+03
2.815577e+02,2.573976e+03
2.844504e+02,2.598039e+03
2.873431e+02,2.589136e+03
2.902358e+02,2.588471e+03
2.931285e+02,2.580798e+03
2.960212e+02,2.590175e+03
2.989139e+02,2.595964e+03
3.018066e+02,2.596903e+03
3.046993e+02,2.575743e+03
3.075920e+02,2.571700e+03
3.104847e+02,2.571549e+03
3.133774e+02,2.586403e+03
3.162701e+02,2.576797e+03
3.191628e+02,2.576660e+03
3.220555e+02,2.596487e+03
3.249482e+02,2.590909e+03
3.278409e+02,2.587445e+03
3.307336e+02,2.584524e+03
3.336263e+02,2.578342e+03
3.365190e+02,2.570289e+03
3.394117e+02,2.585831e+03
3.423044e+02,2.563805e+03
3.451971e+02,2.582707e+03
3.480898e+02,2.582734e+03
3.509825e+02,2.578754e+03
3.538752e+02,2.590564e+03
3.567680e+02,2.579075e+03
3.596607e+02,2.575256e+03
3.625534e+02,2.584947e+03
3.654461e+02,2.569521e+03
3.683388e+02,2.553398e+03
3.712315e+02,2.584168e+03
3.741242e+02,2.590614e+03
3.770169e+02,2.595926e+03
3.799096e+02,2.583015e+03
3.828023e+02,2.581093e+03
3.856950e+02,2.560098e+03
3.885877e+02,2.562653e+03
3.914804e+02,2.553625e+03
3.943731e+02,2.538056e+03
3.972658e+02,2.553252e+03
4.001585e+02,2.549728e+03
4.030512e+02,2.538230e+03
4.059439e+02,2.543761e+03
4.088366e+02,2.537918e+03
4.117293e+02,2.536544e+03
4.146220e+02,2.534527e+03
4.175147e+02,2.533610e+03
4.204074e+02,2.523540e+03
4.233001e+02,2.535583e+03
4.261928e+02,2.537998e+03
4.290855e+02,2.540398e+03
4.319782e+02,2.545831e+03
4.348709e+02,2.542454e+03
4.377636e+02,2.538059e+03
4.406563e+02,2.517070e+03
4.435490e+02,2.509387e+03
4.464417e+02,2.509918e+03
4.493344e+02,2.529880e+03
4.522271e+02,2.513504e+03
4.551198e+02,2.520747e+03
4.580125e+02,2.511646e+03
4.609052e+02,2.516947e+03
4.637979e+02,2.511602e+03
4.666906e+02,2.488281e+03
4.695833e+02,2.496235e+03
4.724760e+02,2.481188e+03
4.753687e+02,2.499381e+03
4.782614e+02,2.492240e+03
4.811541e+02,2.487438e+03
4.840468e+02,2.477147e+03
4.869395e+02,2.468598e+03
4.898322e+02,2.467479e+03
4.927249e+02,2.473474e+03
4.956176e+02,2.473703e+03
4.985103e+02,2.466020e+03
5.014030e+02,2.465119e+03
5.042957e+02,2.457050e+03
5.071884e+02,2.455954e+03
5.100811e+02,2.457377e+03
5.129738e+02,2.475891e+03
5.158665e+02,2.477863e+03
5.187592e+02,2.465751e+03
5.216519e+02,2.447023e+03
5.245446e+02,2.459809e+03
5.274373e+02,2.460000e+03
5.303300e+02,2.444528e+03
5.332227e+02,2.431860e+03
5.361154e+02,2.438352e+03
5.390081e+02,2.438648e+03
5.419008e+02,2.431133e+03
5.447935e+02,2.438732e+03
5.476862e+02,2.434750e+03
5.505789e+02,2.425389e+03
5.534716e+02,2.419476e+03
5.563643e+02,2.403769e+03
5.592570e+02,2.416535e+03
5.621497e+02,2.409849e+03
5.650424e+02,2.410794e+03
5.679351e+02,2.394352e+03
5.708278e+02,2.389710e+03
5.737205e+02,2.408318e+03
5.766132e+02,2.404797e+03
5.795059e+02,2.402520e+03
5.823986e+02,2.397033e+03
5.852913e+02,2.399096e+03
5.881840e+02,2.393156e+03
5.910767e+02,2.396356e+03
5.939694e+02,2.388601e+03
5.968621e+02,2.386275e+03
5.997548e+02,2.369577e+03
6.026475e+02,2.376895e+03
6.055402e+02,2.391234e+03
6.084329e+02,2.376813e+03
6.113256e+02,2.369043e+03
6.142183e+02,2.360062e+03
6.171110e+02,2.353924e+03
6.200037e+02,2.348248e+03
6.228964e+02,2.365172e+03
6.257891e+02,2.364833e+03
6.286818e+02,2.352262e+03
6.315745e+02,2.354427e+03
6.344672e+02,2.351588e+03
6.373599e+02,2.349341e+03
6.402526e+02,2.329232e+03
6.431453e+02,2.342845e+03
6.460380e+02,2.335112e+03
6.489307e+02,2.333683e+03
6.518234e+02,2.329327e+03
6.547161e+02,2.322858e+03
6.576088e+02,2.321435e+03
6.605015e+02,2.311257e+03
6.633942e+02,2.302365e+03
6.662869e+02,2.295520e+03
6.691796e+02,2.303657e+03
6.720723e+02,2.317852e+03
6.749650e+02,2.307639e+03
6.778577e+02,2.288186e+03
6.807504e+02,2.285755e+03
6.836431e+02,2.296915e+03
6.865358e+02,2.291697e+03
6.894285e+02,2.289303e+03
6.923212e+02,2.281103e+03
6.952139e+02,2.266295e+03
6.981066e+02,2.260613e+03
7.009993e+02,2.265022e+03
7.038920e+02,2.261302e+03
7.067847e+02,2.256680e+03
7.096774e+02,2.262210e+03
7.125701e+02,2.261239e+03
7.154628e+02,2.271458e+03
7.183555e+02,2.252773e+03
7.212482e+02,2.244733e+03
7.241409e+02,2.251612e+03
7.270336e+02,2.234750e+03
7.299263e+02,2.229130e+03
7.328190e+02,2.232107e+03
7.357117e+02,2.230815e+03
7.386044e+02,2.220083e+03
7.414971e+02,2.224614e+03
7.443898e+02,2.216211e+03
7.472825e+02,2.223877e+03
7.501752e+02,2.206644e+03
7.530679e+02,2.208241e+03
7.559606e+02,2.196508e+03
7.588533e+02,2.196818e+03
7.617460e+02,2.207630e+03
7.646387e+02,2.204560e+03
7.675314e+02,2.201303e+03
7.704241e+02,2.195142e+03
7.733168e+02,2.178225e+03
7.762095e+02,2.196245e+03
7.791022e+02,2.185731e+03
7.819949e+02,2.165987e+03
7.848876e+02,2.174544e+03
7.877803e+02,2.168055e+03
7.906730e+02,2.168921e+03
7.935657e+02,2.169660e+03
7.964584e+02,2.163005e+03
7.993511e+02,2.150971e+03
8.022438e+02,2.156295e+03
8.051365e+02,2.153432e+03
8.080292e+02,2.140107e+03
8.109219e+02,2.135263e+03
8.138146e+02,2.132342e+03
8.167073e+02,2.134359e+03
8.196000e+02,2.136209e+03
8.224927e+02,2.129045e+03
8.253854e+02,2.130009e+03
8.282781e+02,2.115713e+03
8.311708e+02,2.123609e+03
8.340635e+02,2.114681e+03
8.369562e+02,2.129051e+03
8.398489e+02,2.113243e+03
8.427416e+02,2.120483e+03
8.456343e+02,2.116130e+03
8.485270e+02,2.099546e+03
8.514197e+02,2.101751e+03
8.543124e+02,2.092289e+03
8.572051e+02,2.098154e+03
8.600978e+02,2.085079e+03
8.629905e+02,2.091248e+03
8.658832e+02,2.091585e+03
8.687759e+02,2.082827e+03
8.716686e+02,2.094218e+03
8.745613e+02,2.078535e+03
8.774540e+02,2.086564e+03
8.803467e+02,2.080789e+03
8.832394e+02,2.079391e+03
8.861321e+02,2.073608e+03
8.890248e+02,2.066932e+03
8.919175e+02,2.053537e+03
8.948102e+02,2.053310e+03
8.977029e+02,2.053523e+03
9.005956e+02,2.058025e+03
9.034883e+02,2.043141e+03
9.063810e+02,2.042968e+03
9.092737e+02,2.025234e+03
9.121664e+02,2.042381e+03
9.150591e+02,2.031037e+03
9.179518e+02,2.040479e+03
9.208445e+02,2.016292e+03
9.237372e+02,2.027268e+03
9.266299e+02,2.012775e+03
9.295226e+02,2.019945e+03
9.324153e+02,1.995033e+03
9.353080e+02,1.993990e+03
9.382007e+02,1.992662e+03
9.410934e+02,1.997289e+03
9.439861e+02,1.997780e+03
9.468788e+02,1.996300e+03
9.497715e+02,1.988575e+03
9.526642e+02,1.981016e+03
9.555569e+02,1.974796e+03
9.584496e+02,1.982511e+03
9.613423e+02,1.970593e+03
9.642350e+02,1.978940e+03
9.671277e+02,1.973012e+03
9.700204e+02,1.972635e+03
9.729131e+02,1.959663e+03
9.758058e+02,1.958746e+03
9.786985e+02,1.965225e+03
9.815912e+02,1.942467e+03
9.844839e+02,1.939895e+03
9.873766e+02,1.942167e+03
9.902693e+02,1.948199e+03
9.931620e+02,1.943412e+03
9.960547e+02,1.937555e+03
9.989474e+02,1.937261e+03
1.001840e+03,1.930359e+03
1.004733e+03,1.920603e+03
1.007626e+03,1.928207e+03
1.010518e+03,1.931183e+03
1.013411e+03,1.920699e+03
1.016304e+03,1.922388e+03
1.019196e+03,1.919088e+03
1.022089e+03,1.923399e+03
1.024982e+03,1.906078e+03
1.027875e+03,1.912468e+03
1.030767e+03,1.895972e+03
1.033660e+03,1.911284e+03
1.036552e+03,1.906734e+03
1.039445e+03,1.911779e+03
1.042338e+03,1.886617e+03
1.045231e+03,1.891406e+03
1.048123e+03,1.886408e+03
1.051016e+03,1.898368e+03
1.053909e+03,1.895237e+03
1.056802e+03,1.890438e+03
1.059694e+03,1.882386e+03
1.062587e+03,1.889712e+03
1.065479e+03,1.889383e+03
1.068372e+03,1.872006e+03
1.071265e+03,1.879760e+03
1.074158e+03,1.869100e+03
1.077050e+03,1.873858e+03
1.079943e+03,1.874912e+03
1.082836e+03,1.883890e+03
1.085729e+03,1.877286e+03
1.088621e+03,1.887624e+03
1.091514e+03,1.898999e+03
1.094406e+03,1.890413e+03
1.097299e+03,1.874166e+03
1.100192e+03,1.868892e+03
1.103085e+03,1.868194e+03
1.105977e+03,1.861061e+03
1.108870e+03,1.866906e+03
1.111763e+03,1.846589e+03
1.114656e+03,1.858042e+03
1.117548e+03,1.857190e+03
1.120441e+03,1.860490e+03
1.123334e+03,1.849916e+03
1.126226e+03,1.849455e+03
1.129119e+03,1.835728e+03
1.132012e+03,1.824195e+03
1.134904e+03,1.828910e+03
1.137797e+03,1.820982e+03
1.140690e+03,1.819005e+03
1.143583e+03,1.808493e+03
1.146475e+03,1.817184e+03
1.149368e+03,1.812024e+03
1.152261e+03,1.813756e+03
1.155153e+03,1.804416e+03
1.158046e+03,1.794690e+03
1.160939e+03,1.803248e+03
1.163831e+03,1.798549e+03
1.166724e+03,1.791312e+03
1.169617e+03,1.790085e+03
1.172510e+03,1.789636e+03
1.175402e+03,1.782888e+03
1.178295e+03,1.778404e+03
1.181188e+03,1.780698e+03
1.184080e+03,1.780734e+03
1.186973e+03,1.763699e+03
1.189866e+03,1.765160e+03
1.192758e+03,1.759743e+03
1.195651e+03,1.771340e+03
1.198544e+03,1.769591e+03
1.201437e+03,1.763381e+03
1.204329e+03,1.766027e+03
1.207222e+03,1.756140e+03
1.210115e+03,1.753708e+03
1.213007e+03,1.754305e+03
1.215900e+03,1.738207e+03
1.218793e+03,1.748895e+03
1.221685e+03,1.756181e+03
1.224578e+03,1.757112e+03
1.227471e+03,1.756979e+03
1.230364e+03,1.749711e+03
1.233256e+03,1.738142e+03
1.236149e+03,1.736877e+03
1.239042e+03,1.738914e+03
1.241934e+03,1.736597e+03
1.244827e+03,1.742084e+03
1.247720e+03,1.724805e+03
1.250612e+03,1.730934e+03
1.253505e+03,1.733756e+03
1.256398e+03,1.742968e+03
1.259291e+03,1.723145e+03
1.262183e+03,1.723370e+03
1.265076e+03,1.719664e+03
1.267969e+03,1.720869e+03
1.270861e+03,1.727769e+03
1.273754e+03,1.724975e+03
1.276647e+03,1.717757e+03
1.279539e+03,1.709366e+03
1.282432e+03,1.710408e+03
1.285325e+03,1.711057e+03
1.288218e+03,1.714204e+03
1.291110e+03,1.724699e+03
1.294003e+03,1.712514e+03
1.296896e+03,1.697006e+03
1.299788e+03,1.691651e+03
1.302681e+03,1.698985e+03
1.305574e+03,1.699362e+03
1.308466e+03,1.691561e+03
1.311359e+03,1.686913e+03
1.314252e+03,1.681310e+03
1.317145e+03,1.689336e+03
1.320037e+03,1.702770e+03
1.322930e+03,1.698918e+03
1.325823e+03,1.696056e+03
1.328715e+03,1.686641e+03
1.331608e+03,1.683750e+03
1.334501e+03,1.692786e+03
1.337393e+03,1.689268e+03
1.340286e+03,1.690750e+03
1.343179e+03,1.678915e+03
1.346072e+03,1.679261e+03
1.348964e+03,1.686013e+03
1.351857e+03,1.668338e+03
1.354750e+03,1.668375e+03
1.357642e+03,1.665747e+03
1.360535e+03,1.663554e+03
1.363428e+03,1.663736e+03
1.366320e+03,1.657332e+03
1.369213e+03,1.660423e+03
1.372106e+03,1.662867e+03
1.374999e+03,1.666970e+03
1.377891e+03,1.670390e+03
1.380784e+03,1.648762e+03
1.383677e+03,1.652666e+03
1.386569e+03,1.661666e+03
1.389462e+03,1.627740e+03
1.392355e+03,1.631635e+03
1.395247e+03,1.627919e+03
1.398140e+03,1.624994e+03
1.401033e+03,1.637712e+03
1.403926e+03,1.629643e+03
1.406818e+03,1.636673e+03
1.409711e+03,1.626691e+03
1.412604e+03,1.615722e+03
1.415496e+03,1.625738e+03
1.418389e+03,1.623234e+03
1.421282e+03,1.605294e+03
1.424174e+03,1.608271e+03
1.427067e+03,1.624327e+03
1.429960e+03,1.608553e+03
1.432853e+03,1.604225e+03
1.435745e+03,1.603511e+03
1.438638e+03,1.591688e+03
1.441531e+03,1.594918e+03
1.444423e+03,1.594829e+03
1.447316e+03,1.594569e+03
1.450209e+03,1.584044e+03
1.453101e+03,1.584911e+03
1.455994e+03,1.583168e+03
1.458887e+03,1.585374e+03
1.461780e+03,1.586473e+03
1.464672e+03,1.579757e+03
1.467565e+03,1.571975e+03
1.470458e+03,1.576830e+03
1.473350e+03,1.571842e+03
1.476243e+03,1.573527e+03
1.479136e+03,1.568765e+03
1.482028e+03,1.565679e+03
1.484921e+03,1.557251e+03
1.487814e+03,1.544327e+03
1.490707e+03,1.559878e+03
1.493599e+03,1.547590e+03
1.496492e+03,1.547816e+03
1.499385e+03,1.538477e+03
1.502277e+03,1.539098e+03
1.505170e+03,1.539499e+03
1.508063e+03,1.537401e+03
1.510955e+03,1.541399e+03
1.513848e+03,1.527049e+03
1.516741e+03,1.525619e+03
1.519634e+03,1.522141e+03
1.522526e+03,1.523250e+03
1.525419e+03,1.527587e+03
1.528312e+03,1.523943e+03
1.531204e+03,1.520454e+03
1.534097e+03,1.513523e+03
1.536990e+03,1.516354e+03
1.539882e+03,1.524540e+03
1.542775e+03,1.504507e+03
1.545668e+03,1.501070e+03
1.548561e+03,1.515176e+03
1.551453e+03,1.509368e+03
1.554346e+03,1.496185e+03
1.557239e+03,1.512283e+03
1.560131e+03,1.498167e+03
1.563024e+03,1.503092e+03
1.565917e+03,1.497758e+03
1.568809e+03,1.497092e+03
1.571702e+03,1.504014e+03
1.574595e+03,1.500300e+03
1.577488e+03,1.484553e+03
1.580380e+03,1.499671e+03
1.583273e+03,1.477376e+03
1.586166e+03,1.489389e+03
1.589058e+03,1.478926e+03
1.591951e+03,1.497857e+03
1.594844e+03,1.486397e+03
1.597736e+03,1.474781e+03
1.600629e+03,1.471180e+03
1.603522e+03,1.475150e+03
1.606415e+03,1.472708e+03
1.609307e+03,1.475454e+03
1.612200e+03,1.470240e+03
1.615093e+03,1.466530e+03
1.617985e+03,1.474664e+03
1.620878e+03,1.448951e+03
1.623771e+03,1.447246e+03
1.626663e+03,1.463907e+03
1.629556e+03,1.445742e+03
1.632449e+03,1.430344e+03
1.635342e+03,1.445705e+03
1.638234e+03,1.430114e+03
1.641127e+03,1.439394e+03
1.644020e+03,1.432562e+03
1.646912e+03,1.425967e+03
1.649805e+03,1.427082e+03
1.652698e+03,1.418671e+03
1.655590e+03,1.412006e+03
1.658483e+03,1.405151e+03
1.661376e+03,1.414680e+03
1.664269e+03,1.409102e+03
1.667161e+03,1.399342e+03
1.670054e+03,1.400523e+03
1.672947e+03,1.387785e+03
1.675839e+03,1.404825e+03
1.678732e+03,1.391520e+03
1.681625e+03,1.386276e+03
1.684517e+03,1.389668e+03
1.687410e+03,1.387386e+03
1.690303e+03,1.392449e+03
1.693196e+03,1.372111e+03
1.696088e+03,1.370822e+03
1.698981e+03,1.367607e+03
1.701874e+03,1.369692e+03
1.704766e+03,1.379034e+03
1.707659e+03,1.356692e+03
1.710552e+03,1.366422e+03
1.713444e+03,1.371158e+03
1.716337e+03,1.370822e+03
1.719230e+03,1.360593e+03
1.722123e+03,1.355576e+03
1.725015e+03,1.355294e+03
1.727908e+03,1.352720e+03
1.730801e+03,1.327679e+03
1.733693e+03,1.341111e+03
1.736586e+03,1.351751e+03
1.739479e+03,1.338481e+03
1.742371e+03,1.336391e+03
1.745264e+03,1.335996e+03
1.748157e+03,1.319805e+03
1.751050e+03,1.330259e+03
1.753942e+03,1.318684e+03
1.756835e+03,1.319159e+03
1.759728e+03,1.325528e+03
1.762620e+03,1.316841e+03
1.765513e+03,1.308934e+03
1.768406e+03,1.316630e+03
1.771298e+03,1.303583e+03
1.774191e+03,1.308351e+03
1.777084e+03,1.314846e+03
1.779977e+03,1.291838e+03
1.782869e+03,1.302259e+03
1.785762e+03,1.301674e+03
1.788655e+03,1.286476e+03
1.791547e+03,1.293578e+03
1.794440e+03,1.288825e+03
1.797333e+03,1.285880e+03
1.800225e+03,1.280791e+03
1.803118e+03,1.287879e+03
1.806011e+03,1.277255e+03
1.808904e+03,1.279093e+03
1.811796e+03,1.277492e+03
1.814689e+03,1.273894e+03
1.817582e+03,1.264603e+03
1.820474e+03,1.265876e+03
1.823367e+03,1.260148e+03
1.826260e+03,1.255991e+03
1.829152e+03,1.249851e+03
1.832045e+03,1.271267e+03
1.834938e+03,1.248327e+03
1.837831e+03,1.252915e+03
1.840723e+03,1.227173e+03
1.843616e+03,1.246439e+03
1.846509e+03,1.246970e+03
1.849401e+03,1.232858e+03
1.852294e+03,1.227545e+03
1.855187e+03,1.235711e+03
1.858079e+03,1.225384e+03
1.860972e+03,1.227260e+03
1.863865e+03,1.231690e+03
1.866758e+03,1.210258e+03
1.869650e+03,1.221358e+03
1.872543e+03,1.224806e+03
1.875436e+03,1.214012e+03
1.878328e+03,1.210446e+03
1.881221e+03,1.194910e+03
1.884114e+03,1.215074e+03
1.887006e+03,1.196207e+03
1.889899e+03,1.192870e+03
1.892792e+03,1.193701e+03
1.895685e+03,1.198501e+03
1.898577e+03,1.194306e+03
1.901470e+03,1.182216e+03
1.904363e+03,1.173957e+03
1.907255e+03,1.187028e+03
1.910148e+03,1.173669e+03
1.913041e+03,1.189743e+03
1.915933e+03,1.165483e+03
1.918826e+03,1.173145e+03
1.921719e+03,1.179215e+03
1.924612e+03,1.155049e+03
1.927504e+03,1.165957e+03
1.930397e+03,1.161869e+03
1.933290e+03,1.163349e+03
1.936182e+03,1.146737e+03
1.939075e+03,1.140946e+03
1.941968e+03,1.141637e+03
1.944860e+03,1.143006e+03
1.947753e+03,1.136875e+03
1.950646e+03,1.139672e+03
1.953539e+03,1.134355e+03
1.956431e+03,1.121318e+03
1.959324e+03,1.146833e+03
1.962217e+03,1.136885e+03
1.965109e+03,1.115045e+03
1.968002e+03,1.122111e+03
1.970895e+03,1.131088e+03
1.973787e+03,1.126585e+03
1.976680e+03,1.112093e+03
1.979573e+03,1.105285e+03
1.982466e+03,1.103187e+03
1.985358e+03,1.094600e+03
1.988251e+03,1.115215e+03
1.991144e+03,1.084773e+03
1.994036e+03,1.076654e+03
1.996929e+03,1.098311e+03
1.999822e+03,1.095699e+03
2.002714e+03,1.094010e+03
2.005607e+03,1.089943e+03
2.008500e+03,1.073792e+03
2.011393e+03,1.084571e+03
2.014285e+03,1.083999e+03
2.017178e+03,1.074265e+03
2.020071e+03,1.070838e+03
2.022963e+03,1.079164e+03
2.025856e+03,1.070328e+03
2.028749e+03,1.069448e+03
2.031641e+03,1.063523e+03
2.034534e+03,1.046922e+03
2.037427e+03,1.062769e+03
2.040320e+03,1.047877e+03
2.043212e+03,1.044709e+03
2.046105e+03,1.047509e+03
2.048998e+03,1.029491e+03
2.051890e+03,1.041235e+03
2.054783e+03,1.026502e+03
2.057676e+03,1.027888e+03
2.060568e+03,1.031912e+03
2.063461e+03,1.029841e+03
2.066354e+03,1.027098e+03
2.069247e+03,1.023190e+03
2.072139e+03,1.009055e+03
2.075032e+03,1.036921e+03
2.077925e+03,1.004065e+03
2.080817e+03,1.022223e+03
2.083710e+03,1.008842e+03
2.086603e+03,1.008170e+03
2.089496e+03,1.004101e+03
2.092388e+03,1.011871e+03
2.095281e+03,9.978327e+02
2.098174e+03,1.008040e+03
2.101066e+03,9.886348e+02
2.103959e+03,9.727889e+02
2.106852e+03,9.892334e+02
2.109744e+03,9.829548e+02
2.112637e+03,9.751005e+02
2.115530e+03,9.663956e+02
2.118422e+03,9.704683e+02
2.121315e+03,9.835181e+02
2.124208e+03,9.839483e+02
2.127101e+03,9.845712e+02
2.129993e+03,9.604508e+02
2.132886e+03,9.678577e+02
2.135779e+03,9.544337e+02
2.138671e+03,9.550904e+02
2.141564e+03,9.433818e+02
2.144457e+03,9.572651e+02
2.147350e+03,9.348561e+02
2.150242e+03,9.370635e+02
2.153135e+03,9.449943e+02
2.156028e+03,9.410515e+02
2.158920e+03,9.471360e+02
2.161813e+03,9.267070e+02
2.164706e+03,9.420963e+02
2.167598e+03,9.258917e+02
2.170491e+03,9.289307e+02
2.173384e+03,9.214456e+02
2.176277e+03,9.416292e+02
2.179169e+03,9.204932e+02
2.182062e+03,9.153325e+02
2.184955e+03,9.154269e+02
2.187847e+03,9.115059e+02
2.190740e+03,9.146986e+02
2.193633e+03,8.960991e+02
2.196525e+03,9.021523e+02
2.199418e+03,9.143444e+02
2.202311e+03,9.093899e+02
2.205204e+03,8.935107e+02
2.208096e+03,9.001984e+02
2.210989e+03,9.032260e+02
2.213882e+03,8.807813e+02
2.216774e+03,8.782932e+02
2.219667e+03,8.813297e+02
2.222560e+03,8.834754e+02
2.225452e+03,8.749199e+02
2.228345e+03,8.587510e+02
2.231238e+03,8.819767e+02
2.234131e+03,8.823611e+02
2.237023e+03,8.704392e+02
2.239916e+03,8.711765e+02
2.242809e+03,8.660398e+02
2.245701e+03,8.563057e+02
2.248594e+03,8.474021e+02
2.251487e+03,8.548656e+02
2.254379e+03,8.504626e+02
2.257272e+03,8.624926e+02
2.260165e+03,8.538707e+02
2.263058e+03,8.470875e+02
2.265950e+03,8.380638e+02
2.268843e+03,8.289108e+02
2.271736e+03,8.294506e+02
2.274628e+03,8.458674e+02
2.277521e+03,8.392543e+02
2.280414e+03,8.375258e+02
2.283306e+03,8.202239e+02
2.286199e+03,8.161915e+02
2.289092e+03,8.167629e+02
2.291985e+03,8.101185e+02
2.294877e+03,8.240037e+02
2.297770e+03,8.358834e+02
2.300663e+03,8.140666e+02
2.303555e+03,8.171352e+02
2.306448e+03,8.057211e+02
2.309341e+03,8.123511e+02
2.312233e+03,8.035280e+02
2.315126e+03,8.172637e+02
2.318019e+03,7.996986e+02
2.320912e+03,8.017855e+02
2.323804e+03,7.949970e+02
2.326697e+03,7.954683e+02
2.329590e+03,7.952119e+02
2.332482e+03,7.886730e+02
2.335375e+03,7.900002e+02
2.338268e+03,7.766061e+02
2.341160e+03,7.867595e+02
2.344053e+03,7.772083e+02
2.346946e+03,7.806183e+02
2.349839e+03,7.788917e+02
2.352731e+03,7.803102e+02
2.355624e+03,7.591581e+02
2.358517e+03,7.768109e+02
2.361409e+03,7.754698e+02
2.364302e+03,7.648049e+02
2.367195e+03,7.736562e+02
2.370087e+03,7.592100e+02
2.372980e+03,7.652009e+02
2.375873e+03,7.636785e+02
2.378766e+03,7.504605e+02
2.381658e+03,7.556066e+02
2.384551e+03,7.551836e+02
2.387444e+03,7.495051e+02
2.390336e+03,7.420768e+02
2.393229e+03,7.536946e+02
2.396122e+03,7.366783e+02
2.399014e+03,7.319396e+02
2.401907e+03,7.379461e+02
2.404800e+03,7.379838e+02
2.407693e+03,7.307746e+02
2.410585e+03,7.276686e+02
2.413478e+03,7.306976e+02
2.416371e+03,7.263422e+02
2.419263e+03,7.292393e+02
2.422156e+03,7.275508e+02
2.425049e+03,7.196353e+02
2.427941e+03,7.243681e+02
2.430834e+03,7.133841e+02
2.433727e+03,7.232526e+02
2.436620e+03,7.159838e+02
2.439512e+03,7.079340e+02
2.442405e+03,7.124012e+02
2.445298e+03,7.078517e+02
2.448190e+03,7.058290e+02
2.451083e+03,7.150707e+02
2.453976e+03,6.984880e+02
2.456868e+03,7.028932e+02
2.459761e+03,6.972029e+02
2.462654e+03,7.024639e+02
2.465547e+03,7.002945e+02
2.468439e+03,6.892574e+02
2.471332e+03,6.930986e+02
2.474225e+03,6.816614e+02
2.477117e+03,6.863177e+02
2.480010e+03,6.935234e+02
2.482903e+03,6.874656e+02
2.485795e+03,6.802059e+02
2.488688e+03,6.882223e+02
2.491581e+03,6.809990e+02
2.494474e+03,6.672990e+02
2.497366e+03,6.863909e+02
2.500259e+03,6.857571e+02
2.503152e+03,6.595384e+02
2.506044e+03,6.767756e+02
2.508937e+03,6.762235e+02
2.511830e+03,6.683538e+02
2.514722e+03,6.573209e+02
2.517615e+03,6.663182e+02
2.520508e+03,6.631516e+02
2.523401e+03,6.739409e+02
2.526293e+03,6.665496e+02
2.529186e+03,6.618456e+02
2.532079e+03,6.584905e+02
2.534971e+03,6.526897e+02
2.537864e+03,6.425921e+02
2.540757e+03,6.579090e+02
2.543649e+03,6.558234e+02
2.546542e+03,6.592778e+02
2.549435e+03,6.450309e+02
2.552328e+03,6.613417e+02
2.555220e+03,6.562197e+02
2.558113e+03,6.335762e+02
2.561006e+03,6.454414e+02
2.563898e+03,6.403195e+02
2.566791e+03,6.463954e+02
2.569684e+03,6.579140e+02
2.572576e+03,6.429579e+02
2.575469e+03,6.483715e+02
2.578362e+03,6.429612e+02
2.581255e+03,6.377000e+02
2.584147e+03,6.407567e+02
2.587040e+03,6.366825e+02
2.589933e+03,6.319802e+02
2.592825e+03,6.278539e+02
2.595718e+03,6.214149e+02
2.598611e+03,6.271569e+02
2.601503e+03,6.252565e+02
2.604396e+03,6.181402e+02
2.607289e+03,6.266699e+02
2.610182e+03,6.309633e+02
2.613074e+03,6.166146e+02
2.615967e+03,6.224711e+02
2.618860e+03,6.178867e+02
2.621752e+03,6.186503e+02
2.624645e+03,6.216252e+02
2.627538e+03,6.138932e+02
2.630430e+03,6.141420e+02
2.633323e+03,6.051298e+02
2.636216e+03,6.000439e+02
2.639109e+03,6.099250e+02
2.642001e+03,6.051116e+02
2.644894e+03,5.901062e+02
2.647787e+03,5.945334e+02
2.650679e+03,5.970813e+02
2.653572e+03,6.060128e+02
2.656465e+03,6.003228e+02
2.659357e+03,5.961744e+02
2.662250e+03,5.957416e+02
2.665143e+03,5.986915e+02
2.668036e+03,5.971904e+02
2.670928e+03,5.910709e+02
2.673821e+03,6.091643e+02
2.676714e+03,5.925544e+02
2.679606e+03,5.861689e+02
2.682499e+03,5.874140e+02
2.685392e+03,5.882003e+02
2.688284e+03,5.933419e+02
2.691177e+03,5.885867e+02
2.694070e+03,5.808460e+02
2.696963e+03,5.788339e+02
2.699855e+03,5.877302e+02
2.702748e+03,5.640781e+02
2.705641e+03,5.769099e+02
2.708533e+03,5.829963e+02
2.711426e+03,5.806241e+02
2.714319e+03,5.860687e+02
2.717211e+03,5.784430e+02
2.720104e+03,5.740931e+02
2.722997e+03,5.658028e+02
2.725890e+03,5.607100e+02
2.728782e+03,5.738002e+02
2.731675e+03,5.586920e+02
2.734568e+03,5.573553e+02
2.737460e+03,5.574943e+02
2.740353e+03,5.743245e+02
2.743246e+03,5.554803e+02
2.746138e+03,5.602280e+02
2.749031e+03,5.635123e+02
2.751924e+03,5.600206e+02
2.754817e+03,5.496147e+02
2.757709e+03,5.502548e+02
2.760602e+03,5.525887e+02
2.763495e+03,5.578623e+02
2.766387e+03,5.685107e+02
2.769280e+03,5.378981e+02
2.772173e+03,5.610361e+02
2.775065e+03,5.529080e+02
2.777958e+03,5.473862e+02
2.780851e+03,5.400360e+02
2.783744e+03,5.535969e+02
2.786636e+03,5.450908e+02
2.789529e+03,5.415339e+02
2.792422e+03,5.371699e+02
2.795314e+03,5.492685e+02
2.798207e+03,5.521014e+02
2.801100e+03,5.487175e+02
2.803992e+03,5.514982e+02
2.806885e+03,5.383299e+02
2.809778e+03,5.473890e+02
2.812671e+03,5.446710e+02
2.815563e+03,5.291910e+02
2.818456e+03,5.328684e+02
2.821349e+03,5.208980e+02
2.824241e+03,5.354561e+02
2.827134e+03,5.368392e+02
2.830027e+03,5.287011e+02
2.832919e+03,5.380464e+02
2.835812e+03,5.351857e+02
2.838705e+03,5.413652e+02
2.841598e+03,5.412650e+02
2.844490e+03,5.518167e+02
2.847383e+03,5.400073e+02
2.850276e+03,5.433675e+02
2.853168e+03,5.385778e+02
2.856061e+03,5.374759e+02
2.858954e+03,5.448054e+02
2.861846e+03,5.472166e+02
2.864739e+03,5.561744e+02
2.867632e+03,5.593929e+02
2.870525e+03,5.512462e+02
2.873417e+03,5.580427e+02
2.876310e+03,5.548509e+02
2.879203e+03,5.409786e+02
2.882095e+03,5.456920e+02
2.884988e+03,5.405352e+02
2.887881e+03,5.609014e+02
2.890773e+03,5.674763e+02
2.893666e+03,5.604527e+02
2.896559e+03,5.595944e+02
2.899452e+03,5.623161e+02
2.902344e+03,5.594589e+02
2.905237e+03,5.499906e+02
2.908130e+03,5.426863e+02
2.911022e+03,5.583763e+02
2.913915e+03,5.194481e+02
2.916808e+03,5.233622e+02
2.919700e+03,5.511525e+02
2.922593e+03,5.174242e+02
2.925486e+03,5.335002e+02
2.928379e+03,5.246211e+02
2.931271e+03,5.316309e+02
2.934164e+03,5.186262e+02
2.937057e+03,5.111715e+02
2.939949e+03,5.219935e+02
2.942842e+03,5.166129e+02
2.945735e+03,5.289994e+02
2.948627e+03,5.097589e+02
2.951520e+03,4.976148e+02
2.954413e+03,5.292049e+02
2.957306e+03,5.373349e+02
2.960198e+03,5.229753e+02
2.963091e+03,4.985744e+02
2.965984e+03,5.080275e+02
2.968876e+03,5.067789e+02
2.971769e+03,5.096355e+02
2.974662e+03,4.914012e+02
2.977554e+03,5.094953e+02
2.980447e+03,4.977065e+02
2.983340e+03,4.869220e+02
2.986233e+03,4.703589e+02
2.989125e+03,5.055593e+02
2.992018e+03,4.826837e+02
2.994911e+03,4.895192e+02
2.997803e+03,4.858375e+02
3.000696e+03,4.978072e+02
3.003589e+03,4.597376e+02
3.006481e+03,5.058365e+02
3.009374e+03,4.801228e+02
3.012267e+03,4.973860e+02
3.015160e+03,4.717570e+02
3.018052e+03,4.636006e+02
3.020945e+03,4.822004e+02
3.023838e+03,4.899935e+02
3.026730e+03,4.596124e+02
3.029623e+03,4.858974e+02
3.032516e+03,4.845239e+02
3.035408e+03,4.691964e+02
3.038301e+03,4.665770e+02
3.041194e+03,4.699696e+02
3.044087e+03,4.853236e+02
3.046979e+03,4.751866e+02
3.049872e+03,4.821477e+02
3.052765e+03,4.577519e+02
3.055657e+03,4.582952e+02
3.058550e+03,4.630961e+02
3.061443e+03,4.649209e+02
3.064335e+03,4.657320e+02
3.067228e+03,4.541238e+02
3.070121e+03,4.741955e+02
3.073014e+03,4.807104e+02
3.075906e+03,4.591224e+02
3.078799e+03,4.856936e+02
3.081692e+03,4.589890e+02
3.084584e+03,4.527614e+02
3.087477e+03,4.529649e+02
3.090370e+03,4.714089e+02
3.093262e+03,4.504337e+02
3.096155e+03,4.773613e+02
3.099048e+03,4.517331e+02
3.101941e+03,6.351395e+02
3.104833e+03,4.933332e+02
3.107726e+03,4.643389e+02
3.110619e+03,4.926378e+02
3.113511e+03,4.652308e+02
3.116404e+03,4.671166e+02
3.119297e+03,4.527996e+02
3.122189e+03,4.532583e+02
3.125082e+03,4.844526e+02
3.127975e+03,4.748717e+02
3.130868e+03,4.876087e+02
3.133760e+03,4.990971e+02
3.136653e+03,4.580676e+02
3.139546e+03,4.854780e+02
3.142438e+03,4.835643e+02
3.145331e+03,4.438312e+02
3.148224e+03,4.669606e+02
3.151116e+03,4.695996e+02
3.154009e+03,4.542239e+02
3.156902e+03,4.652240e+02
3.159795e+03,4.075951e+02
3.162687e+03,4.712596e+02
3.165580e+03,4.792526e+02
3.168473e+03,4.859015e+02
3.171365e+03,4.414384e+02
3.174258e+03,4.918861e+02
3.177151e+03,4.516602e+02
3.180043e+03,4.873368e+02
3.182936e+03,4.579765e+02
3.185829e+03,5.028067e+02
3.188722e+03,4.594755e+02
3.191614e+03,4.664283e+02
3.194507e+03,4.966425e+02
3.197400e+03,4.581185e+02
3.200292e+03,4.941993e+02
3.203185e+03,0.000000e+00
3.206078e+03,0.000000e+00
3.208970e+03,0.000000e+00
3.211863e+03,0.000000e+00
3.214756e+03,0.000000e+00
3.217649e+03,0.000000e+00
3.220541e+03,0.000000e+00
3.223434e+03,0.000000e+00
3.226327e+03,0.000000e+00
3.229219e+03,0.000000e+00
3.232112e+03,0.000000e+00
3.235005e+03,0.000000e+00
3.237897e+03,0.000000e+00
3.240790e+03,0.000000e+00
3.243683e+03,0.000000e+00
3.246576e+03,0.000000e+00
3.249468e+03,0.000000e+00
3.252361e+03,0.000000e+00
3.255254e+03,0.000000e+00
3.258146e+03,0.000000e+00
3.261039e+03,0.000000e+00
3.263932e+03,0.000000e+00
3.266824e+03,0.000000e+00
3.269717e+03,0.000000e+00
3.272610e+03,0.000000e+00
3.275503e+03,0.000000e+00
3.278395e+03,0.000000e+00
3.281288e+03,0.000000e+00
3.284181e+03,0.000000e+00
3.287073e+03,0.000000e+00
3.289966e+03,0.000000e+00
3.292859e+03,0.000000e+00
3.295751e+03,0.000000e+00
3.298644e+03,0.000000e+00
3.301537e+03,0.000000e+00
3.304430e+03,0.000000e+00
3.307322e+03,0.000000e+00
3.310215e+03,0.000000e+00
3.313108e+03,0.000000e+00
3.316000e+03,0.000000e+00
3.318893e+03,0.000000e+00
3.321786e+03,0.000000e+00
3.324678e+03,0.000000e+00
3.327571e+03,0.000000e+00
3.330464e+03,0.000000e+00
3.333357e+03,0.000000e+00
3.336249e+03,0.000000e+00
3.339142e+03,0.000000e+00
3.342035e+03,0.000000e+00
3.344927e+03,0.000000e+00
3.347820e+03,0.000000e+00
3.350713e+03,0.000000e+00
3.353605e+03,0.000000e+00
3.356498e+03,0.000000e+00
3.359391e+03,0.000000e+00
3.362284e+03,0.000000e+00
3.365176e+03,0.000000e+00
3.368069e+03,0.000000e+00
3.370962e+03,0.000000e+00
3.373854e+03,0.000000e+00
3.376747e+03,0.000000e+00
3.379640e+03,0.000000e+00
3.382532e+03,0.000000e+00
3.385425e+03,0.000000e+00
3.388318e+03,0.000000e+00
3.391211e+03,0.000000e+00
3.394103e+03,0.000000e+00
3.396996e+03,0.000000e+00
3.399889e+03,0.000000e+00
3.402781e+03,0.000000e+00
3.405674e+03,0.000000e+00
3.408567e+03,0.000000e+00
3.411459e+03,0.000000e+00
3.414352e+03,0.000000e+00
3.417245e+03,0.000000e+00
3.420138e+03,0.000000e+00
3.423030e+03,0.000000e+00
3.425923e+03,0.000000e+00
3.428816e+03,0.000000e+00
3.431708e+03,0.000000e+00
3.434601e+03,0.000000e+00
3.437494e+03,0.000000e+00
3.440386e+03,0.000000e+00
3.443279e+03,0.000000e+00
3.446172e+03,0.000000e+00
3.449065e+03,0.000000e+00
3.451957e+03,0.000000e+00
3.454850e+03,0.000000e+00
3.457743e+03,0.000000e+00
3.460635e+03,0.000000e+00
3.463528e+03,0.000000e+00
3.466421e+03,0.000000e+00
3.469313e+03,0.000000e+00
3.472206e+03,0.000000e+00
3.475099e+03,0.000000e+00
3.477992e+03,0.000000e+00
3.480884e+03,0.000000e+00
3.483777e+03,0.000000e+00
3.486670e+03,0.000000e+00
3.489563e+03,0.000000e+00
3.492455e+03,0.000000e+00
3.495348e+03,0.000000e+00
3.498240e+03,0.000000e+00
3.500169e+03,0.000000e+00