File: RAMAN_data/12022024_r2/red frag1.CSV
9.931763e+01,0.000000e+00
1.022103e+02,0.000000e+00
1.051030e+02,0.000000e+00
1.079957e+02,0.000000e+00
1.108884e+02,0.000000e+00
1.137811e+02,0.000000e+00
1.166738e+02,0.000000e+00
1.195665e+02,0.000000e+00
1.224592e+02,0.000000e+00
1.253519e+02,0.000000e+00
1.282446e+02,0.000000e+00
1.311373e+02,0.000000e+00
1.340300e+02,0.000000e+00
1.369227e+02,0.000000e+00
1.398154e+02,0.000000e+00
1.427081e+02,0.000000e+00
1.456008e+02,0.000000e+00
1.484935e+02,0.000000e+00
1.513862e+02,0.000000e+00
1.542789e+02,0.000000e+00
1.571716e+02,0.000000e+00
1.600643e+02,0.000000e+00
1.629570e+02,0.000000e+00
1.658497e+02,0.000000e+00
1.687424e+02,0.000000e+00
1.716351e+02,0.000000e+00
1.745278e+02,0.000000e+00
1.774205e+02,0.000000e+00
1.803132e+02,0.000000e+00
1.832059e+02,0.000000e+00
1.860986e+02,0.000000e+00
1.889913e+02,0.000000e+00
1.918840e+02,0.000000e+00
1.947767e+02,0.000000e+00
1.976694e+02,0.000000e+00
2.005621e+02,6.576721e+03
2.034548e+02,6.608508e+03
2.063475e+02,6.613158e+03
2.092402e+02,6.637642e+03
2.121329e+02,6.612947e+03
2.150256e+02,6.613263e+03
2.179183e+02,6.622277e+03
2.208110e+02,6.637308e+03
2.237037e+02,6.644398e+03
2.265964e+02,6.625440e+03
2.294892e+02,6.647571e+03
2.323819e+02,6.656893e+03
2.352746e+02,6.649068e+03
2.381673e+02,6.664265e+03
2.410600e+02,6.660042e+03
2.439527e+02,6.649069e+03
2.468454e+02,6.670606e+03
2.497381e+02,6.678749e+03
2.526308e+02,6.697455e+03
2.555235e+02,6.704726e+03
2.584161e+02,6.690471e+03
2.613088e+02,6.698818e+03
2.642015e+02,6.704034e+03
2.670942e+02,6.701735e+03
2.699869e+02,6.730209e+03
2.728796e+02,6.718141e+03
2.757723e+02,6.710630e+03
2.786650e+02,6.725305e+03
2.815577e+02,6.718353e+03
2.844504e+02,6.740960e+03
2.873431e+02,6.741448e+03
2.902358e+02,6.715727e+03
2.931285e+02,6.721294e+03
2.960212e+02,6.737708e+03
2.989139e+02,6.746218e+03
3.018066e+02,6.758064e+03
3.046993e+02,6.744893e+03
3.075920e+02,6.742115e+03
3.104847e+02,6.746126e+03
3.133774e+02,6.761212e+03
3.162701e+02,6.763802e+03
3.191628e+02,6.747032e+03
3.220555e+02,6.741858e+03
3.249482e+02,6.758439e+03
3.278409e+02,6.753038e+03
3.307336e+02,6.755595e+03
3.336263e+02,6.762409e+03
3.365190e+02,6.740733e+03
3.394117e+02,6.746090e+03
3.423044e+02,6.748896e+03
3.451971e+02,6.771523e+03
3.480898e+02,6.783498e+03
3.509825e+02,6.750485e+03
3.538752e+02,6.776716e+03
3.567680e+02,6.790472e+03
3.596607e+02,6.781224e+03
3.625534e+02,6.758120e+03
3.654461e+02,6.774866e+03
3.683388e+02,6.733083e+03
3.712315e+02,6.791674e+03
3.741242e+02,6.800911e+03
3.770169e+02,6.776280e+03
3.799096e+02,6.788208e+03
3.828023e+02,6.775228e+03
3.856950e+02,6.780011e+03
3.885877e+02,6.776200e+03
3.914804e+02,6.783054e+03
3.943731e+02,6.773745e+03
3.972658e+02,6.735907e+03
4.001585e+02,6.773101e+03
4.030512e+02,6.775330e+03
4.059439e+02,6.775917e+03
4.088366e+02,6.764063e+03
4.117293e+02,6.735934e+03
4.146220e+02,6.741428e+03
4.175147e+02,6.755334e+03
4.204074e+02,6.754773e+03
4.233001e+02,6.741642e+03
4.261928e+02,6.745650e+03
4.290855e+02,6.742522e+03
4.319782e+02,6.756667e+03
4.348709e+02,6.738875e+03
4.377636e+02,6.747300e+03
4.406563e+02,6.754158e+03
4.435490e+02,6.734138e+03
4.464417e+02,6.717483e+03
4.493344e+02,6.741327e+03
4.522271e+02,6.739553e+03
4.551198e+02,6.734987e+03
4.580125e+02,6.718269e+03
4.609052e+02,6.707036e+03
4.637979e+02,6.718288e+03
4.666906e+02,6.730094e+03
4.695833e+02,6.708998e+03
4.724760e+02,6.717833e+03
4.753687e+02,6.682704e+03
4.782614e+02,6.689524e+03
4.811541e+02,6.690519e+03
4.840468e+02,6.694884e+03
4.869395e+02,6.698709e+03
4.898322e+02,6.707497e+03
4.927249e+02,6.696227e+03
4.956176e+02,6.685333e+03
4.985103e+02,6.716310e+03
5.014030e+02,6.669999e+03
5.042957e+02,6.678544e+03
5.071884e+02,6.670502e+03
5.100811e+02,6.690433e+03
5.129738e+02,6.690321e+03
5.158665e+02,6.717348e+03
5.187592e+02,6.684021e+03
5.216519e+02,6.657543e+03
5.245446e+02,6.677767e+03
5.274373e+02,6.682193e+03
5.303300e+02,6.684851e+03
5.332227e+02,6.640714e+03
5.361154e+02,6.628132e+03
5.390081e+02,6.643487e+03
5.419008e+02,6.663154e+03
5.447935e+02,6.649696e+03
5.476862e+02,6.647583e+03
5.505789e+02,6.626214e+03
5.534716e+02,6.607904e+03
5.563643e+02,6.617398e+03
5.592570e+02,6.641369e+03
5.621497e+02,6.641845e+03
5.650424e+02,6.610444e+03
5.679351e+02,6.618810e+03
5.708278e+02,6.602875e+03
5.737205e+02,6.597532e+03
5.766132e+02,6.600922e+03
5.795059e+02,6.583429e+03
5.823986e+02,6.586040e+03
5.852913e+02,6.553782e+03
5.881840e+02,6.583898e+03
5.910767e+02,6.604111e+03
5.939694e+02,6.616904e+03
5.968621e+02,6.560323e+03
5.997548e+02,6.575103e+03
6.026475e+02,6.554583e+03
6.055402e+02,6.574317e+03
6.084329e+02,6.573560e+03
6.113256e+02,6.561290e+03
6.142183e+02,6.526937e+03
6.171110e+02,6.526378e+03
6.200037e+02,6.552065e+03
6.228964e+02,6.528081e+03
6.257891e+02,6.542269e+03
6.286818e+02,6.526375e+03
6.315745e+02,6.517458e+03
6.344672e+02,6.525488e+03
6.373599e+02,6.522126e+03
6.402526e+02,6.490839e+03
6.431453e+02,6.493733e+03
6.460380e+02,6.497341e+03
6.489307e+02,6.491986e+03
6.518234e+02,6.501542e+03
6.547161e+02,6.503423e+03
6.576088e+02,6.472756e+03
6.605015e+02,6.453546e+03
6.633942e+02,6.440618e+03
6.662869e+02,6.463664e+03
6.691796e+02,6.460037e+03
6.720723e+02,6.454242e+03
6.749650e+02,6.445332e+03
6.778577e+02,6.444417e+03
6.807504e+02,6.412325e+03
6.836431e+02,6.424830e+03
6.865358e+02,6.423732e+03
6.894285e+02,6.408979e+03
6.923212e+02,6.404692e+03
6.952139e+02,6.400437e+03
6.981066e+02,6.392150e+03
7.009993e+02,6.379835e+03
7.038920e+02,6.389853e+03
7.067847e+02,6.378251e+03
7.096774e+02,6.364522e+03
7.125701e+02,6.376320e+03
7.154628e+02,6.368532e+03
7.183555e+02,6.358686e+03
7.212482e+02,6.357946e+03
7.241409e+02,6.348823e+03
7.270336e+02,6.333143e+03
7.299263e+02,6.334900e+03
7.328190e+02,6.310759e+03
7.357117e+02,6.313662e+03
7.386044e+02,6.309389e+03
7.414971e+02,6.309827e+03
7.443898e+02,6.293607e+03
7.472825e+02,6.330125e+03
7.501752e+02,6.274977e+03
7.530679e+02,6.290466e+03
7.559606e+02,6.304058e+03
7.588533e+02,6.269173e+03
7.617460e+02,6.291393e+03
7.646387e+02,6.250134e+03
7.675314e+02,6.259932e+03
7.704241e+02,6.243372e+03
7.733168e+02,6.222083e+03
7.762095e+02,6.285405e+03
7.791022e+02,6.248768e+03
7.819949e+02,6.227447e+03
7.848876e+02,6.233593e+03
7.877803e+02,6.202249e+03
7.906730e+02,6.181385e+03
7.935657e+02,6.194298e+03
7.964584e+02,6.197576e+03
7.993511e+02,6.185213e+03
8.022438e+02,6.182471e+03
8.051365e+02,6.171356e+03
8.080292e+02,6.167521e+03
8.109219e+02,6.158374e+03
8.138146e+02,6.148909e+03
8.167073e+02,6.155669e+03
8.196000e+02,6.128612e+03
8.224927e+02,6.139448e+03
8.253854e+02,6.137594e+03
8.282781e+02,6.133146e+03
8.311708e+02,6.112623e+03
8.340635e+02,6.108917e+03
8.369562e+02,6.113093e+03
8.398489e+02,6.112857e+03
8.427416e+02,6.122860e+03
8.456343e+02,6.104552e+03
8.485270e+02,6.105588e+03
8.514197e+02,6.097914e+03
8.543124e+02,6.079817e+03
8.572051e+02,6.078333e+03
8.600978e+02,6.060724e+03
8.629905e+02,6.067748e+03
8.658832e+02,6.047673e+03
8.687759e+02,6.061081e+03
8.716686e+02,6.058226e+03
8.745613e+02,6.049881e+03
8.774540e+02,6.029798e+03
8.803467e+02,6.020736e+03
8.832394e+02,6.014688e+03
8.861321e+02,6.028743e+03
8.890248e+02,6.008354e+03
8.919175e+02,6.025829e+03
8.948102e+02,5.983521e+03
8.977029e+02,5.990888e+03
9.005956e+02,5.994731e+03
9.034883e+02,5.981912e+03
9.063810e+02,5.952561e+03
9.092737e+02,5.965690e+03
9.121664e+02,5.946837e+03
9.150591e+02,5.951429e+03
9.179518e+02,5.952828e+03
9.208445e+02,5.909106e+03
9.237372e+02,5.911300e+03
9.266299e+02,5.915481e+03
9.295226e+02,5.922682e+03
9.324153e+02,5.920540e+03
9.353080e+02,5.920736e+03
9.382007e+02,5.896966e+03
9.410934e+02,5.878523e+03
9.439861e+02,5.880118e+03
9.468788e+02,5.906039e+03
9.497715e+02,5.884963e+03
9.526642e+02,5.878776e+03
9.555569e+02,5.862118e+03
9.584496e+02,5.876493e+03
9.613423e+02,5.845903e+03
9.642350e+02,5.859104e+03
9.671277e+02,5.849361e+03
9.700204e+02,5.849868e+03
9.729131e+02,5.793147e+03
9.758058e+02,5.813620e+03
9.786985e+02,5.817314e+03
9.815912e+02,5.801330e+03
9.844839e+02,5.794047e+03
9.873766e+02,5.810214e+03
9.902693e+02,5.787986e+03
9.931620e+02,5.790790e+03
9.960547e+02,5.782767e+03
9.989474e+02,5.769803e+03
1.001840e+03,5.746879e+03
1.004733e+03,5.732880e+03
1.007626e+03,5.750019e+03
1.010518e+03,5.766632e+03
1.013411e+03,5.725096e+03
1.016304e+03,5.736879e+03
1.019196e+03,5.720000e+03
1.022089e+03,5.702390e+03
1.024982e+03,5.724398e+03
1.027875e+03,5.734595e+03
1.030767e+03,5.706190e+03
1.033660e+03,5.698564e+03
1.036552e+03,5.702558e+03
1.039445e+03,5.710414e+03
1.042338e+03,5.702437e+03
1.045231e+03,5.689683e+03
1.048123e+03,5.669327e+03
1.051016e+03,5.666382e+03
1.053909e+03,5.697990e+03
1.056802e+03,5.691613e+03
1.059694e+03,5.650755e+03
1.062587e+03,5.665506e+03
1.065479e+03,5.662439e+03
1.068372e+03,5.650283e+03
1.071265e+03,5.643538e+03
1.074158e+03,5.640535e+03
1.077050e+03,5.618887e+03
1.079943e+03,5.646536e+03
1.082836e+03,5.683786e+03
1.085729e+03,5.655805e+03
1.088621e+03,5.660540e+03
1.091514e+03,5.629401e+03
1.094406e+03,5.632315e+03
1.097299e+03,5.612542e+03
1.100192e+03,5.621506e+03
1.103085e+03,5.604560e+03
1.105977e+03,5.603533e+03
1.108870e+03,5.618731e+03
1.111763e+03,5.571625e+03
1.114656e+03,5.583582e+03
1.117548e+03,5.595013e+03
1.120441e+03,5.583242e+03
1.123334e+03,5.577606e+03
1.126226e+03,5.559548e+03
1.129119e+03,5.532126e+03
1.132012e+03,5.543183e+03
1.134904e+03,5.553342e+03
1.137797e+03,5.502016e+03
1.140690e+03,5.534478e+03
1.143583e+03,5.521986e+03
1.146475e+03,5.525519e+03
1.149368e+03,5.531724e+03
1.152261e+03,5.525080e+03
1.155153e+03,5.503944e+03
1.158046e+03,5.495361e+03
1.160939e+03,5.510319e+03
1.163831e+03,5.506450e+03
1.166724e+03,5.506679e+03
1.169617e+03,5.482344e+03
1.172510e+03,5.462979e+03
1.175402e+03,5.462533e+03
1.178295e+03,5.479753e+03
1.181188e+03,5.479972e+03
1.184080e+03,5.453167e+03
1.186973e+03,5.448830e+03
1.189866e+03,5.459351e+03
1.192758e+03,5.454738e+03
1.195651e+03,5.456228e+03
1.198544e+03,5.460999e+03
1.201437e+03,5.430907e+03
1.204329e+03,5.439125e+03
1.207222e+03,5.427508e+03
1.210115e+03,5.430467e+03
1.213007e+03,5.427058e+03
1.215900e+03,5.417198e+03
1.218793e+03,5.403154e+03
1.221685e+03,5.403842e+03
1.224578e+03,5.403184e+03
1.227471e+03,5.392863e+03
1.230364e+03,5.378629e+03
1.233256e+03,5.392202e+03
1.236149e+03,5.384517e+03
1.239042e+03,5.404790e+03
1.241934e+03,5.386493e+03
1.244827e+03,5.373133e+03
1.247720e+03,5.363913e+03
1.250612e+03,5.354491e+03
1.253505e+03,5.361785e+03
1.256398e+03,5.337849e+03
1.259291e+03,5.363968e+03
1.262183e+03,5.358358e+03
1.265076e+03,5.343274e+03
1.267969e+03,5.342977e+03
1.270861e+03,5.350782e+03
1.273754e+03,5.356560e+03
1.276647e+03,5.367286e+03
1.279539e+03,5.343244e+03
1.282432e+03,5.332507e+03
1.285325e+03,5.334264e+03
1.288218e+03,5.351779e+03
1.291110e+03,5.339431e+03
1.294003e+03,5.345402e+03
1.296896e+03,5.313520e+03
1.299788e+03,5.300403e+03
1.302681e+03,5.299143e+03
1.305574e+03,5.322853e+03
1.308466e+03,5.294575e+03
1.311359e+03,5.280063e+03
1.314252e+03,5.303412e+03
1.317145e+03,5.294442e+03
1.320037e+03,5.294227e+03
1.322930e+03,5.301950e+03
1.325823e+03,5.265460e+03
1.328715e+03,5.261209e+03
1.331608e+03,5.281714e+03
1.334501e+03,5.287025e+03
1.337393e+03,5.279477e+03
1.340286e+03,5.255978e+03
1.343179e+03,5.254220e+03
1.346072e+03,5.234217e+03
1.348964e+03,5.256499e+03
1.351857e+03,5.254815e+03
1.354750e+03,5.253070e+03
1.357642e+03,5.247505e+03
1.360535e+03,5.222972e+03
1.363428e+03,5.222748e+03
1.366320e+03,5.244170e+03
1.369213e+03,5.220151e+03
1.372106e+03,5.197365e+03
1.374999e+03,5.186867e+03
1.377891e+03,5.194202e+03
1.380784e+03,5.212443e+03
1.383677e+03,5.176542e+03
1.386569e+03,5.150923e+03
1.389462e+03,5.149020e+03
1.392355e+03,5.139670e+03
1.395247e+03,5.149159e+03
1.398140e+03,5.150001e+03
1.401033e+03,5.152509e+03
1.403926e+03,5.145594e+03
1.406818e+03,5.107830e+03
1.409711e+03,5.121200e+03
1.412604e+03,5.133745e+03
1.415496e+03,5.114651e+03
1.418389e+03,5.094548e+03
1.421282e+03,5.102609e+03
1.424174e+03,5.100180e+03
1.427067e+03,5.081167e+03
1.429960e+03,5.097127e+03
1.432853e+03,5.071813e+03
1.435745e+03,5.083391e+03
1.438638e+03,5.064800e+03
1.441531e+03,5.075244e+03
1.444423e+03,5.059210e+03
1.447316e+03,5.047640e+03
1.450209e+03,5.040649e+03
1.453101e+03,5.053320e+03
1.455994e+03,5.023411e+03
1.458887e+03,5.039795e+03
1.461780e+03,5.043362e+03
1.464672e+03,5.012936e+03
1.467565e+03,4.991628e+03
1.470458e+03,5.027005e+03
1.473350e+03,5.029811e+03
1.476243e+03,5.003088e+03
1.479136e+03,4.987202e+03
1.482028e+03,4.960968e+03
1.484921e+03,4.979662e+03
1.487814e+03,4.966374e+03
1.490707e+03,4.976428e+03
1.493599e+03,4.945857e+03
1.496492e+03,4.964185e+03
1.499385e+03,4.946269e+03
1.502277e+03,4.951418e+03
1.505170e+03,4.950673e+03
1.508063e+03,4.957480e+03
1.510955e+03,4.923133e+03
1.513848e+03,4.916373e+03
1.516741e+03,4.922935e+03
1.519634e+03,4.921025e+03
1.522526e+03,4.907398e+03
1.525419e+03,4.917805e+03
1.528312e+03,4.882994e+03
1.531204e+03,4.899151e+03
1.534097e+03,4.889526e+03
1.536990e+03,4.861882e+03
1.539882e+03,4.852133e+03
1.542775e+03,4.875380e+03
1.545668e+03,4.862497e+03
1.548561e+03,4.840183e+03
1.551453e+03,4.864526e+03
1.554346e+03,4.867240e+03
1.557239e+03,4.859995e+03
1.560131e+03,4.810003e+03
1.563024e+03,4.820938e+03
1.565917e+03,4.836229e+03
1.568809e+03,4.830292e+03
1.571702e+03,4.841372e+03
1.574595e+03,4.808390e+03
1.577488e+03,4.805650e+03
1.580380e+03,4.815134e+03
1.583273e+03,4.803383e+03
1.586166e+03,4.793206e+03
1.589058e+03,4.784609e+03
1.591951e+03,4.795307e+03
1.594844e+03,4.756202e+03
1.597736e+03,4.766467e+03
1.600629e+03,4.752587e+03
1.603522e+03,4.750468e+03
1.606415e+03,4.757337e+03
1.609307e+03,4.729670e+03
1.612200e+03,4.740476e+03
1.615093e+03,4.708357e+03
1.617985e+03,4.710208e+03
1.620878e+03,4.682905e+03
1.623771e+03,4.654109e+03
1.626663e+03,4.683476e+03
1.629556e+03,4.670938e+03
1.632449e+03,4.662741e+03
1.635342e+03,4.673659e+03
1.638234e+03,4.632092e+03
1.641127e+03,4.615914e+03
1.644020e+03,4.619906e+03
1.646912e+03,4.627459e+03
1.649805e+03,4.629200e+03
1.652698e+03,4.584483e+03
1.655590e+03,4.594720e+03
1.658483e+03,4.571637e+03
1.661376e+03,4.567769e+03
1.664269e+03,4.552535e+03
1.667161e+03,4.530329e+03
1.670054e+03,4.544043e+03
1.672947e+03,4.526966e+03
1.675839e+03,4.519548e+03
1.678732e+03,4.520364e+03
1.681625e+03,4.502365e+03
1.684517e+03,4.520195e+03
1.687410e+03,4.499146e+03
1.690303e+03,4.504451e+03
1.693196e+03,4.482233e+03
1.696088e+03,4.466998e+03
1.698981e+03,4.442609e+03
1.701874e+03,4.441505e+03
1.704766e+03,4.458021e+03
1.707659e+03,4.443232e+03
1.710552e+03,4.425331e+03
1.713444e+03,4.445859e+03
1.716337e+03,4.411642e+03
1.719230e+03,4.429728e+03
1.722123e+03,4.386663e+03
1.725015e+03,4.375743e+03
1.727908e+03,4.381651e+03
1.730801e+03,4.376940e+03
1.733693e+03,4.381214e+03
1.736586e+03,4.383374e+03
1.739479e+03,4.380319e+03
1.742371e+03,4.358483e+03
1.745264e+03,4.337428e+03
1.748157e+03,4.331176e+03
1.751050e+03,4.328280e+03
1.753942e+03,4.323778e+03
1.756835e+03,4.325772e+03
1.759728e+03,4.285257e+03
1.762620e+03,4.266624e+03
1.765513e+03,4.294838e+03
1.768406e+03,4.259631e+03
1.771298e+03,4.264007e+03
1.774191e+03,4.243041e+03
1.777084e+03,4.245095e+03
1.779977e+03,4.235584e+03
1.782869e+03,4.241227e+03
1.785762e+03,4.251926e+03
1.788655e+03,4.209870e+03
1.791547e+03,4.186201e+03
1.794440e+03,4.199923e+03
1.797333e+03,4.210428e+03
1.800225e+03,4.203269e+03
1.803118e+03,4.207665e+03
1.806011e+03,4.162462e+03
1.808904e+03,4.189528e+03
1.811796e+03,4.153884e+03
1.814689e+03,4.151218e+03
1.817582e+03,4.149838e+03
1.820474e+03,4.135073e+03
1.823367e+03,4.127205e+03
1.826260e+03,4.139343e+03
1.829152e+03,4.113718e+03
1.832045e+03,4.126142e+03
1.834938e+03,4.108987e+03
1.837831e+03,4.071590e+03
1.840723e+03,4.083656e+03
1.843616e+03,4.089726e+03
1.846509e+03,4.061988e+03
1.849401e+03,4.068057e+03
1.852294e+03,4.030533e+03
1.855187e+03,4.050649e+03
1.858079e+03,4.017785e+03
1.860972e+03,4.020690e+03
1.863865e+03,4.020129e+03
1.866758e+03,3.996573e+03
1.869650e+03,3.998801e+03
1.872543e+03,3.987655e+03
1.875436e+03,3.974297e+03
1.878328e+03,3.968870e+03
1.881221e+03,3.982169e+03
1.884114e+03,3.971532e+03
1.887006e+03,3.938169e+03
1.889899e+03,3.941517e+03
1.892792e+03,3.950709e+03
1.895685e+03,3.939582e+03
1.898577e+03,3.924216e+03
1.901470e+03,3.905485e+03
1.904363e+03,3.893612e+03
1.907255e+03,3.907419e+03
1.910148e+03,3.888884e+03
1.913041e+03,3.882281e+03
1.915933e+03,3.853681e+03
1.918826e+03,3.875083e+03
1.921719e+03,3.843428e+03
1.924612e+03,3.835716e+03
1.927504e+03,3.859425e+03
1.930397e+03,3.833115e+03
1.933290e+03,3.812782e+03
1.936182e+03,3.807825e+03
1.939075e+03,3.799097e+03
1.941968e+03,3.789490e+03
1.944860e+03,3.775605e+03
1.947753e+03,3.784396e+03
1.950646e+03,3.797284e+03
1.953539e+03,3.764954e+03
1.956431e+03,3.751464e+03
1.959324e+03,3.743381e+03
1.962217e+03,3.748634e+03
1.965109e+03,3.721559e+03
1.968002e+03,3.722631e+03
1.970895e+03,3.747073e+03
1.973787e+03,3.704163e+03
1.976680e+03,3.674395e+03
1.979573e+03,3.718152e+03
1.982466e+03,3.697534e+03
1.985358e+03,3.676066e+03
1.988251e+03,3.676649e+03
1.991144e+03,3.646243e+03
1.994036e+03,3.639510e+03
1.996929e+03,3.653294e+03
1.999822e+03,3.644872e+03
2.002714e+03,3.631298e+03
2.005607e+03,3.607980e+03
2.008500e+03,3.599583e+03
2.011393e+03,3.603019e+03
2.014285e+03,3.597819e+03
2.017178e+03,3.603676e+03
2.020071e+03,3.575800e+03
2.022963e+03,3.571457e+03
2.025856e+03,3.563165e+03
2.028749e+03,3.560048e+03
2.031641e+03,3.548135e+03
2.034534e+03,3.539965e+03
2.037427e+03,3.530812e+03
2.040320e+03,3.484436e+03
2.043212e+03,3.518634e+03
2.046105e+03,3.523343e+03
2.048998e+03,3.489955e+03
2.051890e+03,3.522063e+03
2.054783e+03,3.457383e+03
2.057676e+03,3.461547e+03
2.060568e+03,3.427907e+03
2.063461e+03,3.458123e+03
2.066354e+03,3.451130e+03
2.069247e+03,3.435392e+03
2.072139e+03,3.408906e+03
2.075032e+03,3.399680e+03
2.077925e+03,3.432842e+03
2.080817e+03,3.403134e+03
2.083710e+03,3.386747e+03
2.086603e+03,3.356685e+03
2.089496e+03,3.387990e+03
2.092388e+03,3.372212e+03
2.095281e+03,3.378553e+03
2.098174e+03,3.359095e+03
2.101066e+03,3.333712e+03
2.103959e+03,3.332896e+03
2.106852e+03,3.318249e+03
2.109744e+03,3.328820e+03
2.112637e+03,3.309405e+03
2.115530e+03,3.299184e+03
2.118422e+03,3.312554e+03
2.121315e+03,3.288883e+03
2.124208e+03,3.307274e+03
2.127101e+03,3.271862e+03
2.129993e+03,3.270344e+03
2.132886e+03,3.254718e+03
2.135779e+03,3.273365e+03
2.138671e+03,3.244117e+03
2.141564e+03,3.216342e+03
2.144457e+03,3.225536e+03
2.147350e+03,3.204937e+03
2.150242e+03,3.206154e+03
2.153135e+03,3.213265e+03
2.156028e+03,3.183768e+03
2.158920e+03,3.173066e+03
2.161813e+03,3.179839e+03
2.164706e+03,3.181220e+03
2.167598e+03,3.185589e+03
2.170491e+03,3.165604e+03
2.173384e+03,3.172686e+03
2.176277e+03,3.150485e+03
2.179169e+03,3.131740e+03
2.182062e+03,3.122069e+03
2.184955e+03,3.104049e+03
2.187847e+03,3.124348e+03
2.190740e+03,3.104003e+03
2.193633e+03,3.102692e+03
2.196525e+03,3.094677e+03
2.199418e+03,3.076399e+03
2.202311e+03,3.087942e+03
2.205204e+03,3.076442e+03
2.208096e+03,3.075012e+03
2.210989e+03,3.037500e+03
2.213882e+03,3.030435e+03
2.216774e+03,3.057838e+03
2.219667e+03,3.025907e+03
2.222560e+03,3.016551e+03
2.225452e+03,3.003855e+03
2.228345e+03,2.987963e+03
2.231238e+03,3.006004e+03
2.234131e+03,3.009120e+03
2.237023e+03,2.995638e+03
2.239916e+03,2.964231e+03
2.242809e+03,2.950147e+03
2.245701e+03,2.946987e+03
2.248594e+03,2.948984e+03
2.251487e+03,2.961878e+03
2.254379e+03,2.926879e+03
2.257272e+03,2.918964e+03
2.260165e+03,2.892531e+03
2.263058e+03,2.928376e+03
2.265950e+03,2.933466e+03
2.268843e+03,2.913191e+03
2.271736e+03,2.873152e+03
2.274628e+03,2.881663e+03
2.277521e+03,2.878186e+03
2.280414e+03,2.889023e+03
2.283306e+03,2.845639e+03
2.286199e+03,2.845103e+03
2.289092e+03,2.834901e+03
2.291985e+03,2.827670e+03
2.294877e+03,2.838978e+03
2.297770e+03,2.841852e+03
2.300663e+03,2.823616e+03
2.303555e+03,2.816345e+03
2.306448e+03,2.778071e+03
2.309341e+03,2.813325e+03
2.312233e+03,2.797751e+03
2.315126e+03,2.774507e+03
2.318019e+03,2.752761e+03
2.320912e+03,2.759545e+03
2.323804e+03,2.767212e+03
2.326697e+03,2.751948e+03
2.329590e+03,2.748097e+03
2.332482e+03,2.758293e+03
2.335375e+03,2.738311e+03
2.338268e+03,2.718540e+03
2.341160e+03,2.699246e+03
2.344053e+03,2.754166e+03
2.346946e+03,2.705452e+03
2.349839e+03,2.694696e+03
2.352731e+03,2.723828e+03
2.355624e+03,2.691503e+03
2.358517e+03,2.697155e+03
2.361409e+03,2.714513e+03
2.364302e+03,2.675496e+03
2.367195e+03,2.635038e+03
2.370087e+03,2.657574e+03
2.372980e+03,2.666440e+03
2.375873e+03,2.645336e+03
2.378766e+03,2.667368e+03
2.381658e+03,2.641490e+03
2.384551e+03,2.640501e+03
2.387444e+03,2.610844e+03
2.390336e+03,2.628513e+03
2.393229e+03,2.623271e+03
2.396122e+03,2.603181e+03
2.399014e+03,2.612232e+03
2.401907e+03,2.585422e+03
2.404800e+03,2.596921e+03
2.407693e+03,2.598057e+03
2.410585e+03,2.573468e+03
2.413478e+03,2.575293e+03
2.416371e+03,2.540130e+03
2.419263e+03,2.558101e+03
2.422156e+03,2.576200e+03
2.425049e+03,2.548918e+03
2.427941e+03,2.515785e+03
2.430834e+03,2.523011e+03
2.433727e+03,2.523078e+03
2.436620e+03,2.530902e+03
2.439512e+03,2.541801e+03
2.442405e+03,2.505582e+03
2.445298e+03,2.496995e+03
2.448190e+03,2.518202e+03
2.451083e+03,2.501955e+03
2.453976e+03,2.488957e+03
2.456868e+03,2.502727e+03
2.459761e+03,2.494967e+03
2.462654e+03,2.455132e+03
2.465547e+03,2.472011e+03
2.468439e+03,2.473440e+03
2.471332e+03,2.442782e+03
2.474225e+03,2.440292e+03
2.477117e+03,2.438764e+03
2.480010e+03,2.436167e+03
2.482903e+03,2.435096e+03
2.485795e+03,2.434877e+03
2.488688e+03,2.408891e+03
2.491581e+03,2.413509e+03
2.494474e+03,2.404916e+03
2.497366e+03,2.414935e+03
2.500259e+03,2.413517e+03
2.503152e+03,2.394295e+03
2.506044e+03,2.377958e+03
2.508937e+03,2.406037e+03
2.511830e+03,2.368605e+03
2.514722e+03,2.360821e+03
2.517615e+03,2.382935e+03
2.520508e+03,2.381182e+03
2.523401e+03,2.368890e+03
2.526293e+03,2.383556e+03
2.529186e+03,2.358712e+03
2.532079e+03,2.364537e+03
2.534971e+03,2.337522e+03
2.537864e+03,2.332507e+03
2.540757e+03,2.336892e+03
2.543649e+03,2.320442e+03
2.546542e+03,2.333243e+03
2.549435e+03,2.310081e+03
2.552328e+03,2.337187e+03
2.555220e+03,2.323667e+03
2.558113e+03,2.319152e+03
2.561006e+03,2.313558e+03
2.563898e+03,2.312130e+03
2.566791e+03,2.308991e+03
2.569684e+03,2.291877e+03
2.572576e+03,2.270458e+03
2.575469e+03,2.299836e+03
2.578362e+03,2.269282e+03
2.581255e+03,2.251136e+03
2.584147e+03,2.246310e+03
2.587040e+03,2.251448e+03
2.589933e+03,2.254306e+03
2.592825e+03,2.235165e+03
2.595718e+03,2.241243e+03
2.598611e+03,2.236689e+03
2.601503e+03,2.236770e+03
2.604396e+03,2.212495e+03
2.607289e+03,2.202718e+03
2.610182e+03,2.225013e+03
2.613074e+03,2.209672e+03
2.615967e+03,2.225974e+03
2.618860e+03,2.188997e+03
2.621752e+03,2.217811e+03
2.624645e+03,2.185929e+03
2.627538e+03,2.183249e+03
2.630430e+03,2.180185e+03
2.633323e+03,2.190498e+03
2.636216e+03,2.184241e+03
2.639109e+03,2.159888e+03
2.642001e+03,2.170169e+03
2.644894e+03,2.177054e+03
2.647787e+03,2.165044e+03
2.650679e+03,2.175657e+03
2.653572e+03,2.120195e+03
2.656465e+03,2.131723e+03
2.659357e+03,2.142695e+03
2.662250e+03,2.132219e+03
2.665143e+03,2.131027e+03
2.668036e+03,2.119451e+03
2.670928e+03,2.135596e+03
2.673821e+03,2.152246e+03
2.676714e+03,2.121454e+03
2.679606e+03,2.107016e+03
2.682499e+03,2.120222e+03
2.685392e+03,2.108036e+03
2.688284e+03,2.091974e+03
2.691177e+03,2.098800e+03
2.694070e+03,2.100071e+03
2.696963e+03,2.073409e+03
2.699855e+03,2.090502e+03
2.702748e+03,2.083264e+03
2.705641e+03,2.049825e+03
2.708533e+03,2.087279e+03
2.711426e+03,2.052431e+03
2.714319e+03,2.067998e+03
2.717211e+03,2.085330e+03
2.720104e+03,2.047123e+03
2.722997e+03,2.067918e+03
2.725890e+03,2.029456e+03
2.728782e+03,2.053155e+03
2.731675e+03,2.030546e+03
2.734568e+03,2.033300e+03
2.737460e+03,2.023692e+03
2.740353e+03,2.029735e+03
2.743246e+03,2.039897e+03
2.746138e+03,2.015442e+03
2.749031e+03,2.015069e+03
2.751924e+03,2.019139e+03
2.754817e+03,2.021645e+03
2.757709e+03,1.992953e+03
2.760602e+03,2.015669e+03
2.763495e+03,1.990942e+03
2.766387e+03,2.009181e+03
2.769280e+03,1.982690e+03
2.772173e+03,1.983168e+03
2.775065e+03,1.985428e+03
2.777958e+03,1.991708e+03
2.780851e+03,1.981779e+03
2.783744e+03,1.992056e+03
2.786636e+03,1.955388e+03
2.789529e+03,1.972416e+03
2.792422e+03,1.965685e+03
2.795314e+03,1.938110e+03
2.798207e+03,1.957937e+03
2.801100e+03,1.965648e+03
2.803992e+03,1.921113e+03
2.806885e+03,1.951637e+03
2.809778e+03,1.949654e+03
2.812671e+03,1.928581e+03
2.815563e+03,1.931894e+03
2.818456e+03,1.926162e+03
2.821349e+03,1.919875e+03
2.824241e+03,1.941899e+03
2.827134e+03,1.911296e+03
2.830027e+03,1.917651e+03
2.832919e+03,1.907032e+03
2.835812e+03,1.904024e+03
2.838705e+03,1.907066e+03
2.841598e+03,1.921544e+03
2.844490e+03,1.935787e+03
2.847383e+03,1.880608e+03
2.850276e+03,1.900929e+03
2.853168e+03,1.906285e+03
2.856061e+03,1.876785e+03
2.858954e+03,1.878451e+03
2.861846e+03,1.890549e+03
2.864739e+03,1.914971e+03
2.867632e+03,1.880928e+03
2.870525e+03,1.914413e+03
2.873417e+03,1.898136e+03
2.876310e+03,1.885955e+03
2.879203e+03,1.844461e+03
2.882095e+03,1.876161e+03
2.884988e+03,1.871186e+03
2.887881e+03,1.889026e+03
2.890773e+03,1.869696e+03
2.893666e+03,1.846914e+03
2.896559e+03,1.850883e+03
2.899452e+03,1.868235e+03
2.902344e+03,1.864146e+03
2.905237e+03,1.898875e+03
2.908130e+03,1.877910e+03
2.911022e+03,1.839637e+03
2.913915e+03,1.839094e+03
2.916808e+03,1.846298e+03
2.919700e+03,1.849106e+03
2.922593e+03,1.810996e+03
2.925486e+03,1.856126e+03
2.928379e+03,1.819712e+03
2.931271e+03,1.807291e+03
2.934164e+03,1.834414e+03
2.937057e+03,1.814274e+03
2.939949e+03,1.793912e+03
2.942842e+03,1.793135e+03
2.945735e+03,1.806395e+03
2.948627e+03,1.804619e+03
2.951520e+03,1.787912e+03
2.954413e+03,1.788262e+03
2.957306e+03,1.794346e+03
2.960198e+03,1.798487e+03
2.963091e+03,1.800088e+03
2.965984e+03,1.755251e+03
2.968876e+03,1.755156e+03
2.971769e+03,1.780029e+03
2.974662e+03,1.745893e+03
2.977554e+03,1.739970e+03
2.980447e+03,1.711934e+03
2.983340e+03,1.746641e+03
2.986233e+03,1.729390e+03
2.989125e+03,1.735311e+03
2.992018e+03,1.738513e+03
2.994911e+03,1.709683e+03
2.997803e+03,1.734201e+03
3.000696e+03,1.711415e+03
3.003589e+03,1.705535e+03
3.006481e+03,1.717841e+03
3.009374e+03,1.716252e+03
3.012267e+03,1.706304e+03
3.015160e+03,1.695282e+03
3.018052e+03,1.692849e+03
3.020945e+03,1.676549e+03
3.023838e+03,1.711743e+03
3.026730e+03,1.676351e+03
3.029623e+03,1.669103e+03
3.032516e+03,1.719246e+03
3.035408e+03,1.668277e+03
3.038301e+03,1.706404e+03
3.041194e+03,1.683392e+03
3.044087e+03,1.650585e+03
3.046979e+03,1.660011e+03
3.049872e+03,1.681328e+03
3.052765e+03,1.663820e+03
3.055657e+03,1.667140e+03
3.058550e+03,1.682845e+03
3.061443e+03,1.684933e+03
3.064335e+03,1.660750e+03
3.067228e+03,1.683691e+03
3.070121e+03,1.628857e+03
3.073014e+03,1.639131e+03
3.075906e+03,1.655953e+03
3.078799e+03,1.665801e+03
3.081692e+03,1.670553e+03
3.084584e+03,1.622136e+03
3.087477e+03,1.599568e+03
3.090370e+03,1.620250e+03
3.093262e+03,1.652011e+03
3.096155e+03,1.635870e+03
3.099048e+03,1.640666e+03
3.101941e+03,1.638644e+03
3.104833e+03,1.636730e+03
3.107726e+03,1.676308e+03
3.110619e+03,1.643372e+03
3.113511e+03,1.629872e+03
3.116404e+03,1.651903e+03
3.119297e+03,1.654082e+03
3.122189e+03,1.638027e+03
3.125082e+03,1.641403e+03
3.127975e+03,1.617508e+03
3.130868e+03,1.595902e+03
3.133760e+03,1.617791e+03
3.136653e+03,1.619873e+03
3.139546e+03,1.631531e+03
3.142438e+03,1.632783e+03
3.145331e+03,1.565399e+03
3.148224e+03,1.625303e+03
3.151116e+03,1.651669e+03
3.154009e+03,1.610739e+03
3.156902e+03,1.613147e+03
3.159795e+03,1.628183e+03
3.162687e+03,1.610821e+03
3.165580e+03,1.585039e+03
3.168473e+03,1.621879e+03
3.171365e+03,1.615498e+03
3.174258e+03,1.575258e+03
3.177151e+03,1.574990e+03
3.180043e+03,1.647523e+03
3.182936e+03,1.607765e+03
3.185829e+03,1.682249e+03
3.188722e+03,1.600706e+03
3.191614e+03,1.660620e+03
3.194507e+03,1.614295e+03
3.197400e+03,1.605506e+03
3.200292e+03,1.582357e+03
3.203185e+03,0.000000e+00
3.206078e+03,0.000000e+00
3.208970e+03,0.000000e+00
3.211863e+03,0.000000e+00
3.214756e+03,0.000000e+00
3.217649e+03,0.000000e+00
3.220541e+03,0.000000e+00
3.223434e+03,0.000000e+00
3.226327e+03,0.000000e+00
3.229219e+03,0.000000e+00
3.232112e+03,0.000000e+00
3.235005e+03,0.000000e+00
3.237897e+03,0.000000e+00
3.240790e+03,0.000000e+00
3.243683e+03,0.000000e+00
3.246576e+03,0.000000e+00
3.249468e+03,0.000000e+00
3.252361e+03,0.000000e+00
3.255254e+03,0.000000e+00
3.258146e+03,0.000000e+00
3.261039e+03,0.000000e+00
3.263932e+03,0.000000e+00
3.266824e+03,0.000000e+00
3.269717e+03,0.000000e+00
3.272610e+03,0.000000e+00
3.275503e+03,0.000000e+00
3.278395e+03,0.000000e+00
3.281288e+03,0.000000e+00
3.284181e+03,0.000000e+00
3.287073e+03,0.000000e+00
3.289966e+03,0.000000e+00
3.292859e+03,0.000000e+00
3.295751e+03,0.000000e+00
3.298644e+03,0.000000e+00
3.301537e+03,0.000000e+00
3.304430e+03,0.000000e+00
3.307322e+03,0.000000e+00
3.310215e+03,0.000000e+00
3.313108e+03,0.000000e+00
3.316000e+03,0.000000e+00
3.318893e+03,0.000000e+00
3.321786e+03,0.000000e+00
3.324678e+03,0.000000e+00
3.327571e+03,0.000000e+00
3.330464e+03,0.000000e+00
3.333357e+03,0.000000e+00
3.336249e+03,0.000000e+00
3.339142e+03,0.000000e+00
3.342035e+03,0.000000e+00
3.344927e+03,0.000000e+00
3.347820e+03,0.000000e+00
3.350713e+03,0.000000e+00
3.353605e+03,0.000000e+00
3.356498e+03,0.000000e+00
3.359391e+03,0.000000e+00
3.362284e+03,0.000000e+00
3.365176e+03,0.000000e+00
3.368069e+03,0.000000e+00
3.370962e+03,0.000000e+00
3.373854e+03,0.000000e+00
3.376747e+03,0.000000e+00
3.379640e+03,0.000000e+00
3.382532e+03,0.000000e+00
3.385425e+03,0.000000e+00
3.388318e+03,0.000000e+00
3.391211e+03,0.000000e+00
3.394103e+03,0.000000e+00
3.396996e+03,0.000000e+00
3.399889e+03,0.000000e+00
3.402781e+03,0.000000e+00
3.405674e+03,0.000000e+00
3.408567e+03,0.000000e+00
3.411459e+03,0.000000e+00
3.414352e+03,0.000000e+00
3.417245e+03,0.000000e+00
3.420138e+03,0.000000e+00
3.423030e+03,0.000000e+00
3.425923e+03,0.000000e+00
3.428816e+03,0.000000e+00
3.431708e+03,0.000000e+00
3.434601e+03,0.000000e+00
3.437494e+03,0.000000e+00
3.440386e+03,0.000000e+00
3.443279e+03,0.000000e+00
3.446172e+03,0.000000e+00
3.449065e+03,0.000000e+00
3.451957e+03,0.000000e+00
3.454850e+03,0.000000e+00
3.457743e+03,0.000000e+00
3.460635e+03,0.000000e+00
3.463528e+03,0.000000e+00
3.466421e+03,0.000000e+00
3.469313e+03,0.000000e+00
3.472206e+03,0.000000e+00
3.475099e+03,0.000000e+00
3.477992e+03,0.000000e+00
3.480884e+03,0.000000e+00
3.483777e+03,0.000000e+00
3.486670e+03,0.000000e+00
3.489563e+03,0.000000e+00
3.492455e+03,0.000000e+00
3.495348e+03,0.000000e+00
3.498240e+03,0.000000e+00
3.500169e+03,0.000000e+00