File: RAMAN_data/12022024_r2/red fibre.CSV
9.931763e+01,0.000000e+00
1.022103e+02,0.000000e+00
1.051030e+02,0.000000e+00
1.079957e+02,0.000000e+00
1.108884e+02,0.000000e+00
1.137811e+02,0.000000e+00
1.166738e+02,0.000000e+00
1.195665e+02,0.000000e+00
1.224592e+02,0.000000e+00
1.253519e+02,0.000000e+00
1.282446e+02,0.000000e+00
1.311373e+02,0.000000e+00
1.340300e+02,0.000000e+00
1.369227e+02,0.000000e+00
1.398154e+02,0.000000e+00
1.427081e+02,0.000000e+00
1.456008e+02,0.000000e+00
1.484935e+02,0.000000e+00
1.513862e+02,0.000000e+00
1.542789e+02,0.000000e+00
1.571716e+02,0.000000e+00
1.600643e+02,0.000000e+00
1.629570e+02,0.000000e+00
1.658497e+02,0.000000e+00
1.687424e+02,0.000000e+00
1.716351e+02,0.000000e+00
1.745278e+02,0.000000e+00
1.774205e+02,0.000000e+00
1.803132e+02,0.000000e+00
1.832059e+02,0.000000e+00
1.860986e+02,0.000000e+00
1.889913e+02,0.000000e+00
1.918840e+02,0.000000e+00
1.947767e+02,0.000000e+00
1.976694e+02,0.000000e+00
2.005621e+02,3.066699e+03
2.034548e+02,3.077148e+03
2.063475e+02,3.083069e+03
2.092402e+02,3.082198e+03
2.121329e+02,3.094921e+03
2.150256e+02,3.080418e+03
2.179183e+02,3.101296e+03
2.208110e+02,3.104066e+03
2.237037e+02,3.094988e+03
2.265964e+02,3.089984e+03
2.294892e+02,3.101169e+03
2.323819e+02,3.122944e+03
2.352746e+02,3.130822e+03
2.381673e+02,3.122413e+03
2.410600e+02,3.109266e+03
2.439527e+02,3.119721e+03
2.468454e+02,3.140974e+03
2.497381e+02,3.133892e+03
2.526308e+02,3.144307e+03
2.555235e+02,3.139905e+03
2.584161e+02,3.142477e+03
2.613088e+02,3.132078e+03
2.642015e+02,3.155741e+03
2.670942e+02,3.169499e+03
2.699869e+02,3.159310e+03
2.728796e+02,3.158036e+03
2.757723e+02,3.160662e+03
2.786650e+02,3.175830e+03
2.815577e+02,3.187809e+03
2.844504e+02,3.188582e+03
2.873431e+02,3.187620e+03
2.902358e+02,3.199661e+03
2.931285e+02,3.185361e+03
2.960212e+02,3.185233e+03
2.989139e+02,3.184391e+03
3.018066e+02,3.206086e+03
3.046993e+02,3.213226e+03
3.075920e+02,3.206941e+03
3.104847e+02,3.192992e+03
3.133774e+02,3.199652e+03
3.162701e+02,3.205227e+03
3.191628e+02,3.208566e+03
3.220555e+02,3.207225e+03
3.249482e+02,3.221310e+03
3.278409e+02,3.225344e+03
3.307336e+02,3.220525e+03
3.336263e+02,3.237307e+03
3.365190e+02,3.232979e+03
3.394117e+02,3.237187e+03
3.423044e+02,3.216842e+03
3.451971e+02,3.250739e+03
3.480898e+02,3.241515e+03
3.509825e+02,3.235804e+03
3.538752e+02,3.246472e+03
3.567680e+02,3.248122e+03
3.596607e+02,3.248454e+03
3.625534e+02,3.253092e+03
3.654461e+02,3.261167e+03
3.683388e+02,3.249278e+03
3.712315e+02,3.274510e+03
3.741242e+02,3.284802e+03
3.770169e+02,3.291855e+03
3.799096e+02,3.298325e+03
3.828023e+02,3.277476e+03
3.856950e+02,3.271405e+03
3.885877e+02,3.274661e+03
3.914804e+02,3.272540e+03
3.943731e+02,3.268879e+03
3.972658e+02,3.251188e+03
4.001585e+02,3.277085e+03
4.030512e+02,3.278378e+03
4.059439e+02,3.286102e+03
4.088366e+02,3.281925e+03
4.117293e+02,3.278212e+03
4.146220e+02,3.287520e+03
4.175147e+02,3.271986e+03
4.204074e+02,3.291785e+03
4.233001e+02,3.286359e+03
4.261928e+02,3.299340e+03
4.290855e+02,3.297379e+03
4.319782e+02,3.297359e+03
4.348709e+02,3.315336e+03
4.377636e+02,3.315750e+03
4.406563e+02,3.338765e+03
4.435490e+02,3.295170e+03
4.464417e+02,3.285981e+03
4.493344e+02,3.307532e+03
4.522271e+02,3.329163e+03
4.551198e+02,3.322436e+03
4.580125e+02,3.323410e+03
4.609052e+02,3.324169e+03
4.637979e+02,3.310496e+03
4.666906e+02,3.318636e+03
4.695833e+02,3.326137e+03
4.724760e+02,3.319067e+03
4.753687e+02,3.320702e+03
4.782614e+02,3.324734e+03
4.811541e+02,3.313543e+03
4.840468e+02,3.324101e+03
4.869395e+02,3.328869e+03
4.898322e+02,3.323220e+03
4.927249e+02,3.328565e+03
4.956176e+02,3.328145e+03
4.985103e+02,3.342993e+03
5.014030e+02,3.330766e+03
5.042957e+02,3.335648e+03
5.071884e+02,3.335183e+03
5.100811e+02,3.341139e+03
5.129738e+02,3.344673e+03
5.158665e+02,3.355716e+03
5.187592e+02,3.348104e+03
5.216519e+02,3.337139e+03
5.245446e+02,3.343302e+03
5.274373e+02,3.354656e+03
5.303300e+02,3.363971e+03
5.332227e+02,3.341355e+03
5.361154e+02,3.347886e+03
5.390081e+02,3.323293e+03
5.419008e+02,3.333584e+03
5.447935e+02,3.338145e+03
5.476862e+02,3.354423e+03
5.505789e+02,3.340944e+03
5.534716e+02,3.341575e+03
5.563643e+02,3.369730e+03
5.592570e+02,3.357929e+03
5.621497e+02,3.376621e+03
5.650424e+02,3.362653e+03
5.679351e+02,3.343014e+03
5.708278e+02,3.353247e+03
5.737205e+02,3.358933e+03
5.766132e+02,3.349296e+03
5.795059e+02,3.341654e+03
5.823986e+02,3.355632e+03
5.852913e+02,3.348689e+03
5.881840e+02,3.333336e+03
5.910767e+02,3.357433e+03
5.939694e+02,3.354191e+03
5.968621e+02,3.354557e+03
5.997548e+02,3.345569e+03
6.026475e+02,3.352040e+03
6.055402e+02,3.356580e+03
6.084329e+02,3.364394e+03
6.113256e+02,3.362670e+03
6.142183e+02,3.375733e+03
6.171110e+02,3.382853e+03
6.200037e+02,3.364438e+03
6.228964e+02,3.352186e+03
6.257891e+02,3.337922e+03
6.286818e+02,3.353760e+03
6.315745e+02,3.342020e+03
6.344672e+02,3.331274e+03
6.373599e+02,3.340135e+03
6.402526e+02,3.341701e+03
6.431453e+02,3.349141e+03
6.460380e+02,3.336485e+03
6.489307e+02,3.320913e+03
6.518234e+02,3.338198e+03
6.547161e+02,3.340548e+03
6.576088e+02,3.329749e+03
6.605015e+02,3.327554e+03
6.633942e+02,3.325505e+03
6.662869e+02,3.338882e+03
6.691796e+02,3.330172e+03
6.720723e+02,3.321868e+03
6.749650e+02,3.318537e+03
6.778577e+02,3.317155e+03
6.807504e+02,3.339442e+03
6.836431e+02,3.353481e+03
6.865358e+02,3.337209e+03
6.894285e+02,3.326803e+03
6.923212e+02,3.319107e+03
6.952139e+02,3.331545e+03
6.981066e+02,3.339106e+03
7.009993e+02,3.333295e+03
7.038920e+02,3.325477e+03
7.067847e+02,3.333708e+03
7.096774e+02,3.329423e+03
7.125701e+02,3.316835e+03
7.154628e+02,3.318432e+03
7.183555e+02,3.331724e+03
7.212482e+02,3.336231e+03
7.241409e+02,3.340560e+03
7.270336e+02,3.316748e+03
7.299263e+02,3.311379e+03
7.328190e+02,3.325500e+03
7.357117e+02,3.338442e+03
7.386044e+02,3.316701e+03
7.414971e+02,3.321855e+03
7.443898e+02,3.329137e+03
7.472825e+02,3.312628e+03
7.501752e+02,3.323189e+03
7.530679e+02,3.307040e+03
7.559606e+02,3.307182e+03
7.588533e+02,3.305795e+03
7.617460e+02,3.321684e+03
7.646387e+02,3.314460e+03
7.675314e+02,3.312337e+03
7.704241e+02,3.303839e+03
7.733168e+02,3.306094e+03
7.762095e+02,3.327673e+03
7.791022e+02,3.306047e+03
7.819949e+02,3.302757e+03
7.848876e+02,3.297142e+03
7.877803e+02,3.305966e+03
7.906730e+02,3.290284e+03
7.935657e+02,3.335030e+03
7.964584e+02,3.330657e+03
7.993511e+02,3.329474e+03
8.022438e+02,3.298667e+03
8.051365e+02,3.291543e+03
8.080292e+02,3.295901e+03
8.109219e+02,3.292938e+03
8.138146e+02,3.288906e+03
8.167073e+02,3.275600e+03
8.196000e+02,3.279334e+03
8.224927e+02,3.277551e+03
8.253854e+02,3.283151e+03
8.282781e+02,3.289039e+03
8.311708e+02,3.258019e+03
8.340635e+02,3.279127e+03
8.369562e+02,3.287048e+03
8.398489e+02,3.277707e+03
8.427416e+02,3.262988e+03
8.456343e+02,3.255669e+03
8.485270e+02,3.250375e+03
8.514197e+02,3.262816e+03
8.543124e+02,3.263630e+03
8.572051e+02,3.240354e+03
8.600978e+02,3.238470e+03
8.629905e+02,3.244348e+03
8.658832e+02,3.248766e+03
8.687759e+02,3.225729e+03
8.716686e+02,3.235051e+03
8.745613e+02,3.245067e+03
8.774540e+02,3.239110e+03
8.803467e+02,3.224790e+03
8.832394e+02,3.222845e+03
8.861321e+02,3.232783e+03
8.890248e+02,3.241968e+03
8.919175e+02,3.232626e+03
8.948102e+02,3.235761e+03
8.977029e+02,3.228728e+03
9.005956e+02,3.207009e+03
9.034883e+02,3.209958e+03
9.063810e+02,3.207317e+03
9.092737e+02,3.203448e+03
9.121664e+02,3.194803e+03
9.150591e+02,3.187143e+03
9.179518e+02,3.217096e+03
9.208445e+02,3.207843e+03
9.237372e+02,3.190571e+03
9.266299e+02,3.198161e+03
9.295226e+02,3.204460e+03
9.324153e+02,3.206238e+03
9.353080e+02,3.193683e+03
9.382007e+02,3.176255e+03
9.410934e+02,3.171032e+03
9.439861e+02,3.199937e+03
9.468788e+02,3.175358e+03
9.497715e+02,3.188414e+03
9.526642e+02,3.164313e+03
9.555569e+02,3.148674e+03
9.584496e+02,3.143378e+03
9.613423e+02,3.159968e+03
9.642350e+02,3.157309e+03
9.671277e+02,3.150061e+03
9.700204e+02,3.134607e+03
9.729131e+02,3.106802e+03
9.758058e+02,3.140574e+03
9.786985e+02,3.131147e+03
9.815912e+02,3.128410e+03
9.844839e+02,3.121260e+03
9.873766e+02,3.116137e+03
9.902693e+02,3.122067e+03
9.931620e+02,3.106797e+03
9.960547e+02,3.115724e+03
9.989474e+02,3.124667e+03
1.001840e+03,3.106100e+03
1.004733e+03,3.094937e+03
1.007626e+03,3.095320e+03
1.010518e+03,3.092589e+03
1.013411e+03,3.091490e+03
1.016304e+03,3.079397e+03
1.019196e+03,3.081632e+03
1.022089e+03,3.106451e+03
1.024982e+03,3.080352e+03
1.027875e+03,3.073083e+03
1.030767e+03,3.068247e+03
1.033660e+03,3.069386e+03
1.036552e+03,3.068117e+03
1.039445e+03,3.079509e+03
1.042338e+03,3.065502e+03
1.045231e+03,3.062292e+03
1.048123e+03,3.063307e+03
1.051016e+03,3.053479e+03
1.053909e+03,3.049515e+03
1.056802e+03,3.050203e+03
1.059694e+03,3.037308e+03
1.062587e+03,3.026446e+03
1.065479e+03,3.035041e+03
1.068372e+03,3.039017e+03
1.071265e+03,3.046901e+03
1.074158e+03,3.032605e+03
1.077050e+03,3.021967e+03
1.079943e+03,3.033161e+03
1.082836e+03,3.030242e+03
1.085729e+03,3.019917e+03
1.088621e+03,3.066044e+03
1.091514e+03,3.056136e+03
1.094406e+03,3.051509e+03
1.097299e+03,3.016906e+03
1.100192e+03,3.024931e+03
1.103085e+03,3.022041e+03
1.105977e+03,3.009077e+03
1.108870e+03,3.003011e+03
1.111763e+03,3.012293e+03
1.114656e+03,3.018052e+03
1.117548e+03,3.052156e+03
1.120441e+03,3.059397e+03
1.123334e+03,3.022551e+03
1.126226e+03,3.032286e+03
1.129119e+03,3.007164e+03
1.132012e+03,3.010088e+03
1.134904e+03,2.973007e+03
1.137797e+03,2.973870e+03
1.140690e+03,2.964969e+03
1.143583e+03,2.963071e+03
1.146475e+03,2.973106e+03
1.149368e+03,2.969860e+03
1.152261e+03,2.965167e+03
1.155153e+03,2.934777e+03
1.158046e+03,2.924148e+03
1.160939e+03,2.924691e+03
1.163831e+03,2.922194e+03
1.166724e+03,2.907481e+03
1.169617e+03,2.916333e+03
1.172510e+03,2.899012e+03
1.175402e+03,2.901839e+03
1.178295e+03,2.900159e+03
1.181188e+03,2.914457e+03
1.184080e+03,2.888786e+03
1.186973e+03,2.892907e+03
1.189866e+03,2.874308e+03
1.192758e+03,2.891508e+03
1.195651e+03,2.868346e+03
1.198544e+03,2.891971e+03
1.201437e+03,2.860451e+03
1.204329e+03,2.850223e+03
1.207222e+03,2.858511e+03
1.210115e+03,2.856465e+03
1.213007e+03,2.838849e+03
1.215900e+03,2.840254e+03
1.218793e+03,2.842977e+03
1.221685e+03,2.836490e+03
1.224578e+03,2.832725e+03
1.227471e+03,2.833750e+03
1.230364e+03,2.835837e+03
1.233256e+03,2.833531e+03
1.236149e+03,2.854425e+03
1.239042e+03,2.844151e+03
1.241934e+03,2.834079e+03
1.244827e+03,2.818930e+03
1.247720e+03,2.796948e+03
1.250612e+03,2.791563e+03
1.253505e+03,2.793427e+03
1.256398e+03,2.803441e+03
1.259291e+03,2.800602e+03
1.262183e+03,2.799635e+03
1.265076e+03,2.785195e+03
1.267969e+03,2.815551e+03
1.270861e+03,2.822030e+03
1.273754e+03,2.817112e+03
1.276647e+03,2.786418e+03
1.279539e+03,2.768785e+03
1.282432e+03,2.763805e+03
1.285325e+03,2.773325e+03
1.288218e+03,2.779130e+03
1.291110e+03,2.753428e+03
1.294003e+03,2.751402e+03
1.296896e+03,2.762864e+03
1.299788e+03,2.746985e+03
1.302681e+03,2.746292e+03
1.305574e+03,2.755027e+03
1.308466e+03,2.736566e+03
1.311359e+03,2.737870e+03
1.314252e+03,2.727125e+03
1.317145e+03,2.732769e+03
1.320037e+03,2.731563e+03
1.322930e+03,2.715931e+03
1.325823e+03,2.715986e+03
1.328715e+03,2.710116e+03
1.331608e+03,2.709379e+03
1.334501e+03,2.725955e+03
1.337393e+03,2.716395e+03
1.340286e+03,2.693621e+03
1.343179e+03,2.713035e+03
1.346072e+03,2.712629e+03
1.348964e+03,2.703855e+03
1.351857e+03,2.705894e+03
1.354750e+03,2.692117e+03
1.357642e+03,2.705604e+03
1.360535e+03,2.701513e+03
1.363428e+03,2.737230e+03
1.366320e+03,2.749121e+03
1.369213e+03,2.769771e+03
1.372106e+03,2.767200e+03
1.374999e+03,2.760094e+03
1.377891e+03,2.745292e+03
1.380784e+03,2.724082e+03
1.383677e+03,2.702635e+03
1.386569e+03,2.683802e+03
1.389462e+03,2.670288e+03
1.392355e+03,2.669933e+03
1.395247e+03,2.665895e+03
1.398140e+03,2.670831e+03
1.401033e+03,2.660536e+03
1.403926e+03,2.665049e+03
1.406818e+03,2.654744e+03
1.409711e+03,2.644395e+03
1.412604e+03,2.656814e+03
1.415496e+03,2.634115e+03
1.418389e+03,2.622637e+03
1.421282e+03,2.603559e+03
1.424174e+03,2.610471e+03
1.427067e+03,2.598273e+03
1.429960e+03,2.599253e+03
1.432853e+03,2.594791e+03
1.435745e+03,2.597007e+03
1.438638e+03,2.580849e+03
1.441531e+03,2.588616e+03
1.444423e+03,2.578685e+03
1.447316e+03,2.577181e+03
1.450209e+03,2.578671e+03
1.453101e+03,2.575630e+03
1.455994e+03,2.582160e+03
1.458887e+03,2.578613e+03
1.461780e+03,2.573998e+03
1.464672e+03,2.586350e+03
1.467565e+03,2.590606e+03
1.470458e+03,2.588675e+03
1.473350e+03,2.572808e+03
1.476243e+03,2.565821e+03
1.479136e+03,2.548427e+03
1.482028e+03,2.540787e+03
1.484921e+03,2.526238e+03
1.487814e+03,2.540675e+03
1.490707e+03,2.526918e+03
1.493599e+03,2.528935e+03
1.496492e+03,2.515344e+03
1.499385e+03,2.520771e+03
1.502277e+03,2.508105e+03
1.505170e+03,2.512398e+03
1.508063e+03,2.493542e+03
1.510955e+03,2.488778e+03
1.513848e+03,2.478257e+03
1.516741e+03,2.481269e+03
1.519634e+03,2.492904e+03
1.522526e+03,2.489723e+03
1.525419e+03,2.466270e+03
1.528312e+03,2.490857e+03
1.531204e+03,2.482229e+03
1.534097e+03,2.472363e+03
1.536990e+03,2.483356e+03
1.539882e+03,2.461721e+03
1.542775e+03,2.448816e+03
1.545668e+03,2.463642e+03
1.548561e+03,2.457301e+03
1.551453e+03,2.463344e+03
1.554346e+03,2.454641e+03
1.557239e+03,2.450088e+03
1.560131e+03,2.434264e+03
1.563024e+03,2.451505e+03
1.565917e+03,2.450395e+03
1.568809e+03,2.462579e+03
1.571702e+03,2.449734e+03
1.574595e+03,2.434358e+03
1.577488e+03,2.430872e+03
1.580380e+03,2.461810e+03
1.583273e+03,2.481983e+03
1.586166e+03,2.498101e+03
1.589058e+03,2.507052e+03
1.591951e+03,2.490272e+03
1.594844e+03,2.461838e+03
1.597736e+03,2.451184e+03
1.600629e+03,2.447191e+03
1.603522e+03,2.423876e+03
1.606415e+03,2.399076e+03
1.609307e+03,2.422470e+03
1.612200e+03,2.389780e+03
1.615093e+03,2.382547e+03
1.617985e+03,2.405531e+03
1.620878e+03,2.409500e+03
1.623771e+03,2.387023e+03
1.626663e+03,2.381180e+03
1.629556e+03,2.373945e+03
1.632449e+03,2.379836e+03
1.635342e+03,2.372865e+03
1.638234e+03,2.358024e+03
1.641127e+03,2.347690e+03
1.644020e+03,2.374854e+03
1.646912e+03,2.351380e+03
1.649805e+03,2.342203e+03
1.652698e+03,2.343475e+03
1.655590e+03,2.340884e+03
1.658483e+03,2.351240e+03
1.661376e+03,2.338736e+03
1.664269e+03,2.343744e+03
1.667161e+03,2.318477e+03
1.670054e+03,2.311253e+03
1.672947e+03,2.319962e+03
1.675839e+03,2.320745e+03
1.678732e+03,2.334877e+03
1.681625e+03,2.336113e+03
1.684517e+03,2.303022e+03
1.687410e+03,2.317732e+03
1.690303e+03,2.304066e+03
1.693196e+03,2.295599e+03
1.696088e+03,2.315140e+03
1.698981e+03,2.303660e+03
1.701874e+03,2.290684e+03
1.704766e+03,2.285658e+03
1.707659e+03,2.291553e+03
1.710552e+03,2.301470e+03
1.713444e+03,2.283864e+03
1.716337e+03,2.267644e+03
1.719230e+03,2.286944e+03
1.722123e+03,2.283446e+03
1.725015e+03,2.276671e+03
1.727908e+03,2.261660e+03
1.730801e+03,2.270050e+03
1.733693e+03,2.268219e+03
1.736586e+03,2.263530e+03
1.739479e+03,2.263769e+03
1.742371e+03,2.251812e+03
1.745264e+03,2.255478e+03
1.748157e+03,2.249902e+03
1.751050e+03,2.240940e+03
1.753942e+03,2.225088e+03
1.756835e+03,2.239311e+03
1.759728e+03,2.214825e+03
1.762620e+03,2.231935e+03
1.765513e+03,2.235484e+03
1.768406e+03,2.224298e+03
1.771298e+03,2.213429e+03
1.774191e+03,2.227984e+03
1.777084e+03,2.212943e+03
1.779977e+03,2.210769e+03
1.782869e+03,2.229109e+03
1.785762e+03,2.229506e+03
1.788655e+03,2.207707e+03
1.791547e+03,2.199593e+03
1.794440e+03,2.197934e+03
1.797333e+03,2.172497e+03
1.800225e+03,2.203366e+03
1.803118e+03,2.181388e+03
1.806011e+03,2.191569e+03
1.808904e+03,2.176017e+03
1.811796e+03,2.184208e+03
1.814689e+03,2.169519e+03
1.817582e+03,2.171847e+03
1.820474e+03,2.157259e+03
1.823367e+03,2.156880e+03
1.826260e+03,2.141934e+03
1.829152e+03,2.160589e+03
1.832045e+03,2.141191e+03
1.834938e+03,2.152452e+03
1.837831e+03,2.150792e+03
1.840723e+03,2.148247e+03
1.843616e+03,2.148273e+03
1.846509e+03,2.136877e+03
1.849401e+03,2.151992e+03
1.852294e+03,2.123494e+03
1.855187e+03,2.119317e+03
1.858079e+03,2.116968e+03
1.860972e+03,2.136793e+03
1.863865e+03,2.122759e+03
1.866758e+03,2.115892e+03
1.869650e+03,2.100346e+03
1.872543e+03,2.113408e+03
1.875436e+03,2.104803e+03
1.878328e+03,2.100145e+03
1.881221e+03,2.112011e+03
1.884114e+03,2.071735e+03
1.887006e+03,2.071040e+03
1.889899e+03,2.092998e+03
1.892792e+03,2.081333e+03
1.895685e+03,2.073369e+03
1.898577e+03,2.073647e+03
1.901470e+03,2.078015e+03
1.904363e+03,2.062053e+03
1.907255e+03,2.067613e+03
1.910148e+03,2.081141e+03
1.913041e+03,2.069491e+03
1.915933e+03,2.056514e+03
1.918826e+03,2.041778e+03
1.921719e+03,2.039816e+03
1.924612e+03,2.037260e+03
1.927504e+03,2.035488e+03
1.930397e+03,2.042406e+03
1.933290e+03,2.028697e+03
1.936182e+03,2.047485e+03
1.939075e+03,2.025637e+03
1.941968e+03,2.030655e+03
1.944860e+03,2.016542e+03
1.947753e+03,2.015427e+03
1.950646e+03,2.000904e+03
1.953539e+03,2.027571e+03
1.956431e+03,2.009151e+03
1.959324e+03,2.001946e+03
1.962217e+03,2.010987e+03
1.965109e+03,1.971305e+03
1.968002e+03,2.006317e+03
1.970895e+03,1.997537e+03
1.973787e+03,1.983276e+03
1.976680e+03,1.973654e+03
1.979573e+03,1.981806e+03
1.982466e+03,1.959155e+03
1.985358e+03,1.969795e+03
1.988251e+03,1.967727e+03
1.991144e+03,1.943612e+03
1.994036e+03,1.960850e+03
1.996929e+03,1.959410e+03
1.999822e+03,1.945409e+03
2.002714e+03,1.933892e+03
2.005607e+03,1.944911e+03
2.008500e+03,1.946714e+03
2.011393e+03,1.914601e+03
2.014285e+03,1.919132e+03
2.017178e+03,1.923058e+03
2.020071e+03,1.929926e+03
2.022963e+03,1.923555e+03
2.025856e+03,1.905877e+03
2.028749e+03,1.926252e+03
2.031641e+03,1.904073e+03
2.034534e+03,1.902916e+03
2.037427e+03,1.897357e+03
2.040320e+03,1.881964e+03
2.043212e+03,1.889646e+03
2.046105e+03,1.897957e+03
2.048998e+03,1.889105e+03
2.051890e+03,1.875117e+03
2.054783e+03,1.890531e+03
2.057676e+03,1.871163e+03
2.060568e+03,1.853544e+03
2.063461e+03,1.879368e+03
2.066354e+03,1.865657e+03
2.069247e+03,1.836469e+03
2.072139e+03,1.843254e+03
2.075032e+03,1.844324e+03
2.077925e+03,1.837366e+03
2.080817e+03,1.825403e+03
2.083710e+03,1.841182e+03
2.086603e+03,1.814381e+03
2.089496e+03,1.840591e+03
2.092388e+03,1.837762e+03
2.095281e+03,1.820060e+03
2.098174e+03,1.811859e+03
2.101066e+03,1.808671e+03
2.103959e+03,1.792875e+03
2.106852e+03,1.809899e+03
2.109744e+03,1.813145e+03
2.112637e+03,1.792035e+03
2.115530e+03,1.784081e+03
2.118422e+03,1.779154e+03
2.121315e+03,1.800984e+03
2.124208e+03,1.786855e+03
2.127101e+03,1.771362e+03
2.129993e+03,1.780375e+03
2.132886e+03,1.771275e+03
2.135779e+03,1.756161e+03
2.138671e+03,1.752177e+03
2.141564e+03,1.737769e+03
2.144457e+03,1.767287e+03
2.147350e+03,1.739130e+03
2.150242e+03,1.721434e+03
2.153135e+03,1.723602e+03
2.156028e+03,1.729489e+03
2.158920e+03,1.724152e+03
2.161813e+03,1.734936e+03
2.164706e+03,1.733756e+03
2.167598e+03,1.717957e+03
2.170491e+03,1.730236e+03
2.173384e+03,1.713109e+03
2.176277e+03,1.710094e+03
2.179169e+03,1.702324e+03
2.182062e+03,1.712379e+03
2.184955e+03,1.705585e+03
2.187847e+03,1.689061e+03
2.190740e+03,1.700815e+03
2.193633e+03,1.684666e+03
2.196525e+03,1.687344e+03
2.199418e+03,1.670030e+03
2.202311e+03,1.678962e+03
2.205204e+03,1.677810e+03
2.208096e+03,1.651192e+03
2.210989e+03,1.654176e+03
2.213882e+03,1.646151e+03
2.216774e+03,1.647893e+03
2.219667e+03,1.656458e+03
2.222560e+03,1.645364e+03
2.225452e+03,1.636294e+03
2.228345e+03,1.614096e+03
2.231238e+03,1.638028e+03
2.234131e+03,1.626872e+03
2.237023e+03,1.629449e+03
2.239916e+03,1.625467e+03
2.242809e+03,1.605391e+03
2.245701e+03,1.601953e+03
2.248594e+03,1.599105e+03
2.251487e+03,1.580936e+03
2.254379e+03,1.616853e+03
2.257272e+03,1.600310e+03
2.260165e+03,1.569707e+03
2.263058e+03,1.592519e+03
2.265950e+03,1.590914e+03
2.268843e+03,1.571301e+03
2.271736e+03,1.577379e+03
2.274628e+03,1.570733e+03
2.277521e+03,1.579703e+03
2.280414e+03,1.584736e+03
2.283306e+03,1.564139e+03
2.286199e+03,1.553314e+03
2.289092e+03,1.548419e+03
2.291985e+03,1.539054e+03
2.294877e+03,1.544214e+03
2.297770e+03,1.534237e+03
2.300663e+03,1.552222e+03
2.303555e+03,1.528793e+03
2.306448e+03,1.519490e+03
2.309341e+03,1.526588e+03
2.312233e+03,1.510781e+03
2.315126e+03,1.517788e+03
2.318019e+03,1.519553e+03
2.320912e+03,1.511603e+03
2.323804e+03,1.517584e+03
2.326697e+03,1.519234e+03
2.329590e+03,1.506061e+03
2.332482e+03,1.501324e+03
2.335375e+03,1.494616e+03
2.338268e+03,1.493863e+03
2.341160e+03,1.488656e+03
2.344053e+03,1.481960e+03
2.346946e+03,1.491734e+03
2.349839e+03,1.493790e+03
2.352731e+03,1.484508e+03
2.355624e+03,1.473494e+03
2.358517e+03,1.494327e+03
2.361409e+03,1.479210e+03
2.364302e+03,1.458442e+03
2.367195e+03,1.456062e+03
2.370087e+03,1.459113e+03
2.372980e+03,1.460938e+03
2.375873e+03,1.454031e+03
2.378766e+03,1.441213e+03
2.381658e+03,1.431278e+03
2.384551e+03,1.438902e+03
2.387444e+03,1.431756e+03
2.390336e+03,1.425230e+03
2.393229e+03,1.427786e+03
2.396122e+03,1.405358e+03
2.399014e+03,1.422730e+03
2.401907e+03,1.416513e+03
2.404800e+03,1.419087e+03
2.407693e+03,1.406791e+03
2.410585e+03,1.413962e+03
2.413478e+03,1.393273e+03
2.416371e+03,1.409585e+03
2.419263e+03,1.408368e+03
2.422156e+03,1.389178e+03
2.425049e+03,1.419270e+03
2.427941e+03,1.387011e+03
2.430834e+03,1.387302e+03
2.433727e+03,1.365343e+03
2.436620e+03,1.398602e+03
2.439512e+03,1.383780e+03
2.442405e+03,1.376912e+03
2.445298e+03,1.380154e+03
2.448190e+03,1.355755e+03
2.451083e+03,1.377154e+03
2.453976e+03,1.368484e+03
2.456868e+03,1.349535e+03
2.459761e+03,1.339882e+03
2.462654e+03,1.351380e+03
2.465547e+03,1.367332e+03
2.468439e+03,1.341465e+03
2.471332e+03,1.341727e+03
2.474225e+03,1.363799e+03
2.477117e+03,1.330713e+03
2.480010e+03,1.337876e+03
2.482903e+03,1.348337e+03
2.485795e+03,1.347909e+03
2.488688e+03,1.328128e+03
2.491581e+03,1.325122e+03
2.494474e+03,1.310251e+03
2.497366e+03,1.311929e+03
2.500259e+03,1.323153e+03
2.503152e+03,1.310481e+03
2.506044e+03,1.308646e+03
2.508937e+03,1.314199e+03
2.511830e+03,1.304634e+03
2.514722e+03,1.287478e+03
2.517615e+03,1.284192e+03
2.520508e+03,1.302988e+03
2.523401e+03,1.316764e+03
2.526293e+03,1.287009e+03
2.529186e+03,1.284546e+03
2.532079e+03,1.290246e+03
2.534971e+03,1.284530e+03
2.537864e+03,1.280122e+03
2.540757e+03,1.275998e+03
2.543649e+03,1.282210e+03
2.546542e+03,1.279772e+03
2.549435e+03,1.288846e+03
2.552328e+03,1.270369e+03
2.555220e+03,1.282685e+03
2.558113e+03,1.288837e+03
2.561006e+03,1.266567e+03
2.563898e+03,1.270978e+03
2.566791e+03,1.254215e+03
2.569684e+03,1.264461e+03
2.572576e+03,1.257140e+03
2.575469e+03,1.252447e+03
2.578362e+03,1.253089e+03
2.581255e+03,1.236490e+03
2.584147e+03,1.238818e+03
2.587040e+03,1.235748e+03
2.589933e+03,1.225135e+03
2.592825e+03,1.235875e+03
2.595718e+03,1.247647e+03
2.598611e+03,1.223492e+03
2.601503e+03,1.226678e+03
2.604396e+03,1.227732e+03
2.607289e+03,1.236169e+03
2.610182e+03,1.212300e+03
2.613074e+03,1.225284e+03
2.615967e+03,1.228268e+03
2.618860e+03,1.196435e+03
2.621752e+03,1.214551e+03
2.624645e+03,1.214528e+03
2.627538e+03,1.211081e+03
2.630430e+03,1.188216e+03
2.633323e+03,1.191837e+03
2.636216e+03,1.209618e+03
2.639109e+03,1.195347e+03
2.642001e+03,1.206342e+03
2.644894e+03,1.173441e+03
2.647787e+03,1.188755e+03
2.650679e+03,1.156802e+03
2.653572e+03,1.204468e+03
2.656465e+03,1.189508e+03
2.659357e+03,1.175515e+03
2.662250e+03,1.171075e+03
2.665143e+03,1.174637e+03
2.668036e+03,1.176647e+03
2.670928e+03,1.164641e+03
2.673821e+03,1.159824e+03
2.676714e+03,1.172584e+03
2.679606e+03,1.169686e+03
2.682499e+03,1.146191e+03
2.685392e+03,1.161059e+03
2.688284e+03,1.148701e+03
2.691177e+03,1.153275e+03
2.694070e+03,1.146337e+03
2.696963e+03,1.134882e+03
2.699855e+03,1.148864e+03
2.702748e+03,1.134298e+03
2.705641e+03,1.152474e+03
2.708533e+03,1.144533e+03
2.711426e+03,1.105489e+03
2.714319e+03,1.141061e+03
2.717211e+03,1.126262e+03
2.720104e+03,1.135850e+03
2.722997e+03,1.138056e+03
2.725890e+03,1.128199e+03
2.728782e+03,1.125537e+03
2.731675e+03,1.116589e+03
2.734568e+03,1.114865e+03
2.737460e+03,1.108455e+03
2.740353e+03,1.108876e+03
2.743246e+03,1.123566e+03
2.746138e+03,1.106063e+03
2.749031e+03,1.106215e+03
2.751924e+03,1.125320e+03
2.754817e+03,1.100231e+03
2.757709e+03,1.109361e+03
2.760602e+03,1.095493e+03
2.763495e+03,1.104597e+03
2.766387e+03,1.123801e+03
2.769280e+03,1.113848e+03
2.772173e+03,1.096335e+03
2.775065e+03,1.076760e+03
2.777958e+03,1.096843e+03
2.780851e+03,1.111117e+03
2.783744e+03,1.092956e+03
2.786636e+03,1.063464e+03
2.789529e+03,1.081980e+03
2.792422e+03,1.086797e+03
2.795314e+03,1.076514e+03
2.798207e+03,1.086845e+03
2.801100e+03,1.065763e+03
2.803992e+03,1.083749e+03
2.806885e+03,1.064633e+03
2.809778e+03,1.073557e+03
2.812671e+03,1.095699e+03
2.815563e+03,1.067121e+03
2.818456e+03,1.050933e+03
2.821349e+03,1.043290e+03
2.824241e+03,1.088197e+03
2.827134e+03,1.081181e+03
2.830027e+03,1.089416e+03
2.832919e+03,1.072043e+03
2.835812e+03,1.062240e+03
2.838705e+03,1.050667e+03
2.841598e+03,1.069274e+03
2.844490e+03,1.049280e+03
2.847383e+03,1.042098e+03
2.850276e+03,1.057312e+03
2.853168e+03,1.069632e+03
2.856061e+03,1.051103e+03
2.858954e+03,1.057405e+03
2.861846e+03,1.058726e+03
2.864739e+03,1.056612e+03
2.867632e+03,1.086099e+03
2.870525e+03,1.047239e+03
2.873417e+03,1.068908e+03
2.876310e+03,1.067629e+03
2.879203e+03,1.064839e+03
2.882095e+03,1.047581e+03
2.884988e+03,1.075323e+03
2.887881e+03,1.064621e+03
2.890773e+03,1.070888e+03
2.893666e+03,1.074352e+03
2.896559e+03,1.049726e+03
2.899452e+03,1.097713e+03
2.902344e+03,1.051760e+03
2.905237e+03,1.067245e+03
2.908130e+03,1.032588e+03
2.911022e+03,1.065139e+03
2.913915e+03,1.023950e+03
2.916808e+03,1.035433e+03
2.919700e+03,1.048138e+03
2.922593e+03,1.039479e+03
2.925486e+03,1.029205e+03
2.928379e+03,1.022948e+03
2.931271e+03,1.021857e+03
2.934164e+03,1.030179e+03
2.937057e+03,1.004202e+03
2.939949e+03,1.038784e+03
2.942842e+03,1.017652e+03
2.945735e+03,1.013725e+03
2.948627e+03,1.024525e+03
2.951520e+03,1.014802e+03
2.954413e+03,1.008020e+03
2.957306e+03,1.036106e+03
2.960198e+03,1.009187e+03
2.963091e+03,1.017550e+03
2.965984e+03,9.943570e+02
2.968876e+03,9.880773e+02
2.971769e+03,9.753991e+02
2.974662e+03,9.878154e+02
2.977554e+03,9.812071e+02
2.980447e+03,9.549500e+02
2.983340e+03,9.706155e+02
2.986233e+03,9.696399e+02
2.989125e+03,9.848263e+02
2.992018e+03,9.466161e+02
2.994911e+03,9.651346e+02
2.997803e+03,9.773287e+02
3.000696e+03,9.564709e+02
3.003589e+03,9.662088e+02
3.006481e+03,9.541618e+02
3.009374e+03,9.552012e+02
3.012267e+03,9.638349e+02
3.015160e+03,9.495394e+02
3.018052e+03,9.523000e+02
3.020945e+03,9.741366e+02
3.023838e+03,9.556158e+02
3.026730e+03,9.487375e+02
3.029623e+03,9.408864e+02
3.032516e+03,9.694672e+02
3.035408e+03,9.428180e+02
3.038301e+03,9.608161e+02
3.041194e+03,9.411036e+02
3.044087e+03,9.340651e+02
3.046979e+03,9.450439e+02
3.049872e+03,9.424385e+02
3.052765e+03,9.418835e+02
3.055657e+03,9.101865e+02
3.058550e+03,9.496788e+02
3.061443e+03,9.450470e+02
3.064335e+03,9.468660e+02
3.067228e+03,9.069213e+02
3.070121e+03,9.482552e+02
3.073014e+03,8.799922e+02
3.075906e+03,9.486008e+02
3.078799e+03,9.466045e+02
3.081692e+03,9.710772e+02
3.084584e+03,9.216642e+02
3.087477e+03,9.336115e+02
3.090370e+03,9.115790e+02
3.093262e+03,9.250065e+02
3.096155e+03,9.345385e+02
3.099048e+03,9.245754e+02
3.101941e+03,9.033305e+02
3.104833e+03,9.153848e+02
3.107726e+03,9.173254e+02
3.110619e+03,9.254646e+02
3.113511e+03,9.413566e+02
3.116404e+03,9.094869e+02
3.119297e+03,9.264148e+02
3.122189e+03,9.233591e+02
3.125082e+03,9.354532e+02
3.127975e+03,9.138223e+02
3.130868e+03,9.125880e+02
3.133760e+03,9.275505e+02
3.136653e+03,8.985992e+02
3.139546e+03,9.445828e+02
3.142438e+03,9.140145e+02
3.145331e+03,8.788362e+02
3.148224e+03,9.439704e+02
3.151116e+03,9.293468e+02
3.154009e+03,8.918525e+02
3.156902e+03,9.023910e+02
3.159795e+03,9.242545e+02
3.162687e+03,9.065676e+02
3.165580e+03,8.963976e+02
3.168473e+03,9.508740e+02
3.171365e+03,9.059578e+02
3.174258e+03,8.978981e+02
3.177151e+03,8.951734e+02
3.180043e+03,9.156641e+02
3.182936e+03,9.487962e+02
3.185829e+03,8.973653e+02
3.188722e+03,9.430191e+02
3.191614e+03,9.430352e+02
3.194507e+03,9.106591e+02
3.197400e+03,8.824599e+02
3.200292e+03,9.442111e+02
3.203185e+03,0.000000e+00
3.206078e+03,0.000000e+00
3.208970e+03,0.000000e+00
3.211863e+03,0.000000e+00
3.214756e+03,0.000000e+00
3.217649e+03,0.000000e+00
3.220541e+03,0.000000e+00
3.223434e+03,0.000000e+00
3.226327e+03,0.000000e+00
3.229219e+03,0.000000e+00
3.232112e+03,0.000000e+00
3.235005e+03,0.000000e+00
3.237897e+03,0.000000e+00
3.240790e+03,0.000000e+00
3.243683e+03,0.000000e+00
3.246576e+03,0.000000e+00
3.249468e+03,0.000000e+00
3.252361e+03,0.000000e+00
3.255254e+03,0.000000e+00
3.258146e+03,0.000000e+00
3.261039e+03,0.000000e+00
3.263932e+03,0.000000e+00
3.266824e+03,0.000000e+00
3.269717e+03,0.000000e+00
3.272610e+03,0.000000e+00
3.275503e+03,0.000000e+00
3.278395e+03,0.000000e+00
3.281288e+03,0.000000e+00
3.284181e+03,0.000000e+00
3.287073e+03,0.000000e+00
3.289966e+03,0.000000e+00
3.292859e+03,0.000000e+00
3.295751e+03,0.000000e+00
3.298644e+03,0.000000e+00
3.301537e+03,0.000000e+00
3.304430e+03,0.000000e+00
3.307322e+03,0.000000e+00
3.310215e+03,0.000000e+00
3.313108e+03,0.000000e+00
3.316000e+03,0.000000e+00
3.318893e+03,0.000000e+00
3.321786e+03,0.000000e+00
3.324678e+03,0.000000e+00
3.327571e+03,0.000000e+00
3.330464e+03,0.000000e+00
3.333357e+03,0.000000e+00
3.336249e+03,0.000000e+00
3.339142e+03,0.000000e+00
3.342035e+03,0.000000e+00
3.344927e+03,0.000000e+00
3.347820e+03,0.000000e+00
3.350713e+03,0.000000e+00
3.353605e+03,0.000000e+00
3.356498e+03,0.000000e+00
3.359391e+03,0.000000e+00
3.362284e+03,0.000000e+00
3.365176e+03,0.000000e+00
3.368069e+03,0.000000e+00
3.370962e+03,0.000000e+00
3.373854e+03,0.000000e+00
3.376747e+03,0.000000e+00
3.379640e+03,0.000000e+00
3.382532e+03,0.000000e+00
3.385425e+03,0.000000e+00
3.388318e+03,0.000000e+00
3.391211e+03,0.000000e+00
3.394103e+03,0.000000e+00
3.396996e+03,0.000000e+00
3.399889e+03,0.000000e+00
3.402781e+03,0.000000e+00
3.405674e+03,0.000000e+00
3.408567e+03,0.000000e+00
3.411459e+03,0.000000e+00
3.414352e+03,0.000000e+00
3.417245e+03,0.000000e+00
3.420138e+03,0.000000e+00
3.423030e+03,0.000000e+00
3.425923e+03,0.000000e+00
3.428816e+03,0.000000e+00
3.431708e+03,0.000000e+00
3.434601e+03,0.000000e+00
3.437494e+03,0.000000e+00
3.440386e+03,0.000000e+00
3.443279e+03,0.000000e+00
3.446172e+03,0.000000e+00
3.449065e+03,0.000000e+00
3.451957e+03,0.000000e+00
3.454850e+03,0.000000e+00
3.457743e+03,0.000000e+00
3.460635e+03,0.000000e+00
3.463528e+03,0.000000e+00
3.466421e+03,0.000000e+00
3.469313e+03,0.000000e+00
3.472206e+03,0.000000e+00
3.475099e+03,0.000000e+00
3.477992e+03,0.000000e+00
3.480884e+03,0.000000e+00
3.483777e+03,0.000000e+00
3.486670e+03,0.000000e+00
3.489563e+03,0.000000e+00
3.492455e+03,0.000000e+00
3.495348e+03,0.000000e+00
3.498240e+03,0.000000e+00
3.500169e+03,0.000000e+00