File: RAMAN_data/12022024_r2/white frag1.CSV
9.931763e+01,0.000000e+00
1.022103e+02,0.000000e+00
1.051030e+02,0.000000e+00
1.079957e+02,0.000000e+00
1.108884e+02,0.000000e+00
1.137811e+02,0.000000e+00
1.166738e+02,0.000000e+00
1.195665e+02,0.000000e+00
1.224592e+02,0.000000e+00
1.253519e+02,0.000000e+00
1.282446e+02,0.000000e+00
1.311373e+02,0.000000e+00
1.340300e+02,0.000000e+00
1.369227e+02,0.000000e+00
1.398154e+02,0.000000e+00
1.427081e+02,0.000000e+00
1.456008e+02,0.000000e+00
1.484935e+02,0.000000e+00
1.513862e+02,0.000000e+00
1.542789e+02,0.000000e+00
1.571716e+02,0.000000e+00
1.600643e+02,0.000000e+00
1.629570e+02,0.000000e+00
1.658497e+02,0.000000e+00
1.687424e+02,0.000000e+00
1.716351e+02,0.000000e+00
1.745278e+02,0.000000e+00
1.774205e+02,0.000000e+00
1.803132e+02,0.000000e+00
1.832059e+02,0.000000e+00
1.860986e+02,0.000000e+00
1.889913e+02,0.000000e+00
1.918840e+02,0.000000e+00
1.947767e+02,0.000000e+00
1.976694e+02,0.000000e+00
2.005621e+02,1.900793e+03
2.034548e+02,1.897514e+03
2.063475e+02,1.896161e+03
2.092402e+02,1.895493e+03
2.121329e+02,1.883774e+03
2.150256e+02,1.896742e+03
2.179183e+02,1.892839e+03
2.208110e+02,1.903491e+03
2.237037e+02,1.883443e+03
2.265964e+02,1.883421e+03
2.294892e+02,1.889671e+03
2.323819e+02,1.884980e+03
2.352746e+02,1.886915e+03
2.381673e+02,1.900789e+03
2.410600e+02,1.890622e+03
2.439527e+02,1.875794e+03
2.468454e+02,1.893084e+03
2.497381e+02,1.885912e+03
2.526308e+02,1.875281e+03
2.555235e+02,1.890233e+03
2.584161e+02,1.883102e+03
2.613088e+02,1.872006e+03
2.642015e+02,1.888212e+03
2.670942e+02,1.884223e+03
2.699869e+02,1.882906e+03
2.728796e+02,1.864433e+03
2.757723e+02,1.868084e+03
2.786650e+02,1.863192e+03
2.815577e+02,1.862764e+03
2.844504e+02,1.866388e+03
2.873431e+02,1.862020e+03
2.902358e+02,1.855062e+03
2.931285e+02,1.858182e+03
2.960212e+02,1.857052e+03
2.989139e+02,1.849935e+03
3.018066e+02,1.849497e+03
3.046993e+02,1.849881e+03
3.075920e+02,1.849826e+03
3.104847e+02,1.847224e+03
3.133774e+02,1.855966e+03
3.162701e+02,1.847806e+03
3.191628e+02,1.845864e+03
3.220555e+02,1.849514e+03
3.249482e+02,1.842149e+03
3.278409e+02,1.843323e+03
3.307336e+02,1.835946e+03
3.336263e+02,1.843703e+03
3.365190e+02,1.837112e+03
3.394117e+02,1.835299e+03
3.423044e+02,1.827129e+03
3.451971e+02,1.839307e+03
3.480898e+02,1.843774e+03
3.509825e+02,1.827069e+03
3.538752e+02,1.828342e+03
3.567680e+02,1.835563e+03
3.596607e+02,1.823552e+03
3.625534e+02,1.819630e+03
3.654461e+02,1.831524e+03
3.683388e+02,1.820320e+03
3.712315e+02,1.823237e+03
3.741242e+02,1.831594e+03
3.770169e+02,1.832336e+03
3.799096e+02,1.826729e+03
3.828023e+02,1.808245e+03
3.856950e+02,1.795491e+03
3.885877e+02,1.798757e+03
3.914804e+02,1.795593e+03
3.943731e+02,1.788325e+03
3.972658e+02,1.780008e+03
4.001585e+02,1.776410e+03
4.030512e+02,1.782274e+03
4.059439e+02,1.777399e+03
4.088366e+02,1.785410e+03
4.117293e+02,1.778019e+03
4.146220e+02,1.776029e+03
4.175147e+02,1.774725e+03
4.204074e+02,1.766654e+03
4.233001e+02,1.755305e+03
4.261928e+02,1.771228e+03
4.290855e+02,1.774758e+03
4.319782e+02,1.775360e+03
4.348709e+02,1.778499e+03
4.377636e+02,1.774132e+03
4.406563e+02,1.759644e+03
4.435490e+02,1.762393e+03
4.464417e+02,1.766015e+03
4.493344e+02,1.749242e+03
4.522271e+02,1.755250e+03
4.551198e+02,1.752819e+03
4.580125e+02,1.754590e+03
4.609052e+02,1.733350e+03
4.637979e+02,1.729600e+03
4.666906e+02,1.732357e+03
4.695833e+02,1.717310e+03
4.724760e+02,1.725427e+03
4.753687e+02,1.729094e+03
4.782614e+02,1.717258e+03
4.811541e+02,1.707807e+03
4.840468e+02,1.716266e+03
4.869395e+02,1.717726e+03
4.898322e+02,1.694304e+03
4.927249e+02,1.700936e+03
4.956176e+02,1.701740e+03
4.985103e+02,1.704302e+03
5.014030e+02,1.706821e+03
5.042957e+02,1.705073e+03
5.071884e+02,1.699642e+03
5.100811e+02,1.692275e+03
5.129738e+02,1.689520e+03
5.158665e+02,1.700822e+03
5.187592e+02,1.679975e+03
5.216519e+02,1.689806e+03
5.245446e+02,1.683577e+03
5.274373e+02,1.680268e+03
5.303300e+02,1.678708e+03
5.332227e+02,1.672808e+03
5.361154e+02,1.664021e+03
5.390081e+02,1.673190e+03
5.419008e+02,1.653360e+03
5.447935e+02,1.665453e+03
5.476862e+02,1.665240e+03
5.505789e+02,1.657462e+03
5.534716e+02,1.648135e+03
5.563643e+02,1.647854e+03
5.592570e+02,1.657439e+03
5.621497e+02,1.669480e+03
5.650424e+02,1.644742e+03
5.679351e+02,1.637993e+03
5.708278e+02,1.645988e+03
5.737205e+02,1.628020e+03
5.766132e+02,1.631763e+03
5.795059e+02,1.626022e+03
5.823986e+02,1.632198e+03
5.852913e+02,1.622138e+03
5.881840e+02,1.630952e+03
5.910767e+02,1.633627e+03
5.939694e+02,1.616504e+03
5.968621e+02,1.610299e+03
5.997548e+02,1.614291e+03
6.026475e+02,1.623488e+03
6.055402e+02,1.630058e+03
6.084329e+02,1.618484e+03
6.113256e+02,1.612993e+03
6.142183e+02,1.601071e+03
6.171110e+02,1.607622e+03
6.200037e+02,1.607533e+03
6.228964e+02,1.612156e+03
6.257891e+02,1.599830e+03
6.286818e+02,1.598685e+03
6.315745e+02,1.596911e+03
6.344672e+02,1.596413e+03
6.373599e+02,1.589893e+03
6.402526e+02,1.588449e+03
6.431453e+02,1.585624e+03
6.460380e+02,1.584882e+03
6.489307e+02,1.578020e+03
6.518234e+02,1.565178e+03
6.547161e+02,1.574568e+03
6.576088e+02,1.565000e+03
6.605015e+02,1.563547e+03
6.633942e+02,1.567300e+03
6.662869e+02,1.556256e+03
6.691796e+02,1.566390e+03
6.720723e+02,1.554454e+03
6.749650e+02,1.553555e+03
6.778577e+02,1.556346e+03
6.807504e+02,1.567031e+03
6.836431e+02,1.548962e+03
6.865358e+02,1.551658e+03
6.894285e+02,1.541585e+03
6.923212e+02,1.549418e+03
6.952139e+02,1.550478e+03
6.981066e+02,1.529072e+03
7.009993e+02,1.544039e+03
7.038920e+02,1.537973e+03
7.067847e+02,1.530822e+03
7.096774e+02,1.519077e+03
7.125701e+02,1.534906e+03
7.154628e+02,1.535213e+03
7.183555e+02,1.523406e+03
7.212482e+02,1.517309e+03
7.241409e+02,1.510889e+03
7.270336e+02,1.520473e+03
7.299263e+02,1.514894e+03
7.328190e+02,1.502392e+03
7.357117e+02,1.510171e+03
7.386044e+02,1.499630e+03
7.414971e+02,1.495937e+03
7.443898e+02,1.495600e+03
7.472825e+02,1.491814e+03
7.501752e+02,1.498041e+03
7.530679e+02,1.502247e+03
7.559606e+02,1.489518e+03
7.588533e+02,1.482417e+03
7.617460e+02,1.481862e+03
7.646387e+02,1.489640e+03
7.675314e+02,1.472662e+03
7.704241e+02,1.478828e+03
7.733168e+02,1.471439e+03
7.762095e+02,1.477785e+03
7.791022e+02,1.479748e+03
7.819949e+02,1.473973e+03
7.848876e+02,1.470224e+03
7.877803e+02,1.468318e+03
7.906730e+02,1.467526e+03
7.935657e+02,1.468784e+03
7.964584e+02,1.460190e+03
7.993511e+02,1.467149e+03
8.022438e+02,1.460114e+03
8.051365e+02,1.456780e+03
8.080292e+02,1.450924e+03
8.109219e+02,1.448846e+03
8.138146e+02,1.440313e+03
8.167073e+02,1.439986e+03
8.196000e+02,1.441678e+03
8.224927e+02,1.443687e+03
8.253854e+02,1.437197e+03
8.282781e+02,1.440778e+03
8.311708e+02,1.435186e+03
8.340635e+02,1.438565e+03
8.369562e+02,1.428560e+03
8.398489e+02,1.425025e+03
8.427416e+02,1.431526e+03
8.456343e+02,1.420094e+03
8.485270e+02,1.413532e+03
8.514197e+02,1.418833e+03
8.543124e+02,1.419978e+03
8.572051e+02,1.405804e+03
8.600978e+02,1.404773e+03
8.629905e+02,1.414922e+03
8.658832e+02,1.415427e+03
8.687759e+02,1.404949e+03
8.716686e+02,1.416295e+03
8.745613e+02,1.408414e+03
8.774540e+02,1.401597e+03
8.803467e+02,1.412131e+03
8.832394e+02,1.407093e+03
8.861321e+02,1.407103e+03
8.890248e+02,1.392710e+03
8.919175e+02,1.403167e+03
8.948102e+02,1.393640e+03
8.977029e+02,1.390350e+03
9.005956e+02,1.388455e+03
9.034883e+02,1.390235e+03
9.063810e+02,1.383064e+03
9.092737e+02,1.371443e+03
9.121664e+02,1.368578e+03
9.150591e+02,1.370299e+03
9.179518e+02,1.364948e+03
9.208445e+02,1.363134e+03
9.237372e+02,1.356734e+03
9.266299e+02,1.360309e+03
9.295226e+02,1.360560e+03
9.324153e+02,1.359577e+03
9.353080e+02,1.355393e+03
9.382007e+02,1.350329e+03
9.410934e+02,1.349369e+03
9.439861e+02,1.357361e+03
9.468788e+02,1.336723e+03
9.497715e+02,1.352328e+03
9.526642e+02,1.344012e+03
9.555569e+02,1.335012e+03
9.584496e+02,1.340063e+03
9.613423e+02,1.340027e+03
9.642350e+02,1.341891e+03
9.671277e+02,1.332726e+03
9.700204e+02,1.333894e+03
9.729131e+02,1.333283e+03
9.758058e+02,1.324087e+03
9.786985e+02,1.328345e+03
9.815912e+02,1.322720e+03
9.844839e+02,1.318484e+03
9.873766e+02,1.315862e+03
9.902693e+02,1.319504e+03
9.931620e+02,1.317640e+03
9.960547e+02,1.312180e+03
9.989474e+02,1.312585e+03
1.001840e+03,1.306099e+03
1.004733e+03,1.299549e+03
1.007626e+03,1.307898e+03
1.010518e+03,1.310996e+03
1.013411e+03,1.302172e+03
1.016304e+03,1.293966e+03
1.019196e+03,1.296893e+03
1.022089e+03,1.295182e+03
1.024982e+03,1.294883e+03
1.027875e+03,1.291092e+03
1.030767e+03,1.292180e+03
1.033660e+03,1.285705e+03
1.036552e+03,1.293744e+03
1.039445e+03,1.281934e+03
1.042338e+03,1.287688e+03
1.045231e+03,1.287371e+03
1.048123e+03,1.293053e+03
1.051016e+03,1.297468e+03
1.053909e+03,1.294118e+03
1.056802e+03,1.279070e+03
1.059694e+03,1.288278e+03
1.062587e+03,1.284024e+03
1.065479e+03,1.272715e+03
1.068372e+03,1.279884e+03
1.071265e+03,1.281306e+03
1.074158e+03,1.279908e+03
1.077050e+03,1.268543e+03
1.079943e+03,1.274928e+03
1.082836e+03,1.282562e+03
1.085729e+03,1.283148e+03
1.088621e+03,1.306885e+03
1.091514e+03,1.313853e+03
1.094406e+03,1.307717e+03
1.097299e+03,1.302089e+03
1.100192e+03,1.286265e+03
1.103085e+03,1.289064e+03
1.105977e+03,1.272464e+03
1.108870e+03,1.276186e+03
1.111763e+03,1.273727e+03
1.114656e+03,1.279372e+03
1.117548e+03,1.285848e+03
1.120441e+03,1.278750e+03
1.123334e+03,1.282462e+03
1.126226e+03,1.267218e+03
1.129119e+03,1.264194e+03
1.132012e+03,1.256799e+03
1.134904e+03,1.246789e+03
1.137797e+03,1.236419e+03
1.140690e+03,1.231454e+03
1.143583e+03,1.238646e+03
1.146475e+03,1.232134e+03
1.149368e+03,1.233559e+03
1.152261e+03,1.236186e+03
1.155153e+03,1.234634e+03
1.158046e+03,1.222667e+03
1.160939e+03,1.217655e+03
1.163831e+03,1.221907e+03
1.166724e+03,1.202776e+03
1.169617e+03,1.211902e+03
1.172510e+03,1.215467e+03
1.175402e+03,1.204489e+03
1.178295e+03,1.217442e+03
1.181188e+03,1.214150e+03
1.184080e+03,1.207759e+03
1.186973e+03,1.203000e+03
1.189866e+03,1.194348e+03
1.192758e+03,1.199945e+03
1.195651e+03,1.209489e+03
1.198544e+03,1.203788e+03
1.201437e+03,1.192986e+03
1.204329e+03,1.196964e+03
1.207222e+03,1.193745e+03
1.210115e+03,1.190673e+03
1.213007e+03,1.191581e+03
1.215900e+03,1.190546e+03
1.218793e+03,1.187444e+03
1.221685e+03,1.178456e+03
1.224578e+03,1.179588e+03
1.227471e+03,1.183015e+03
1.230364e+03,1.180280e+03
1.233256e+03,1.170089e+03
1.236149e+03,1.183129e+03
1.239042e+03,1.179696e+03
1.241934e+03,1.177251e+03
1.244827e+03,1.174796e+03
1.247720e+03,1.164614e+03
1.250612e+03,1.166320e+03
1.253505e+03,1.169236e+03
1.256398e+03,1.165918e+03
1.259291e+03,1.165090e+03
1.262183e+03,1.162335e+03
1.265076e+03,1.170777e+03
1.267969e+03,1.159071e+03
1.270861e+03,1.168760e+03
1.273754e+03,1.171972e+03
1.276647e+03,1.168540e+03
1.279539e+03,1.162424e+03
1.282432e+03,1.162792e+03
1.285325e+03,1.159424e+03
1.288218e+03,1.163913e+03
1.291110e+03,1.164793e+03
1.294003e+03,1.162404e+03
1.296896e+03,1.156680e+03
1.299788e+03,1.159070e+03
1.302681e+03,1.157085e+03
1.305574e+03,1.159609e+03
1.308466e+03,1.150799e+03
1.311359e+03,1.158082e+03
1.314252e+03,1.149380e+03
1.317145e+03,1.144359e+03
1.320037e+03,1.157023e+03
1.322930e+03,1.146611e+03
1.325823e+03,1.148430e+03
1.328715e+03,1.152639e+03
1.331608e+03,1.147307e+03
1.334501e+03,1.153322e+03
1.337393e+03,1.140235e+03
1.340286e+03,1.151351e+03
1.343179e+03,1.144250e+03
1.346072e+03,1.141800e+03
1.348964e+03,1.135586e+03
1.351857e+03,1.133226e+03
1.354750e+03,1.137076e+03
1.357642e+03,1.135135e+03
1.360535e+03,1.129014e+03
1.363428e+03,1.126116e+03
1.366320e+03,1.137330e+03
1.369213e+03,1.133091e+03
1.372106e+03,1.136151e+03
1.374999e+03,1.136457e+03
1.377891e+03,1.144928e+03
1.380784e+03,1.133205e+03
1.383677e+03,1.127877e+03
1.386569e+03,1.118338e+03
1.389462e+03,1.116383e+03
1.392355e+03,1.120243e+03
1.395247e+03,1.094576e+03
1.398140e+03,1.110230e+03
1.401033e+03,1.110994e+03
1.403926e+03,1.100205e+03
1.406818e+03,1.102432e+03
1.409711e+03,1.094814e+03
1.412604e+03,1.096096e+03
1.415496e+03,1.100320e+03
1.418389e+03,1.094947e+03
1.421282e+03,1.089619e+03
1.424174e+03,1.087567e+03
1.427067e+03,1.092348e+03
1.429960e+03,1.092038e+03
1.432853e+03,1.087890e+03
1.435745e+03,1.077209e+03
1.438638e+03,1.079891e+03
1.441531e+03,1.082988e+03
1.444423e+03,1.074547e+03
1.447316e+03,1.077970e+03
1.450209e+03,1.079894e+03
1.453101e+03,1.068555e+03
1.455994e+03,1.074322e+03
1.458887e+03,1.082170e+03
1.461780e+03,1.073808e+03
1.464672e+03,1.069652e+03
1.467565e+03,1.063827e+03
1.470458e+03,1.075005e+03
1.473350e+03,1.059887e+03
1.476243e+03,1.058652e+03
1.479136e+03,1.061252e+03
1.482028e+03,1.058327e+03
1.484921e+03,1.061226e+03
1.487814e+03,1.056626e+03
1.490707e+03,1.044995e+03
1.493599e+03,1.041701e+03
1.496492e+03,1.047043e+03
1.499385e+03,1.044988e+03
1.502277e+03,1.039698e+03
1.505170e+03,1.042449e+03
1.508063e+03,1.036083e+03
1.510955e+03,1.040829e+03
1.513848e+03,1.030653e+03
1.516741e+03,1.029413e+03
1.519634e+03,1.028634e+03
1.522526e+03,1.036035e+03
1.525419e+03,1.034916e+03
1.528312e+03,1.043826e+03
1.531204e+03,1.027608e+03
1.534097e+03,1.028521e+03
1.536990e+03,1.022812e+03
1.539882e+03,1.030077e+03
1.542775e+03,1.021910e+03
1.545668e+03,1.027048e+03
1.548561e+03,1.017513e+03
1.551453e+03,1.022710e+03
1.554346e+03,1.028132e+03
1.557239e+03,1.023513e+03
1.560131e+03,1.020939e+03
1.563024e+03,1.016214e+03
1.565917e+03,1.023318e+03
1.568809e+03,1.011237e+03
1.571702e+03,1.017983e+03
1.574595e+03,1.013713e+03
1.577488e+03,1.008440e+03
1.580380e+03,1.007613e+03
1.583273e+03,1.003302e+03
1.586166e+03,1.006096e+03
1.589058e+03,1.015408e+03
1.591951e+03,1.004053e+03
1.594844e+03,1.019258e+03
1.597736e+03,1.004267e+03
1.600629e+03,1.009381e+03
1.603522e+03,1.003032e+03
1.606415e+03,9.960704e+02
1.609307e+03,9.970605e+02
1.612200e+03,9.984629e+02
1.615093e+03,9.897391e+02
1.617985e+03,9.901425e+02
1.620878e+03,9.913466e+02
1.623771e+03,9.936083e+02
1.626663e+03,9.661719e+02
1.629556e+03,9.896097e+02
1.632449e+03,9.837631e+02
1.635342e+03,9.705750e+02
1.638234e+03,9.734536e+02
1.641127e+03,9.741430e+02
1.644020e+03,9.715157e+02
1.646912e+03,9.695484e+02
1.649805e+03,9.642731e+02
1.652698e+03,9.653668e+02
1.655590e+03,9.642881e+02
1.658483e+03,9.607984e+02
1.661376e+03,9.595969e+02
1.664269e+03,9.532047e+02
1.667161e+03,9.572261e+02
1.670054e+03,9.408915e+02
1.672947e+03,9.526481e+02
1.675839e+03,9.589799e+02
1.678732e+03,9.495463e+02
1.681625e+03,9.425763e+02
1.684517e+03,9.497383e+02
1.687410e+03,9.488283e+02
1.690303e+03,9.510734e+02
1.693196e+03,9.466558e+02
1.696088e+03,9.398359e+02
1.698981e+03,9.274091e+02
1.701874e+03,9.367260e+02
1.704766e+03,9.282595e+02
1.707659e+03,9.296299e+02
1.710552e+03,9.387280e+02
1.713444e+03,9.391368e+02
1.716337e+03,9.257374e+02
1.719230e+03,9.203424e+02
1.722123e+03,9.243320e+02
1.725015e+03,9.105026e+02
1.727908e+03,9.143448e+02
1.730801e+03,9.193870e+02
1.733693e+03,9.154617e+02
1.736586e+03,9.072599e+02
1.739479e+03,9.197488e+02
1.742371e+03,9.170483e+02
1.745264e+03,9.186504e+02
1.748157e+03,9.204863e+02
1.751050e+03,9.001595e+02
1.753942e+03,8.913352e+02
1.756835e+03,8.972801e+02
1.759728e+03,8.985209e+02
1.762620e+03,9.080515e+02
1.765513e+03,9.000422e+02
1.768406e+03,8.977281e+02
1.771298e+03,8.956190e+02
1.774191e+03,8.918610e+02
1.777084e+03,8.904416e+02
1.779977e+03,8.863824e+02
1.782869e+03,8.768063e+02
1.785762e+03,8.870760e+02
1.788655e+03,8.875416e+02
1.791547e+03,8.827820e+02
1.794440e+03,8.910888e+02
1.797333e+03,8.777502e+02
1.800225e+03,8.779752e+02
1.803118e+03,8.800013e+02
1.806011e+03,8.691526e+02
1.808904e+03,8.847320e+02
1.811796e+03,8.629205e+02
1.814689e+03,8.683743e+02
1.817582e+03,8.627381e+02
1.820474e+03,8.653317e+02
1.823367e+03,8.707869e+02
1.826260e+03,8.565858e+02
1.829152e+03,8.564930e+02
1.832045e+03,8.632527e+02
1.834938e+03,8.630211e+02
1.837831e+03,8.515491e+02
1.840723e+03,8.438949e+02
1.843616e+03,8.589847e+02
1.846509e+03,8.552166e+02
1.849401e+03,8.373713e+02
1.852294e+03,8.410207e+02
1.855187e+03,8.492550e+02
1.858079e+03,8.427646e+02
1.860972e+03,8.337891e+02
1.863865e+03,8.526125e+02
1.866758e+03,8.326701e+02
1.869650e+03,8.379387e+02
1.872543e+03,8.362210e+02
1.875436e+03,8.469850e+02
1.878328e+03,8.282150e+02
1.881221e+03,8.327627e+02
1.884114e+03,8.250118e+02
1.887006e+03,8.215382e+02
1.889899e+03,8.187270e+02
1.892792e+03,8.300684e+02
1.895685e+03,8.163255e+02
1.898577e+03,8.187887e+02
1.901470e+03,8.260641e+02
1.904363e+03,8.074445e+02
1.907255e+03,8.146299e+02
1.910148e+03,8.082042e+02
1.913041e+03,8.014001e+02
1.915933e+03,8.024620e+02
1.918826e+03,7.951288e+02
1.921719e+03,8.018464e+02
1.924612e+03,7.980608e+02
1.927504e+03,7.983799e+02
1.930397e+03,7.985945e+02
1.933290e+03,8.019117e+02
1.936182e+03,8.033727e+02
1.939075e+03,7.871815e+02
1.941968e+03,7.888808e+02
1.944860e+03,7.950311e+02
1.947753e+03,7.913944e+02
1.950646e+03,7.786422e+02
1.953539e+03,7.854938e+02
1.956431e+03,7.808911e+02
1.959324e+03,7.832285e+02
1.962217e+03,7.858232e+02
1.965109e+03,7.822114e+02
1.968002e+03,7.768318e+02
1.970895e+03,7.728747e+02
1.973787e+03,7.733350e+02
1.976680e+03,7.604073e+02
1.979573e+03,7.674047e+02
1.982466e+03,7.712513e+02
1.985358e+03,7.587780e+02
1.988251e+03,7.716868e+02
1.991144e+03,7.617924e+02
1.994036e+03,7.636173e+02
1.996929e+03,7.751597e+02
1.999822e+03,7.612799e+02
2.002714e+03,7.613699e+02
2.005607e+03,7.577062e+02
2.008500e+03,7.564707e+02
2.011393e+03,7.493184e+02
2.014285e+03,7.448470e+02
2.017178e+03,7.412618e+02
2.020071e+03,7.460627e+02
2.022963e+03,7.406376e+02
2.025856e+03,7.355891e+02
2.028749e+03,7.350689e+02
2.031641e+03,7.364492e+02
2.034534e+03,7.346734e+02
2.037427e+03,7.355120e+02
2.040320e+03,7.252266e+02
2.043212e+03,7.361161e+02
2.046105e+03,7.195495e+02
2.048998e+03,7.139726e+02
2.051890e+03,7.269232e+02
2.054783e+03,7.242988e+02
2.057676e+03,7.192957e+02
2.060568e+03,7.104608e+02
2.063461e+03,7.129686e+02
2.066354e+03,6.966642e+02
2.069247e+03,7.095486e+02
2.072139e+03,7.000845e+02
2.075032e+03,7.007722e+02
2.077925e+03,7.013493e+02
2.080817e+03,7.057842e+02
2.083710e+03,7.001041e+02
2.086603e+03,7.021469e+02
2.089496e+03,7.061530e+02
2.092388e+03,7.015402e+02
2.095281e+03,7.073545e+02
2.098174e+03,7.019581e+02
2.101066e+03,6.881146e+02
2.103959e+03,6.812972e+02
2.106852e+03,6.949124e+02
2.109744e+03,6.871642e+02
2.112637e+03,6.805948e+02
2.115530e+03,6.758771e+02
2.118422e+03,6.758696e+02
2.121315e+03,6.835506e+02
2.124208e+03,6.746863e+02
2.127101e+03,6.693522e+02
2.129993e+03,6.752806e+02
2.132886e+03,6.775316e+02
2.135779e+03,6.819307e+02
2.138671e+03,6.693307e+02
2.141564e+03,6.648254e+02
2.144457e+03,6.649088e+02
2.147350e+03,6.532799e+02
2.150242e+03,6.602468e+02
2.153135e+03,6.530244e+02
2.156028e+03,6.672102e+02
2.158920e+03,6.524975e+02
2.161813e+03,6.604589e+02
2.164706e+03,6.605555e+02
2.167598e+03,6.444911e+02
2.170491e+03,6.489911e+02
2.173384e+03,6.539532e+02
2.176277e+03,6.371099e+02
2.179169e+03,6.398470e+02
2.182062e+03,6.413073e+02
2.184955e+03,6.481358e+02
2.187847e+03,6.493417e+02
2.190740e+03,6.450950e+02
2.193633e+03,6.374474e+02
2.196525e+03,6.425081e+02
2.199418e+03,6.353831e+02
2.202311e+03,6.351713e+02
2.205204e+03,6.314533e+02
2.208096e+03,6.288019e+02
2.210989e+03,6.165706e+02
2.213882e+03,6.251047e+02
2.216774e+03,6.184495e+02
2.219667e+03,6.236193e+02
2.222560e+03,6.242313e+02
2.225452e+03,6.218088e+02
2.228345e+03,5.992282e+02
2.231238e+03,6.273700e+02
2.234131e+03,6.186248e+02
2.237023e+03,6.092281e+02
2.239916e+03,6.194125e+02
2.242809e+03,5.958380e+02
2.245701e+03,6.088080e+02
2.248594e+03,6.007283e+02
2.251487e+03,6.087121e+02
2.254379e+03,6.070680e+02
2.257272e+03,5.979937e+02
2.260165e+03,5.971003e+02
2.263058e+03,5.921154e+02
2.265950e+03,6.106229e+02
2.268843e+03,5.981849e+02
2.271736e+03,5.900793e+02
2.274628e+03,5.849578e+02
2.277521e+03,5.920048e+02
2.280414e+03,5.829510e+02
2.283306e+03,6.041338e+02
2.286199e+03,5.804493e+02
2.289092e+03,5.918278e+02
2.291985e+03,5.842899e+02
2.294877e+03,5.847816e+02
2.297770e+03,5.882346e+02
2.300663e+03,5.658069e+02
2.303555e+03,5.759168e+02
2.306448e+03,5.735139e+02
2.309341e+03,5.704898e+02
2.312233e+03,5.726019e+02
2.315126e+03,5.690508e+02
2.318019e+03,5.796232e+02
2.320912e+03,5.606622e+02
2.323804e+03,5.615541e+02
2.326697e+03,5.616065e+02
2.329590e+03,5.662203e+02
2.332482e+03,5.676069e+02
2.335375e+03,5.475732e+02
2.338268e+03,5.558904e+02
2.341160e+03,5.596096e+02
2.344053e+03,5.582895e+02
2.346946e+03,5.546740e+02
2.349839e+03,5.484784e+02
2.352731e+03,5.543426e+02
2.355624e+03,5.490054e+02
2.358517e+03,5.393484e+02
2.361409e+03,5.599141e+02
2.364302e+03,5.400704e+02
2.367195e+03,5.305071e+02
2.370087e+03,5.389829e+02
2.372980e+03,5.497118e+02
2.375873e+03,5.395024e+02
2.378766e+03,5.427372e+02
2.381658e+03,5.435879e+02
2.384551e+03,5.307457e+02
2.387444e+03,5.334808e+02
2.390336e+03,5.366910e+02
2.393229e+03,5.359301e+02
2.396122e+03,5.383351e+02
2.399014e+03,5.280920e+02
2.401907e+03,5.305367e+02
2.404800e+03,5.189563e+02
2.407693e+03,5.275720e+02
2.410585e+03,5.195399e+02
2.413478e+03,5.136516e+02
2.416371e+03,5.192659e+02
2.419263e+03,5.175570e+02
2.422156e+03,5.223673e+02
2.425049e+03,5.189875e+02
2.427941e+03,5.117072e+02
2.430834e+03,5.145094e+02
2.433727e+03,5.164723e+02
2.436620e+03,5.209285e+02
2.439512e+03,5.245602e+02
2.442405e+03,5.064752e+02
2.445298e+03,5.036713e+02
2.448190e+03,5.030188e+02
2.451083e+03,5.138060e+02
2.453976e+03,5.041278e+02
2.456868e+03,5.113378e+02
2.459761e+03,5.095177e+02
2.462654e+03,4.942080e+02
2.465547e+03,4.990123e+02
2.468439e+03,4.992711e+02
2.471332e+03,4.900179e+02
2.474225e+03,4.889568e+02
2.477117e+03,4.955497e+02
2.480010e+03,4.955105e+02
2.482903e+03,4.978302e+02
2.485795e+03,4.930501e+02
2.488688e+03,4.864696e+02
2.491581e+03,4.950861e+02
2.494474e+03,4.861214e+02
2.497366e+03,4.920111e+02
2.500259e+03,4.829258e+02
2.503152e+03,4.834072e+02
2.506044e+03,4.911690e+02
2.508937e+03,4.827152e+02
2.511830e+03,4.846656e+02
2.514722e+03,4.792979e+02
2.517615e+03,4.768470e+02
2.520508e+03,4.839415e+02
2.523401e+03,4.818451e+02
2.526293e+03,4.638370e+02
2.529186e+03,4.603058e+02
2.532079e+03,4.759115e+02
2.534971e+03,4.701288e+02
2.537864e+03,4.692584e+02
2.540757e+03,4.656170e+02
2.543649e+03,4.733759e+02
2.546542e+03,4.722937e+02
2.549435e+03,4.744158e+02
2.552328e+03,4.754594e+02
2.555220e+03,4.693080e+02
2.558113e+03,4.635672e+02
2.561006e+03,4.712363e+02
2.563898e+03,4.667661e+02
2.566791e+03,4.677580e+02
2.569684e+03,4.557811e+02
2.572576e+03,4.624658e+02
2.575469e+03,4.713385e+02
2.578362e+03,4.705978e+02
2.581255e+03,4.632082e+02
2.584147e+03,4.650253e+02
2.587040e+03,4.514037e+02
2.589933e+03,4.531324e+02
2.592825e+03,4.463933e+02
2.595718e+03,4.506375e+02
2.598611e+03,4.544609e+02
2.601503e+03,4.444205e+02
2.604396e+03,4.403612e+02
2.607289e+03,4.574426e+02
2.610182e+03,4.365458e+02
2.613074e+03,4.418663e+02
2.615967e+03,4.479494e+02
2.618860e+03,4.473627e+02
2.621752e+03,4.341418e+02
2.624645e+03,4.476367e+02
2.627538e+03,4.446515e+02
2.630430e+03,4.487269e+02
2.633323e+03,4.340571e+02
2.636216e+03,4.383784e+02
2.639109e+03,4.355234e+02
2.642001e+03,4.369482e+02
2.644894e+03,4.424303e+02
2.647787e+03,4.343157e+02
2.650679e+03,4.446825e+02
2.653572e+03,4.383929e+02
2.656465e+03,4.550644e+02
2.659357e+03,4.351932e+02
2.662250e+03,4.360904e+02
2.665143e+03,4.340468e+02
2.668036e+03,4.419930e+02
2.670928e+03,4.406846e+02
2.673821e+03,4.348503e+02
2.676714e+03,4.343078e+02
2.679606e+03,4.332030e+02
2.682499e+03,4.380559e+02
2.685392e+03,4.231069e+02
2.688284e+03,4.305159e+02
2.691177e+03,4.365646e+02
2.694070e+03,4.305748e+02
2.696963e+03,4.235096e+02
2.699855e+03,4.231295e+02
2.702748e+03,4.292995e+02
2.705641e+03,4.302266e+02
2.708533e+03,4.159862e+02
2.711426e+03,4.168741e+02
2.714319e+03,4.319397e+02
2.717211e+03,4.291711e+02
2.720104e+03,4.175684e+02
2.722997e+03,4.351970e+02
2.725890e+03,4.123176e+02
2.728782e+03,4.332766e+02
2.731675e+03,4.107721e+02
2.734568e+03,4.169103e+02
2.737460e+03,4.087843e+02
2.740353e+03,4.278936e+02
2.743246e+03,4.020827e+02
2.746138e+03,4.159462e+02
2.749031e+03,4.164519e+02
2.751924e+03,4.242156e+02
2.754817e+03,4.070455e+02
2.757709e+03,4.230624e+02
2.760602e+03,4.119277e+02
2.763495e+03,4.103094e+02
2.766387e+03,4.032234e+02
2.769280e+03,4.155486e+02
2.772173e+03,4.166019e+02
2.775065e+03,4.062595e+02
2.777958e+03,4.055726e+02
2.780851e+03,4.035692e+02
2.783744e+03,4.109370e+02
2.786636e+03,4.207185e+02
2.789529e+03,4.083985e+02
2.792422e+03,4.279347e+02
2.795314e+03,3.979814e+02
2.798207e+03,4.063573e+02
2.801100e+03,4.170404e+02
2.803992e+03,4.138109e+02
2.806885e+03,3.944230e+02
2.809778e+03,4.091744e+02
2.812671e+03,4.128233e+02
2.815563e+03,3.983187e+02
2.818456e+03,3.959899e+02
2.821349e+03,4.036955e+02
2.824241e+03,3.952450e+02
2.827134e+03,4.119718e+02
2.830027e+03,4.142122e+02
2.832919e+03,4.051194e+02
2.835812e+03,4.024061e+02
2.838705e+03,4.195245e+02
2.841598e+03,4.196122e+02
2.844490e+03,3.998610e+02
2.847383e+03,4.022696e+02
2.850276e+03,4.084282e+02
2.853168e+03,4.086725e+02
2.856061e+03,4.146493e+02
2.858954e+03,4.266512e+02
2.861846e+03,4.222841e+02
2.864739e+03,4.264292e+02
2.867632e+03,4.352072e+02
2.870525e+03,4.232052e+02
2.873417e+03,4.343825e+02
2.876310e+03,4.183600e+02
2.879203e+03,4.294606e+02
2.882095e+03,4.279874e+02
2.884988e+03,4.482596e+02
2.887881e+03,4.372568e+02
2.890773e+03,4.437867e+02
2.893666e+03,4.273749e+02
2.896559e+03,4.359525e+02
2.899452e+03,4.475254e+02
2.902344e+03,4.341588e+02
2.905237e+03,4.261061e+02
2.908130e+03,4.254281e+02
2.911022e+03,4.314333e+02
2.913915e+03,4.128002e+02
2.916808e+03,4.240954e+02
2.919700e+03,4.187896e+02
2.922593e+03,4.056338e+02
2.925486e+03,4.273131e+02
2.928379e+03,3.913230e+02
2.931271e+03,4.117433e+02
2.934164e+03,4.115956e+02
2.937057e+03,4.052581e+02
2.939949e+03,4.086485e+02
2.942842e+03,3.934731e+02
2.945735e+03,4.091049e+02
2.948627e+03,4.003492e+02
2.951520e+03,4.095208e+02
2.954413e+03,3.904476e+02
2.957306e+03,4.112296e+02
2.960198e+03,4.139958e+02
2.963091e+03,3.980257e+02
2.965984e+03,4.070363e+02
2.968876e+03,4.056753e+02
2.971769e+03,3.792030e+02
2.974662e+03,3.770975e+02
2.977554e+03,3.743980e+02
2.980447e+03,3.910215e+02
2.983340e+03,3.692772e+02
2.986233e+03,3.699654e+02
2.989125e+03,3.642886e+02
2.992018e+03,3.814048e+02
2.994911e+03,3.795741e+02
2.997803e+03,3.687974e+02
3.000696e+03,3.873680e+02
3.003589e+03,3.655147e+02
3.006481e+03,3.744699e+02
3.009374e+03,3.607632e+02
3.012267e+03,3.640538e+02
3.015160e+03,3.422962e+02
3.018052e+03,3.597475e+02
3.020945e+03,3.474625e+02
3.023838e+03,3.625503e+02
3.026730e+03,3.592860e+02
3.029623e+03,3.429710e+02
3.032516e+03,3.501530e+02
3.035408e+03,3.427080e+02
3.038301e+03,3.749014e+02
3.041194e+03,3.551735e+02
3.044087e+03,3.467237e+02
3.046979e+03,3.500583e+02
3.049872e+03,3.606024e+02
3.052765e+03,3.708828e+02
3.055657e+03,3.546688e+02
3.058550e+03,3.513984e+02
3.061443e+03,3.723163e+02
3.064335e+03,3.432050e+02
3.067228e+03,3.430535e+02
3.070121e+03,3.526619e+02
3.073014e+03,3.586131e+02
3.075906e+03,3.652323e+02
3.078799e+03,3.706148e+02
3.081692e+03,3.846636e+02
3.084584e+03,3.522109e+02
3.087477e+03,3.498087e+02
3.090370e+03,3.479012e+02
3.093262e+03,3.318288e+02
3.096155e+03,3.539822e+02
3.099048e+03,3.342508e+02
3.101941e+03,3.700706e+02
3.104833e+03,3.515191e+02
3.107726e+03,3.584909e+02
3.110619e+03,3.591400e+02
3.113511e+03,3.450332e+02
3.116404e+03,3.638042e+02
3.119297e+03,3.587984e+02
3.122189e+03,3.667059e+02
3.125082e+03,3.785820e+02
3.127975e+03,3.413973e+02
3.130868e+03,3.833233e+02
3.133760e+03,3.642870e+02
3.136653e+03,3.523179e+02
3.139546e+03,3.562418e+02
3.142438e+03,3.466220e+02
3.145331e+03,3.362547e+02
3.148224e+03,3.492642e+02
3.151116e+03,3.441161e+02
3.154009e+03,3.783903e+02
3.156902e+03,3.428236e+02
3.159795e+03,3.212643e+02
3.162687e+03,3.453681e+02
3.165580e+03,3.798890e+02
3.168473e+03,3.757151e+02
3.171365e+03,3.497502e+02
3.174258e+03,3.471133e+02
3.177151e+03,3.718543e+02
3.180043e+03,3.672495e+02
3.182936e+03,3.844930e+02
3.185829e+03,3.645928e+02
3.188722e+03,3.777227e+02
3.191614e+03,3.792431e+02
3.194507e+03,3.647577e+02
3.197400e+03,3.577570e+02
3.200292e+03,3.979277e+02
3.203185e+03,0.000000e+00
3.206078e+03,0.000000e+00
3.208970e+03,0.000000e+00
3.211863e+03,0.000000e+00
3.214756e+03,0.000000e+00
3.217649e+03,0.000000e+00
3.220541e+03,0.000000e+00
3.223434e+03,0.000000e+00
3.226327e+03,0.000000e+00
3.229219e+03,0.000000e+00
3.232112e+03,0.000000e+00
3.235005e+03,0.000000e+00
3.237897e+03,0.000000e+00
3.240790e+03,0.000000e+00
3.243683e+03,0.000000e+00
3.246576e+03,0.000000e+00
3.249468e+03,0.000000e+00
3.252361e+03,0.000000e+00
3.255254e+03,0.000000e+00
3.258146e+03,0.000000e+00
3.261039e+03,0.000000e+00
3.263932e+03,0.000000e+00
3.266824e+03,0.000000e+00
3.269717e+03,0.000000e+00
3.272610e+03,0.000000e+00
3.275503e+03,0.000000e+00
3.278395e+03,0.000000e+00
3.281288e+03,0.000000e+00
3.284181e+03,0.000000e+00
3.287073e+03,0.000000e+00
3.289966e+03,0.000000e+00
3.292859e+03,0.000000e+00
3.295751e+03,0.000000e+00
3.298644e+03,0.000000e+00
3.301537e+03,0.000000e+00
3.304430e+03,0.000000e+00
3.307322e+03,0.000000e+00
3.310215e+03,0.000000e+00
3.313108e+03,0.000000e+00
3.316000e+03,0.000000e+00
3.318893e+03,0.000000e+00
3.321786e+03,0.000000e+00
3.324678e+03,0.000000e+00
3.327571e+03,0.000000e+00
3.330464e+03,0.000000e+00
3.333357e+03,0.000000e+00
3.336249e+03,0.000000e+00
3.339142e+03,0.000000e+00
3.342035e+03,0.000000e+00
3.344927e+03,0.000000e+00
3.347820e+03,0.000000e+00
3.350713e+03,0.000000e+00
3.353605e+03,0.000000e+00
3.356498e+03,0.000000e+00
3.359391e+03,0.000000e+00
3.362284e+03,0.000000e+00
3.365176e+03,0.000000e+00
3.368069e+03,0.000000e+00
3.370962e+03,0.000000e+00
3.373854e+03,0.000000e+00
3.376747e+03,0.000000e+00
3.379640e+03,0.000000e+00
3.382532e+03,0.000000e+00
3.385425e+03,0.000000e+00
3.388318e+03,0.000000e+00
3.391211e+03,0.000000e+00
3.394103e+03,0.000000e+00
3.396996e+03,0.000000e+00
3.399889e+03,0.000000e+00
3.402781e+03,0.000000e+00
3.405674e+03,0.000000e+00
3.408567e+03,0.000000e+00
3.411459e+03,0.000000e+00
3.414352e+03,0.000000e+00
3.417245e+03,0.000000e+00
3.420138e+03,0.000000e+00
3.423030e+03,0.000000e+00
3.425923e+03,0.000000e+00
3.428816e+03,0.000000e+00
3.431708e+03,0.000000e+00
3.434601e+03,0.000000e+00
3.437494e+03,0.000000e+00
3.440386e+03,0.000000e+00
3.443279e+03,0.000000e+00
3.446172e+03,0.000000e+00
3.449065e+03,0.000000e+00
3.451957e+03,0.000000e+00
3.454850e+03,0.000000e+00
3.457743e+03,0.000000e+00
3.460635e+03,0.000000e+00
3.463528e+03,0.000000e+00
3.466421e+03,0.000000e+00
3.469313e+03,0.000000e+00
3.472206e+03,0.000000e+00
3.475099e+03,0.000000e+00
3.477992e+03,0.000000e+00
3.480884e+03,0.000000e+00
3.483777e+03,0.000000e+00
3.486670e+03,0.000000e+00
3.489563e+03,0.000000e+00
3.492455e+03,0.000000e+00
3.495348e+03,0.000000e+00
3.498240e+03,0.000000e+00
3.500169e+03,0.000000e+00