File: RAMAN_data/14032024_r2/clear frag1.CSV
9.931763e+01,0.000000e+00
1.022103e+02,0.000000e+00
1.051030e+02,0.000000e+00
1.079957e+02,0.000000e+00
1.108884e+02,0.000000e+00
1.137811e+02,0.000000e+00
1.166738e+02,0.000000e+00
1.195665e+02,0.000000e+00
1.224592e+02,0.000000e+00
1.253519e+02,0.000000e+00
1.282446e+02,0.000000e+00
1.311373e+02,0.000000e+00
1.340300e+02,0.000000e+00
1.369227e+02,0.000000e+00
1.398154e+02,0.000000e+00
1.427081e+02,0.000000e+00
1.456008e+02,0.000000e+00
1.484935e+02,0.000000e+00
1.513862e+02,0.000000e+00
1.542789e+02,0.000000e+00
1.571716e+02,0.000000e+00
1.600643e+02,0.000000e+00
1.629570e+02,0.000000e+00
1.658497e+02,0.000000e+00
1.687424e+02,0.000000e+00
1.716351e+02,0.000000e+00
1.745278e+02,0.000000e+00
1.774205e+02,0.000000e+00
1.803132e+02,0.000000e+00
1.832059e+02,0.000000e+00
1.860986e+02,0.000000e+00
1.889913e+02,0.000000e+00
1.918840e+02,0.000000e+00
1.947767e+02,0.000000e+00
1.976694e+02,0.000000e+00
2.005621e+02,1.215921e+03
2.034548e+02,1.213489e+03
2.063475e+02,1.219308e+03
2.092402e+02,1.216289e+03
2.121329e+02,1.216703e+03
2.150256e+02,1.222398e+03
2.179183e+02,1.216738e+03
2.208110e+02,1.223147e+03
2.237037e+02,1.223985e+03
2.265964e+02,1.221698e+03
2.294892e+02,1.219844e+03
2.323819e+02,1.219741e+03
2.352746e+02,1.220340e+03
2.381673e+02,1.229306e+03
2.410600e+02,1.220133e+03
2.439527e+02,1.222197e+03
2.468454e+02,1.236932e+03
2.497381e+02,1.233996e+03
2.526308e+02,1.234922e+03
2.555235e+02,1.223220e+03
2.584161e+02,1.229260e+03
2.613088e+02,1.232794e+03
2.642015e+02,1.233459e+03
2.670942e+02,1.233806e+03
2.699869e+02,1.236316e+03
2.728796e+02,1.232090e+03
2.757723e+02,1.241246e+03
2.786650e+02,1.244884e+03
2.815577e+02,1.235168e+03
2.844504e+02,1.236703e+03
2.873431e+02,1.240260e+03
2.902358e+02,1.234890e+03
2.931285e+02,1.231340e+03
2.960212e+02,1.238373e+03
2.989139e+02,1.232011e+03
3.018066e+02,1.232699e+03
3.046993e+02,1.237664e+03
3.075920e+02,1.239108e+03
3.104847e+02,1.234359e+03
3.133774e+02,1.240729e+03
3.162701e+02,1.234057e+03
3.191628e+02,1.234191e+03
3.220555e+02,1.223104e+03
3.249482e+02,1.241131e+03
3.278409e+02,1.240690e+03
3.307336e+02,1.235166e+03
3.336263e+02,1.235568e+03
3.365190e+02,1.220824e+03
3.394117e+02,1.237517e+03
3.423044e+02,1.245138e+03
3.451971e+02,1.241978e+03
3.480898e+02,1.242737e+03
3.509825e+02,1.229134e+03
3.538752e+02,1.236950e+03
3.567680e+02,1.231480e+03
3.596607e+02,1.237147e+03
3.625534e+02,1.237232e+03
3.654461e+02,1.232461e+03
3.683388e+02,1.234699e+03
3.712315e+02,1.231217e+03
3.741242e+02,1.233737e+03
3.770169e+02,1.234462e+03
3.799096e+02,1.228355e+03
3.828023e+02,1.229248e+03
3.856950e+02,1.236026e+03
3.885877e+02,1.230605e+03
3.914804e+02,1.240527e+03
3.943731e+02,1.230865e+03
3.972658e+02,1.236697e+03
4.001585e+02,1.229808e+03
4.030512e+02,1.231271e+03
4.059439e+02,1.229489e+03
4.088366e+02,1.234279e+03
4.117293e+02,1.232853e+03
4.146220e+02,1.224928e+03
4.175147e+02,1.225263e+03
4.204074e+02,1.219264e+03
4.233001e+02,1.222907e+03
4.261928e+02,1.223795e+03
4.290855e+02,1.220792e+03
4.319782e+02,1.222189e+03
4.348709e+02,1.229617e+03
4.377636e+02,1.217649e+03
4.406563e+02,1.213118e+03
4.435490e+02,1.218816e+03
4.464417e+02,1.214180e+03
4.493344e+02,1.216997e+03
4.522271e+02,1.217092e+03
4.551198e+02,1.218727e+03
4.580125e+02,1.211845e+03
4.609052e+02,1.208612e+03
4.637979e+02,1.205359e+03
4.666906e+02,1.219268e+03
4.695833e+02,1.209356e+03
4.724760e+02,1.212403e+03
4.753687e+02,1.205557e+03
4.782614e+02,1.205895e+03
4.811541e+02,1.204517e+03
4.840468e+02,1.193232e+03
4.869395e+02,1.207880e+03
4.898322e+02,1.217677e+03
4.927249e+02,1.198082e+03
4.956176e+02,1.205345e+03
4.985103e+02,1.207413e+03
5.014030e+02,1.203817e+03
5.042957e+02,1.206276e+03
5.071884e+02,1.194758e+03
5.100811e+02,1.192972e+03
5.129738e+02,1.194315e+03
5.158665e+02,1.205785e+03
5.187592e+02,1.206172e+03
5.216519e+02,1.186517e+03
5.245446e+02,1.189965e+03
5.274373e+02,1.199222e+03
5.303300e+02,1.195592e+03
5.332227e+02,1.189066e+03
5.361154e+02,1.184516e+03
5.390081e+02,1.185585e+03
5.419008e+02,1.185349e+03
5.447935e+02,1.183073e+03
5.476862e+02,1.184126e+03
5.505789e+02,1.177746e+03
5.534716e+02,1.177815e+03
5.563643e+02,1.179147e+03
5.592570e+02,1.180320e+03
5.621497e+02,1.171276e+03
5.650424e+02,1.173941e+03
5.679351e+02,1.172213e+03
5.708278e+02,1.172882e+03
5.737205e+02,1.175740e+03
5.766132e+02,1.168976e+03
5.795059e+02,1.163324e+03
5.823986e+02,1.176897e+03
5.852913e+02,1.166234e+03
5.881840e+02,1.163503e+03
5.910767e+02,1.162798e+03
5.939694e+02,1.162117e+03
5.968621e+02,1.165261e+03
5.997548e+02,1.157471e+03
6.026475e+02,1.167370e+03
6.055402e+02,1.171058e+03
6.084329e+02,1.173344e+03
6.113256e+02,1.161635e+03
6.142183e+02,1.156934e+03
6.171110e+02,1.147758e+03
6.200037e+02,1.159103e+03
6.228964e+02,1.156320e+03
6.257891e+02,1.154694e+03
6.286818e+02,1.151836e+03
6.315745e+02,1.147902e+03
6.344672e+02,1.140004e+03
6.373599e+02,1.141108e+03
6.402526e+02,1.145489e+03
6.431453e+02,1.139728e+03
6.460380e+02,1.141106e+03
6.489307e+02,1.139100e+03
6.518234e+02,1.133133e+03
6.547161e+02,1.136902e+03
6.576088e+02,1.128226e+03
6.605015e+02,1.128382e+03
6.633942e+02,1.137766e+03
6.662869e+02,1.128094e+03
6.691796e+02,1.130800e+03
6.720723e+02,1.132297e+03
6.749650e+02,1.127000e+03
6.778577e+02,1.115444e+03
6.807504e+02,1.115874e+03
6.836431e+02,1.113371e+03
6.865358e+02,1.118880e+03
6.894285e+02,1.119535e+03
6.923212e+02,1.118884e+03
6.952139e+02,1.107977e+03
6.981066e+02,1.110918e+03
7.009993e+02,1.117581e+03
7.038920e+02,1.111307e+03
7.067847e+02,1.109816e+03
7.096774e+02,1.106533e+03
7.125701e+02,1.109788e+03
7.154628e+02,1.101423e+03
7.183555e+02,1.109924e+03
7.212482e+02,1.104533e+03
7.241409e+02,1.098547e+03
7.270336e+02,1.102719e+03
7.299263e+02,1.092169e+03
7.328190e+02,1.097675e+03
7.357117e+02,1.098405e+03
7.386044e+02,1.089445e+03
7.414971e+02,1.097846e+03
7.443898e+02,1.091818e+03
7.472825e+02,1.087772e+03
7.501752e+02,1.086708e+03
7.530679e+02,1.087233e+03
7.559606e+02,1.078010e+03
7.588533e+02,1.079108e+03
7.617460e+02,1.087025e+03
7.646387e+02,1.077878e+03
7.675314e+02,1.083554e+03
7.704241e+02,1.074464e+03
7.733168e+02,1.071832e+03
7.762095e+02,1.063812e+03
7.791022e+02,1.054991e+03
7.819949e+02,1.068001e+03
7.848876e+02,1.060928e+03
7.877803e+02,1.064888e+03
7.906730e+02,1.068623e+03
7.935657e+02,1.074652e+03
7.964584e+02,1.059162e+03
7.993511e+02,1.052367e+03
8.022438e+02,1.062938e+03
8.051365e+02,1.067807e+03
8.080292e+02,1.059933e+03
8.109219e+02,1.046596e+03
8.138146e+02,1.046780e+03
8.167073e+02,1.052256e+03
8.196000e+02,1.046650e+03
8.224927e+02,1.051127e+03
8.253854e+02,1.049417e+03
8.282781e+02,1.039695e+03
8.311708e+02,1.039910e+03
8.340635e+02,1.045680e+03
8.369562e+02,1.043751e+03
8.398489e+02,1.040412e+03
8.427416e+02,1.050590e+03
8.456343e+02,1.036624e+03
8.485270e+02,1.035750e+03
8.514197e+02,1.023773e+03
8.543124e+02,1.025255e+03
8.572051e+02,1.023290e+03
8.600978e+02,1.025912e+03
8.629905e+02,1.032300e+03
8.658832e+02,1.030513e+03
8.687759e+02,1.033172e+03
8.716686e+02,1.020955e+03
8.745613e+02,1.018004e+03
8.774540e+02,1.021671e+03
8.803467e+02,1.031161e+03
8.832394e+02,1.024725e+03
8.861321e+02,1.015027e+03
8.890248e+02,1.024000e+03
8.919175e+02,1.003494e+03
8.948102e+02,1.013024e+03
8.977029e+02,9.982970e+02
9.005956e+02,1.002364e+03
9.034883e+02,1.000917e+03
9.063810e+02,9.968746e+02
9.092737e+02,9.973715e+02
9.121664e+02,1.004997e+03
9.150591e+02,9.962910e+02
9.179518e+02,1.005986e+03
9.208445e+02,9.940030e+02
9.237372e+02,9.866086e+02
9.266299e+02,9.851637e+02
9.295226e+02,9.995726e+02
9.324153e+02,9.916786e+02
9.353080e+02,9.858707e+02
9.382007e+02,9.746010e+02
9.410934e+02,9.863441e+02
9.439861e+02,9.813597e+02
9.468788e+02,9.842228e+02
9.497715e+02,9.870392e+02
9.526642e+02,9.756839e+02
9.555569e+02,9.747779e+02
9.584496e+02,9.733972e+02
9.613423e+02,9.652148e+02
9.642350e+02,9.752060e+02
9.671277e+02,9.719302e+02
9.700204e+02,9.656534e+02
9.729131e+02,9.741561e+02
9.758058e+02,9.715848e+02
9.786985e+02,9.658680e+02
9.815912e+02,9.661830e+02
9.844839e+02,9.529830e+02
9.873766e+02,9.616992e+02
9.902693e+02,9.641588e+02
9.931620e+02,9.604604e+02
9.960547e+02,9.535331e+02
9.989474e+02,9.526971e+02
1.001840e+03,9.536163e+02
1.004733e+03,9.463640e+02
1.007626e+03,9.534600e+02
1.010518e+03,9.472724e+02
1.013411e+03,9.356712e+02
1.016304e+03,9.394706e+02
1.019196e+03,9.424615e+02
1.022089e+03,9.345110e+02
1.024982e+03,9.440313e+02
1.027875e+03,9.356171e+02
1.030767e+03,9.415745e+02
1.033660e+03,9.261724e+02
1.036552e+03,9.354356e+02
1.039445e+03,9.315226e+02
1.042338e+03,9.314139e+02
1.045231e+03,9.321726e+02
1.048123e+03,9.406577e+02
1.051016e+03,9.188411e+02
1.053909e+03,9.309439e+02
1.056802e+03,9.278992e+02
1.059694e+03,9.375785e+02
1.062587e+03,9.380970e+02
1.065479e+03,9.322242e+02
1.068372e+03,9.208135e+02
1.071265e+03,9.244297e+02
1.074158e+03,9.251359e+02
1.077050e+03,9.295630e+02
1.079943e+03,9.321516e+02
1.082836e+03,9.247668e+02
1.085729e+03,9.186754e+02
1.088621e+03,9.222343e+02
1.091514e+03,9.206366e+02
1.094406e+03,9.195586e+02
1.097299e+03,9.164057e+02
1.100192e+03,9.198018e+02
1.103085e+03,9.059092e+02
1.105977e+03,9.103765e+02
1.108870e+03,9.189109e+02
1.111763e+03,9.101691e+02
1.114656e+03,9.087001e+02
1.117548e+03,9.051709e+02
1.120441e+03,9.152689e+02
1.123334e+03,9.221816e+02
1.126226e+03,9.169763e+02
1.129119e+03,9.093939e+02
1.132012e+03,9.140363e+02
1.134904e+03,9.046302e+02
1.137797e+03,9.014786e+02
1.140690e+03,9.061927e+02
1.143583e+03,9.041318e+02
1.146475e+03,9.010532e+02
1.149368e+03,9.018309e+02
1.152261e+03,8.998899e+02
1.155153e+03,8.957663e+02
1.158046e+03,8.940216e+02
1.160939e+03,8.957852e+02
1.163831e+03,8.965140e+02
1.166724e+03,8.970819e+02
1.169617e+03,8.896237e+02
1.172510e+03,8.897292e+02
1.175402e+03,8.884200e+02
1.178295e+03,8.888763e+02
1.181188e+03,8.858723e+02
1.184080e+03,8.930364e+02
1.186973e+03,8.868156e+02
1.189866e+03,8.975153e+02
1.192758e+03,8.909562e+02
1.195651e+03,8.874434e+02
1.198544e+03,8.867525e+02
1.201437e+03,8.711041e+02
1.204329e+03,8.778939e+02
1.207222e+03,8.889700e+02
1.210115e+03,8.773696e+02
1.213007e+03,8.790456e+02
1.215900e+03,8.780322e+02
1.218793e+03,8.793274e+02
1.221685e+03,8.815204e+02
1.224578e+03,8.694570e+02
1.227471e+03,8.765988e+02
1.230364e+03,8.770391e+02
1.233256e+03,8.732519e+02
1.236149e+03,8.782421e+02
1.239042e+03,8.744772e+02
1.241934e+03,8.738757e+02
1.244827e+03,8.743205e+02
1.247720e+03,8.774732e+02
1.250612e+03,8.693924e+02
1.253505e+03,8.676073e+02
1.256398e+03,8.666074e+02
1.259291e+03,8.621428e+02
1.262183e+03,8.652455e+02
1.265076e+03,8.666299e+02
1.267969e+03,8.670372e+02
1.270861e+03,8.692878e+02
1.273754e+03,8.731439e+02
1.276647e+03,8.630484e+02
1.279539e+03,8.660667e+02
1.282432e+03,8.568966e+02
1.285325e+03,8.649818e+02
1.288218e+03,8.759983e+02
1.291110e+03,8.745411e+02
1.294003e+03,8.862004e+02
1.296896e+03,8.729079e+02
1.299788e+03,8.649280e+02
1.302681e+03,8.599434e+02
1.305574e+03,8.593480e+02
1.308466e+03,8.563057e+02
1.311359e+03,8.608983e+02
1.314252e+03,8.589343e+02
1.317145e+03,8.550183e+02
1.320037e+03,8.624897e+02
1.322930e+03,8.647103e+02
1.325823e+03,8.569998e+02
1.328715e+03,8.535123e+02
1.331608e+03,8.560649e+02
1.334501e+03,8.632330e+02
1.337393e+03,8.570461e+02
1.340286e+03,8.607706e+02
1.343179e+03,8.507106e+02
1.346072e+03,8.490970e+02
1.348964e+03,8.553159e+02
1.351857e+03,8.571993e+02
1.354750e+03,8.481904e+02
1.357642e+03,8.448281e+02
1.360535e+03,8.482793e+02
1.363428e+03,8.447618e+02
1.366320e+03,8.512120e+02
1.369213e+03,8.402009e+02
1.372106e+03,8.451472e+02
1.374999e+03,8.405370e+02
1.377891e+03,8.424570e+02
1.380784e+03,8.378474e+02
1.383677e+03,8.400973e+02
1.386569e+03,8.374174e+02
1.389462e+03,8.306216e+02
1.392355e+03,8.283231e+02
1.395247e+03,8.329479e+02
1.398140e+03,8.352607e+02
1.401033e+03,8.280140e+02
1.403926e+03,8.278028e+02
1.406818e+03,8.261368e+02
1.409711e+03,8.265222e+02
1.412604e+03,8.337032e+02
1.415496e+03,8.325759e+02
1.418389e+03,8.349369e+02
1.421282e+03,8.331707e+02
1.424174e+03,8.346146e+02
1.427067e+03,8.317244e+02
1.429960e+03,8.292820e+02
1.432853e+03,8.329439e+02
1.435745e+03,8.256811e+02
1.438638e+03,8.424898e+02
1.441531e+03,8.399316e+02
1.444423e+03,8.307189e+02
1.447316e+03,8.225372e+02
1.450209e+03,8.195791e+02
1.453101e+03,8.226956e+02
1.455994e+03,8.232964e+02
1.458887e+03,8.243553e+02
1.461780e+03,8.188859e+02
1.464672e+03,8.149389e+02
1.467565e+03,8.054782e+02
1.470458e+03,8.146104e+02
1.473350e+03,8.050419e+02
1.476243e+03,8.206572e+02
1.479136e+03,8.040078e+02
1.482028e+03,8.092545e+02
1.484921e+03,8.036268e+02
1.487814e+03,8.000817e+02
1.490707e+03,8.055925e+02
1.493599e+03,8.024185e+02
1.496492e+03,8.037648e+02
1.499385e+03,7.933842e+02
1.502277e+03,7.998680e+02
1.505170e+03,8.026801e+02
1.508063e+03,7.967926e+02
1.510955e+03,7.947570e+02
1.513848e+03,7.955425e+02
1.516741e+03,7.897973e+02
1.519634e+03,7.886093e+02
1.522526e+03,7.968974e+02
1.525419e+03,8.020570e+02
1.528312e+03,7.918464e+02
1.531204e+03,7.872108e+02
1.534097e+03,7.845125e+02
1.536990e+03,7.849724e+02
1.539882e+03,7.903021e+02
1.542775e+03,7.848019e+02
1.545668e+03,7.831902e+02
1.548561e+03,7.989341e+02
1.551453e+03,7.788350e+02
1.554346e+03,7.823336e+02
1.557239e+03,7.810267e+02
1.560131e+03,7.820674e+02
1.563024e+03,7.770975e+02
1.565917e+03,7.872338e+02
1.568809e+03,7.876144e+02
1.571702e+03,7.769108e+02
1.574595e+03,7.724229e+02
1.577488e+03,7.754995e+02
1.580380e+03,7.813656e+02
1.583273e+03,7.755851e+02
1.586166e+03,7.755524e+02
1.589058e+03,7.707524e+02
1.591951e+03,7.726287e+02
1.594844e+03,7.693170e+02
1.597736e+03,7.622885e+02
1.600629e+03,7.723055e+02
1.603522e+03,7.700441e+02
1.606415e+03,7.682877e+02
1.609307e+03,7.613862e+02
1.612200e+03,7.641570e+02
1.615093e+03,7.718961e+02
1.617985e+03,7.628228e+02
1.620878e+03,7.670861e+02
1.623771e+03,7.578446e+02
1.626663e+03,7.474357e+02
1.629556e+03,7.509450e+02
1.632449e+03,7.523738e+02
1.635342e+03,7.517413e+02
1.638234e+03,7.505465e+02
1.641127e+03,7.495135e+02
1.644020e+03,7.405607e+02
1.646912e+03,7.416588e+02
1.649805e+03,7.377983e+02
1.652698e+03,7.421046e+02
1.655590e+03,7.456870e+02
1.658483e+03,7.308900e+02
1.661376e+03,7.323868e+02
1.664269e+03,7.254362e+02
1.667161e+03,7.379193e+02
1.670054e+03,7.406251e+02
1.672947e+03,7.269155e+02
1.675839e+03,7.269133e+02
1.678732e+03,7.273903e+02
1.681625e+03,7.288660e+02
1.684517e+03,7.199808e+02
1.687410e+03,7.281216e+02
1.690303e+03,7.270528e+02
1.693196e+03,7.171102e+02
1.696088e+03,7.162864e+02
1.698981e+03,7.182678e+02
1.701874e+03,7.157634e+02
1.704766e+03,7.225086e+02
1.707659e+03,7.167203e+02
1.710552e+03,7.123091e+02
1.713444e+03,7.177574e+02
1.716337e+03,7.112242e+02
1.719230e+03,7.013232e+02
1.722123e+03,7.018244e+02
1.725015e+03,7.071920e+02
1.727908e+03,6.996400e+02
1.730801e+03,6.973997e+02
1.733693e+03,7.035453e+02
1.736586e+03,6.997195e+02
1.739479e+03,6.992284e+02
1.742371e+03,7.017372e+02
1.745264e+03,6.943007e+02
1.748157e+03,7.004749e+02
1.751050e+03,6.956827e+02
1.753942e+03,7.015416e+02
1.756835e+03,6.873549e+02
1.759728e+03,6.859662e+02
1.762620e+03,6.761891e+02
1.765513e+03,6.898126e+02
1.768406e+03,6.945852e+02
1.771298e+03,6.793199e+02
1.774191e+03,6.800965e+02
1.777084e+03,6.792794e+02
1.779977e+03,6.806743e+02
1.782869e+03,6.799105e+02
1.785762e+03,6.747208e+02
1.788655e+03,6.733954e+02
1.791547e+03,6.717422e+02
1.794440e+03,6.749329e+02
1.797333e+03,6.658459e+02
1.800225e+03,6.696121e+02
1.803118e+03,6.628752e+02
1.806011e+03,6.685482e+02
1.808904e+03,6.606354e+02
1.811796e+03,6.635996e+02
1.814689e+03,6.566349e+02
1.817582e+03,6.596212e+02
1.820474e+03,6.590154e+02
1.823367e+03,6.554690e+02
1.826260e+03,6.388492e+02
1.829152e+03,6.541367e+02
1.832045e+03,6.493342e+02
1.834938e+03,6.630980e+02
1.837831e+03,6.419890e+02
1.840723e+03,6.475105e+02
1.843616e+03,6.508787e+02
1.846509e+03,6.472729e+02
1.849401e+03,6.434091e+02
1.852294e+03,6.347333e+02
1.855187e+03,6.327291e+02
1.858079e+03,6.456428e+02
1.860972e+03,6.365670e+02
1.863865e+03,6.295540e+02
1.866758e+03,6.206005e+02
1.869650e+03,6.315686e+02
1.872543e+03,6.282648e+02
1.875436e+03,6.382552e+02
1.878328e+03,6.303765e+02
1.881221e+03,6.238316e+02
1.884114e+03,6.232338e+02
1.887006e+03,6.254139e+02
1.889899e+03,6.138066e+02
1.892792e+03,6.144420e+02
1.895685e+03,6.134215e+02
1.898577e+03,6.210576e+02
1.901470e+03,6.094905e+02
1.904363e+03,6.197856e+02
1.907255e+03,6.125770e+02
1.910148e+03,6.175332e+02
1.913041e+03,6.072430e+02
1.915933e+03,6.126625e+02
1.918826e+03,6.031324e+02
1.921719e+03,6.055722e+02
1.924612e+03,5.950248e+02
1.927504e+03,6.000472e+02
1.930397e+03,6.024260e+02
1.933290e+03,5.915556e+02
1.936182e+03,5.973235e+02
1.939075e+03,6.039622e+02
1.941968e+03,5.982738e+02
1.944860e+03,5.914844e+02
1.947753e+03,5.945679e+02
1.950646e+03,5.842253e+02
1.953539e+03,5.945101e+02
1.956431e+03,5.861244e+02
1.959324e+03,5.848802e+02
1.962217e+03,5.960811e+02
1.965109e+03,5.818729e+02
1.968002e+03,5.848538e+02
1.970895e+03,5.707693e+02
1.973787e+03,5.792391e+02
1.976680e+03,5.846486e+02
1.979573e+03,5.763275e+02
1.982466e+03,5.833275e+02
1.985358e+03,5.835792e+02
1.988251e+03,5.758719e+02
1.991144e+03,5.701912e+02
1.994036e+03,5.697106e+02
1.996929e+03,5.546612e+02
1.999822e+03,5.652676e+02
2.002714e+03,5.735674e+02
2.005607e+03,5.631942e+02
2.008500e+03,5.570738e+02
2.011393e+03,5.609955e+02
2.014285e+03,5.593270e+02
2.017178e+03,5.662303e+02
2.020071e+03,5.468527e+02
2.022963e+03,5.537703e+02
2.025856e+03,5.486540e+02
2.028749e+03,5.429576e+02
2.031641e+03,5.552319e+02
2.034534e+03,5.398054e+02
2.037427e+03,5.478129e+02
2.040320e+03,5.437645e+02
2.043212e+03,5.533088e+02
2.046105e+03,5.470314e+02
2.048998e+03,5.375815e+02
2.051890e+03,5.372434e+02
2.054783e+03,5.310686e+02
2.057676e+03,5.438526e+02
2.060568e+03,5.321025e+02
2.063461e+03,5.334174e+02
2.066354e+03,5.329056e+02
2.069247e+03,5.275206e+02
2.072139e+03,5.324714e+02
2.075032e+03,5.294189e+02
2.077925e+03,5.282218e+02
2.080817e+03,5.236793e+02
2.083710e+03,5.211404e+02
2.086603e+03,5.310615e+02
2.089496e+03,5.212770e+02
2.092388e+03,5.075860e+02
2.095281e+03,5.127369e+02
2.098174e+03,5.133511e+02
2.101066e+03,5.118304e+02
2.103959e+03,5.137307e+02
2.106852e+03,5.174995e+02
2.109744e+03,5.114032e+02
2.112637e+03,5.027599e+02
2.115530e+03,5.089091e+02
2.118422e+03,4.985688e+02
2.121315e+03,5.013230e+02
2.124208e+03,4.984269e+02
2.127101e+03,5.048999e+02
2.129993e+03,5.039580e+02
2.132886e+03,4.985035e+02
2.135779e+03,4.924005e+02
2.138671e+03,4.986476e+02
2.141564e+03,4.843349e+02
2.144457e+03,4.953273e+02
2.147350e+03,4.907287e+02
2.150242e+03,4.909253e+02
2.153135e+03,4.885352e+02
2.156028e+03,4.895341e+02
2.158920e+03,4.858004e+02
2.161813e+03,4.851546e+02
2.164706e+03,4.846403e+02
2.167598e+03,4.841939e+02
2.170491e+03,4.840488e+02
2.173384e+03,4.784002e+02
2.176277e+03,4.860186e+02
2.179169e+03,4.786439e+02
2.182062e+03,4.852101e+02
2.184955e+03,4.736610e+02
2.187847e+03,4.749037e+02
2.190740e+03,4.695116e+02
2.193633e+03,4.680674e+02
2.196525e+03,4.666662e+02
2.199418e+03,4.692710e+02
2.202311e+03,4.714313e+02
2.205204e+03,4.730026e+02
2.208096e+03,4.660580e+02
2.210989e+03,4.628351e+02
2.213882e+03,4.666899e+02
2.216774e+03,4.702420e+02
2.219667e+03,4.571794e+02
2.222560e+03,4.617106e+02
2.225452e+03,4.577123e+02
2.228345e+03,4.595099e+02
2.231238e+03,4.578618e+02
2.234131e+03,4.505952e+02
2.237023e+03,4.614350e+02
2.239916e+03,4.459673e+02
2.242809e+03,4.526641e+02
2.245701e+03,4.374636e+02
2.248594e+03,4.550136e+02
2.251487e+03,4.484942e+02
2.254379e+03,4.448903e+02
2.257272e+03,4.399759e+02
2.260165e+03,4.323265e+02
2.263058e+03,4.406185e+02
2.265950e+03,4.453711e+02
2.268843e+03,4.364622e+02
2.271736e+03,4.355589e+02
2.274628e+03,4.345631e+02
2.277521e+03,4.342020e+02
2.280414e+03,4.307576e+02
2.283306e+03,4.352773e+02
2.286199e+03,4.353402e+02
2.289092e+03,4.196242e+02
2.291985e+03,4.186188e+02
2.294877e+03,4.321828e+02
2.297770e+03,4.261626e+02
2.300663e+03,4.219777e+02
2.303555e+03,4.158542e+02
2.306448e+03,4.184561e+02
2.309341e+03,4.219852e+02
2.312233e+03,4.237970e+02
2.315126e+03,4.161579e+02
2.318019e+03,4.097456e+02
2.320912e+03,4.171229e+02
2.323804e+03,4.103284e+02
2.326697e+03,4.262739e+02
2.329590e+03,4.301949e+02
2.332482e+03,4.120584e+02
2.335375e+03,4.050705e+02
2.338268e+03,4.146485e+02
2.341160e+03,4.195917e+02
2.344053e+03,4.085408e+02
2.346946e+03,4.095513e+02
2.349839e+03,4.076641e+02
2.352731e+03,4.045804e+02
2.355624e+03,4.029663e+02
2.358517e+03,4.110093e+02
2.361409e+03,4.057691e+02
2.364302e+03,4.112866e+02
2.367195e+03,3.876676e+02
2.370087e+03,4.090483e+02
2.372980e+03,4.031009e+02
2.375873e+03,4.033020e+02
2.378766e+03,3.958282e+02
2.381658e+03,3.912837e+02
2.384551e+03,3.914665e+02
2.387444e+03,4.054795e+02
2.390336e+03,3.924951e+02
2.393229e+03,3.948409e+02
2.396122e+03,3.873446e+02
2.399014e+03,3.820197e+02
2.401907e+03,3.946605e+02
2.404800e+03,3.841635e+02
2.407693e+03,3.817731e+02
2.410585e+03,3.886870e+02
2.413478e+03,3.766887e+02
2.416371e+03,3.892662e+02
2.419263e+03,3.912838e+02
2.422156e+03,3.791651e+02
2.425049e+03,3.790601e+02
2.427941e+03,3.902963e+02
2.430834e+03,3.751815e+02
2.433727e+03,3.828892e+02
2.436620e+03,3.798315e+02
2.439512e+03,3.726712e+02
2.442405e+03,3.704525e+02
2.445298e+03,3.823346e+02
2.448190e+03,3.651964e+02
2.451083e+03,3.805430e+02
2.453976e+03,3.709544e+02
2.456868e+03,3.699870e+02
2.459761e+03,3.617817e+02
2.462654e+03,3.675367e+02
2.465547e+03,3.695695e+02
2.468439e+03,3.626137e+02
2.471332e+03,3.737969e+02
2.474225e+03,3.701799e+02
2.477117e+03,3.587221e+02
2.480010e+03,3.720287e+02
2.482903e+03,3.639202e+02
2.485795e+03,3.678947e+02
2.488688e+03,3.678389e+02
2.491581e+03,3.594226e+02
2.494474e+03,3.574677e+02
2.497366e+03,3.598675e+02
2.500259e+03,3.598159e+02
2.503152e+03,3.514678e+02
2.506044e+03,3.580823e+02
2.508937e+03,3.575377e+02
2.511830e+03,3.538222e+02
2.514722e+03,3.631039e+02
2.517615e+03,3.526653e+02
2.520508e+03,3.537758e+02
2.523401e+03,3.529507e+02
2.526293e+03,3.569930e+02
2.529186e+03,3.443463e+02
2.532079e+03,3.550519e+02
2.534971e+03,3.478112e+02
2.537864e+03,3.495342e+02
2.540757e+03,3.470186e+02
2.543649e+03,3.445394e+02
2.546542e+03,3.541636e+02
2.549435e+03,3.481650e+02
2.552328e+03,3.484408e+02
2.555220e+03,3.630303e+02
2.558113e+03,3.586891e+02
2.561006e+03,3.480056e+02
2.563898e+03,3.579977e+02
2.566791e+03,3.481593e+02
2.569684e+03,3.399581e+02
2.572576e+03,3.455880e+02
2.575469e+03,3.471936e+02
2.578362e+03,3.402788e+02
2.581255e+03,3.390512e+02
2.584147e+03,3.382734e+02
2.587040e+03,3.356966e+02
2.589933e+03,3.357862e+02
2.592825e+03,3.347386e+02
2.595718e+03,3.386234e+02
2.598611e+03,3.332598e+02
2.601503e+03,3.355075e+02
2.604396e+03,3.341919e+02
2.607289e+03,3.328451e+02
2.610182e+03,3.335361e+02
2.613074e+03,3.237567e+02
2.615967e+03,3.267505e+02
2.618860e+03,3.314769e+02
2.621752e+03,3.295254e+02
2.624645e+03,3.217323e+02
2.627538e+03,3.282414e+02
2.630430e+03,3.342005e+02
2.633323e+03,3.260826e+02
2.636216e+03,3.210032e+02
2.639109e+03,3.302234e+02
2.642001e+03,3.120825e+02
2.644894e+03,3.197888e+02
2.647787e+03,3.187540e+02
2.650679e+03,3.314573e+02
2.653572e+03,3.240248e+02
2.656465e+03,3.252923e+02
2.659357e+03,3.258109e+02
2.662250e+03,3.169511e+02
2.665143e+03,3.237520e+02
2.668036e+03,3.124798e+02
2.670928e+03,3.299237e+02
2.673821e+03,3.200566e+02
2.676714e+03,3.223959e+02
2.679606e+03,3.139375e+02
2.682499e+03,3.202735e+02
2.685392e+03,3.210934e+02
2.688284e+03,3.175832e+02
2.691177e+03,3.127977e+02
2.694070e+03,3.148339e+02
2.696963e+03,3.113429e+02
2.699855e+03,3.143927e+02
2.702748e+03,3.160253e+02
2.705641e+03,3.086234e+02
2.708533e+03,3.076192e+02
2.711426e+03,3.090138e+02
2.714319e+03,3.085646e+02
2.717211e+03,3.222385e+02
2.720104e+03,3.067551e+02
2.722997e+03,3.078919e+02
2.725890e+03,3.010443e+02
2.728782e+03,3.156961e+02
2.731675e+03,3.005576e+02
2.734568e+03,3.156882e+02
2.737460e+03,2.940579e+02
2.740353e+03,3.034883e+02
2.743246e+03,2.951886e+02
2.746138e+03,3.076035e+02
2.749031e+03,2.912734e+02
2.751924e+03,3.034707e+02
2.754817e+03,2.975785e+02
2.757709e+03,3.031447e+02
2.760602e+03,3.049802e+02
2.763495e+03,2.957251e+02
2.766387e+03,2.985714e+02
2.769280e+03,2.979652e+02
2.772173e+03,3.077970e+02
2.775065e+03,2.904451e+02
2.777958e+03,3.028217e+02
2.780851e+03,2.977336e+02
2.783744e+03,2.924047e+02
2.786636e+03,2.846490e+02
2.789529e+03,2.968062e+02
2.792422e+03,3.034508e+02
2.795314e+03,2.892775e+02
2.798207e+03,2.957766e+02
2.801100e+03,2.844712e+02
2.803992e+03,2.874683e+02
2.806885e+03,2.879594e+02
2.809778e+03,2.818367e+02
2.812671e+03,2.993588e+02
2.815563e+03,2.796344e+02
2.818456e+03,2.746953e+02
2.821349e+03,2.837780e+02
2.824241e+03,2.834442e+02
2.827134e+03,2.899224e+02
2.830027e+03,2.884011e+02
2.832919e+03,2.876958e+02
2.835812e+03,2.921183e+02
2.838705e+03,3.114442e+02
2.841598e+03,3.166522e+02
2.844490e+03,3.224205e+02
2.847383e+03,3.389426e+02
2.850276e+03,3.198283e+02
2.853168e+03,3.217094e+02
2.856061e+03,3.365236e+02
2.858954e+03,3.117560e+02
2.861846e+03,2.997027e+02
2.864739e+03,3.013449e+02
2.867632e+03,2.991176e+02
2.870525e+03,2.960324e+02
2.873417e+03,3.074208e+02
2.876310e+03,3.062323e+02
2.879203e+03,3.318023e+02
2.882095e+03,3.309240e+02
2.884988e+03,3.258841e+02
2.887881e+03,3.121044e+02
2.890773e+03,2.947896e+02
2.893666e+03,3.036365e+02
2.896559e+03,2.923568e+02
2.899452e+03,3.126515e+02
2.902344e+03,2.930070e+02
2.905237e+03,2.886790e+02
2.908130e+03,2.901038e+02
2.911022e+03,3.004278e+02
2.913915e+03,2.751669e+02
2.916808e+03,2.972570e+02
2.919700e+03,2.973013e+02
2.922593e+03,2.830390e+02
2.925486e+03,3.036540e+02
2.928379e+03,2.774346e+02
2.931271e+03,2.915535e+02
2.934164e+03,2.746432e+02
2.937057e+03,2.789768e+02
2.939949e+03,2.829130e+02
2.942842e+03,2.769022e+02
2.945735e+03,2.781180e+02
2.948627e+03,2.657528e+02
2.951520e+03,2.786479e+02
2.954413e+03,2.602028e+02
2.957306e+03,2.866926e+02
2.960198e+03,2.895475e+02
2.963091e+03,2.668766e+02
2.965984e+03,2.823533e+02
2.968876e+03,2.795753e+02
2.971769e+03,2.686011e+02
2.974662e+03,2.649206e+02
2.977554e+03,2.640612e+02
2.980447e+03,2.752362e+02
2.983340e+03,2.524019e+02
2.986233e+03,2.517311e+02
2.989125e+03,2.499486e+02
2.992018e+03,2.592063e+02
2.994911e+03,2.638644e+02
2.997803e+03,2.677777e+02
3.000696e+03,2.673498e+02
3.003589e+03,2.601572e+02
3.006481e+03,2.587017e+02
3.009374e+03,2.694612e+02
3.012267e+03,2.741664e+02
3.015160e+03,2.531128e+02
3.018052e+03,2.603354e+02
3.020945e+03,2.458183e+02
3.023838e+03,2.550986e+02
3.026730e+03,2.579240e+02
3.029623e+03,2.534779e+02
3.032516e+03,2.586319e+02
3.035408e+03,2.457480e+02
3.038301e+03,2.603392e+02
3.041194e+03,2.540990e+02
3.044087e+03,2.487710e+02
3.046979e+03,2.581740e+02
3.049872e+03,2.570796e+02
3.052765e+03,2.639181e+02
3.055657e+03,2.530658e+02
3.058550e+03,2.647977e+02
3.061443e+03,2.675828e+02
3.064335e+03,2.318904e+02
3.067228e+03,2.624676e+02
3.070121e+03,2.615706e+02
3.073014e+03,2.540773e+02
3.075906e+03,2.476941e+02
3.078799e+03,2.485603e+02
3.081692e+03,2.635062e+02
3.084584e+03,2.421855e+02
3.087477e+03,2.401533e+02
3.090370e+03,2.523281e+02
3.093262e+03,2.678777e+02
3.096155e+03,2.608299e+02
3.099048e+03,2.481580e+02
3.101941e+03,2.631499e+02
3.104833e+03,2.265124e+02
3.107726e+03,2.478174e+02
3.110619e+03,2.698258e+02
3.113511e+03,2.345988e+02
3.116404e+03,2.567320e+02
3.119297e+03,2.608310e+02
3.122189e+03,2.448941e+02
3.125082e+03,2.754251e+02
3.127975e+03,2.482701e+02
3.130868e+03,2.576654e+02
3.133760e+03,2.636309e+02
3.136653e+03,2.272468e+02
3.139546e+03,2.569469e+02
3.142438e+03,2.523343e+02
3.145331e+03,2.240856e+02
3.148224e+03,2.628055e+02
3.151116e+03,2.446994e+02
3.154009e+03,2.738929e+02
3.156902e+03,2.667939e+02
3.159795e+03,2.222711e+02
3.162687e+03,2.616017e+02
3.165580e+03,2.484527e+02
3.168473e+03,2.713226e+02
3.171365e+03,2.716562e+02
3.174258e+03,2.291393e+02
3.177151e+03,2.666978e+02
3.180043e+03,2.565660e+02
3.182936e+03,2.513655e+02
3.185829e+03,2.427941e+02
3.188722e+03,2.221747e+02
3.191614e+03,2.592762e+02
3.194507e+03,2.489879e+02
3.197400e+03,2.227739e+02
3.200292e+03,2.743605e+02
3.203185e+03,0.000000e+00
3.206078e+03,0.000000e+00
3.208970e+03,0.000000e+00
3.211863e+03,0.000000e+00
3.214756e+03,0.000000e+00
3.217649e+03,0.000000e+00
3.220541e+03,0.000000e+00
3.223434e+03,0.000000e+00
3.226327e+03,0.000000e+00
3.229219e+03,0.000000e+00
3.232112e+03,0.000000e+00
3.235005e+03,0.000000e+00
3.237897e+03,0.000000e+00
3.240790e+03,0.000000e+00
3.243683e+03,0.000000e+00
3.246576e+03,0.000000e+00
3.249468e+03,0.000000e+00
3.252361e+03,0.000000e+00
3.255254e+03,0.000000e+00
3.258146e+03,0.000000e+00
3.261039e+03,0.000000e+00
3.263932e+03,0.000000e+00
3.266824e+03,0.000000e+00
3.269717e+03,0.000000e+00
3.272610e+03,0.000000e+00
3.275503e+03,0.000000e+00
3.278395e+03,0.000000e+00
3.281288e+03,0.000000e+00
3.284181e+03,0.000000e+00
3.287073e+03,0.000000e+00
3.289966e+03,0.000000e+00
3.292859e+03,0.000000e+00
3.295751e+03,0.000000e+00
3.298644e+03,0.000000e+00
3.301537e+03,0.000000e+00
3.304430e+03,0.000000e+00
3.307322e+03,0.000000e+00
3.310215e+03,0.000000e+00
3.313108e+03,0.000000e+00
3.316000e+03,0.000000e+00
3.318893e+03,0.000000e+00
3.321786e+03,0.000000e+00
3.324678e+03,0.000000e+00
3.327571e+03,0.000000e+00
3.330464e+03,0.000000e+00
3.333357e+03,0.000000e+00
3.336249e+03,0.000000e+00
3.339142e+03,0.000000e+00
3.342035e+03,0.000000e+00
3.344927e+03,0.000000e+00
3.347820e+03,0.000000e+00
3.350713e+03,0.000000e+00
3.353605e+03,0.000000e+00
3.356498e+03,0.000000e+00
3.359391e+03,0.000000e+00
3.362284e+03,0.000000e+00
3.365176e+03,0.000000e+00
3.368069e+03,0.000000e+00
3.370962e+03,0.000000e+00
3.373854e+03,0.000000e+00
3.376747e+03,0.000000e+00
3.379640e+03,0.000000e+00
3.382532e+03,0.000000e+00
3.385425e+03,0.000000e+00
3.388318e+03,0.000000e+00
3.391211e+03,0.000000e+00
3.394103e+03,0.000000e+00
3.396996e+03,0.000000e+00
3.399889e+03,0.000000e+00
3.402781e+03,0.000000e+00
3.405674e+03,0.000000e+00
3.408567e+03,0.000000e+00
3.411459e+03,0.000000e+00
3.414352e+03,0.000000e+00
3.417245e+03,0.000000e+00
3.420138e+03,0.000000e+00
3.423030e+03,0.000000e+00
3.425923e+03,0.000000e+00
3.428816e+03,0.000000e+00
3.431708e+03,0.000000e+00
3.434601e+03,0.000000e+00
3.437494e+03,0.000000e+00
3.440386e+03,0.000000e+00
3.443279e+03,0.000000e+00
3.446172e+03,0.000000e+00
3.449065e+03,0.000000e+00
3.451957e+03,0.000000e+00
3.454850e+03,0.000000e+00
3.457743e+03,0.000000e+00
3.460635e+03,0.000000e+00
3.463528e+03,0.000000e+00
3.466421e+03,0.000000e+00
3.469313e+03,0.000000e+00
3.472206e+03,0.000000e+00
3.475099e+03,0.000000e+00
3.477992e+03,0.000000e+00
3.480884e+03,0.000000e+00
3.483777e+03,0.000000e+00
3.486670e+03,0.000000e+00
3.489563e+03,0.000000e+00
3.492455e+03,0.000000e+00
3.495348e+03,0.000000e+00
3.498240e+03,0.000000e+00
3.500169e+03,0.000000e+00