File: RAMAN_data/13042023_r2/black fibre3.CSV
9.931763e+01,0.000000e+00
1.022103e+02,0.000000e+00
1.051030e+02,0.000000e+00
1.079957e+02,0.000000e+00
1.108884e+02,0.000000e+00
1.137811e+02,0.000000e+00
1.166738e+02,0.000000e+00
1.195665e+02,0.000000e+00
1.224592e+02,0.000000e+00
1.253519e+02,0.000000e+00
1.282446e+02,0.000000e+00
1.311373e+02,0.000000e+00
1.340300e+02,0.000000e+00
1.369227e+02,0.000000e+00
1.398154e+02,0.000000e+00
1.427081e+02,0.000000e+00
1.456008e+02,0.000000e+00
1.484935e+02,0.000000e+00
1.513862e+02,0.000000e+00
1.542789e+02,0.000000e+00
1.571716e+02,0.000000e+00
1.600643e+02,0.000000e+00
1.629570e+02,0.000000e+00
1.658497e+02,0.000000e+00
1.687424e+02,0.000000e+00
1.716351e+02,0.000000e+00
1.745278e+02,0.000000e+00
1.774205e+02,0.000000e+00
1.803132e+02,0.000000e+00
1.832059e+02,0.000000e+00
1.860986e+02,0.000000e+00
1.889913e+02,0.000000e+00
1.918840e+02,0.000000e+00
1.947767e+02,0.000000e+00
1.976694e+02,0.000000e+00
2.005621e+02,1.047899e+04
2.034548e+02,1.051899e+04
2.063475e+02,1.054891e+04
2.092402e+02,1.054938e+04
2.121329e+02,1.055037e+04
2.150256e+02,1.057905e+04
2.179183e+02,1.060927e+04
2.208110e+02,1.066068e+04
2.237037e+02,1.067604e+04
2.265964e+02,1.068651e+04
2.294892e+02,1.071479e+04
2.323819e+02,1.076347e+04
2.352746e+02,1.080069e+04
2.381673e+02,1.083713e+04
2.410600e+02,1.083247e+04
2.439527e+02,1.084990e+04
2.468454e+02,1.088676e+04
2.497381e+02,1.092278e+04
2.526308e+02,1.095922e+04
2.555235e+02,1.097428e+04
2.584161e+02,1.097618e+04
2.613088e+02,1.101875e+04
2.642015e+02,1.107090e+04
2.670942e+02,1.109680e+04
2.699869e+02,1.113129e+04
2.728796e+02,1.114345e+04
2.757723e+02,1.118588e+04
2.786650e+02,1.122837e+04
2.815577e+02,1.125757e+04
2.844504e+02,1.128443e+04
2.873431e+02,1.128894e+04
2.902358e+02,1.131662e+04
2.931285e+02,1.134527e+04
2.960212e+02,1.138987e+04
2.989139e+02,1.141438e+04
3.018066e+02,1.143403e+04
3.046993e+02,1.146588e+04
3.075920e+02,1.148845e+04
3.104847e+02,1.152735e+04
3.133774e+02,1.157835e+04
3.162701e+02,1.159458e+04
3.191628e+02,1.160775e+04
3.220555e+02,1.163998e+04
3.249482e+02,1.168473e+04
3.278409e+02,1.172350e+04
3.307336e+02,1.175910e+04
3.336263e+02,1.178434e+04
3.365190e+02,1.179563e+04
3.394117e+02,1.184454e+04
3.423044e+02,1.188976e+04
3.451971e+02,1.195046e+04
3.480898e+02,1.197444e+04
3.509825e+02,1.198815e+04
3.538752e+02,1.203829e+04
3.567680e+02,1.208699e+04
3.596607e+02,1.212620e+04
3.625534e+02,1.216527e+04
3.654461e+02,1.215099e+04
3.683388e+02,1.217619e+04
3.712315e+02,1.223918e+04
3.741242e+02,1.227458e+04
3.770169e+02,1.231110e+04
3.799096e+02,1.235298e+04
3.828023e+02,1.236815e+04
3.856950e+02,1.241311e+04
3.885877e+02,1.244648e+04
3.914804e+02,1.248686e+04
3.943731e+02,1.251804e+04
3.972658e+02,1.248767e+04
4.001585e+02,1.252337e+04
4.030512e+02,1.256707e+04
4.059439e+02,1.258595e+04
4.088366e+02,1.260804e+04
4.117293e+02,1.261926e+04
4.146220e+02,1.264267e+04
4.175147e+02,1.264873e+04
4.204074e+02,1.265821e+04
4.233001e+02,1.267412e+04
4.261928e+02,1.269447e+04
4.290855e+02,1.271689e+04
4.319782e+02,1.275223e+04
4.348709e+02,1.276610e+04
4.377636e+02,1.280047e+04
4.406563e+02,1.281280e+04
4.435490e+02,1.278483e+04
4.464417e+02,1.281223e+04
4.493344e+02,1.281686e+04
4.522271e+02,1.281678e+04
4.551198e+02,1.283070e+04
4.580125e+02,1.281630e+04
4.609052e+02,1.282540e+04
4.637979e+02,1.282503e+04
4.666906e+02,1.282210e+04
4.695833e+02,1.285453e+04
4.724760e+02,1.284270e+04
4.753687e+02,1.283160e+04
4.782614e+02,1.284127e+04
4.811541e+02,1.286892e+04
4.840468e+02,1.289725e+04
4.869395e+02,1.288243e+04
4.898322e+02,1.288664e+04
4.927249e+02,1.288350e+04
4.956176e+02,1.288919e+04
4.985103e+02,1.290360e+04
5.014030e+02,1.287345e+04
5.042957e+02,1.288416e+04
5.071884e+02,1.285958e+04
5.100811e+02,1.287426e+04
5.129738e+02,1.284224e+04
5.158665e+02,1.287573e+04
5.187592e+02,1.286716e+04
5.216519e+02,1.284195e+04
5.245446e+02,1.283278e+04
5.274373e+02,1.286247e+04
5.303300e+02,1.287005e+04
5.332227e+02,1.284301e+04
5.361154e+02,1.281213e+04
5.390081e+02,1.281964e+04
5.419008e+02,1.282452e+04
5.447935e+02,1.279092e+04
5.476862e+02,1.277840e+04
5.505789e+02,1.277585e+04
5.534716e+02,1.271278e+04
5.563643e+02,1.271286e+04
5.592570e+02,1.277059e+04
5.621497e+02,1.269223e+04
5.650424e+02,1.269234e+04
5.679351e+02,1.262888e+04
5.708278e+02,1.261018e+04
5.737205e+02,1.262416e+04
5.766132e+02,1.264250e+04
5.795059e+02,1.263938e+04
5.823986e+02,1.258477e+04
5.852913e+02,1.255879e+04
5.881840e+02,1.252108e+04
5.910767e+02,1.251840e+04
5.939694e+02,1.253136e+04
5.968621e+02,1.251154e+04
5.997548e+02,1.247387e+04
6.026475e+02,1.246942e+04
6.055402e+02,1.249975e+04
6.084329e+02,1.246660e+04
6.113256e+02,1.239878e+04
6.142183e+02,1.236073e+04
6.171110e+02,1.237835e+04
6.200037e+02,1.235690e+04
6.228964e+02,1.235537e+04
6.257891e+02,1.235281e+04
6.286818e+02,1.233478e+04
6.315745e+02,1.229399e+04
6.344672e+02,1.230278e+04
6.373599e+02,1.226742e+04
6.402526e+02,1.225370e+04
6.431453e+02,1.224061e+04
6.460380e+02,1.221335e+04
6.489307e+02,1.222598e+04
6.518234e+02,1.221012e+04
6.547161e+02,1.220158e+04
6.576088e+02,1.213227e+04
6.605015e+02,1.209609e+04
6.633942e+02,1.211801e+04
6.662869e+02,1.210934e+04
6.691796e+02,1.210690e+04
6.720723e+02,1.207142e+04
6.749650e+02,1.201754e+04
6.778577e+02,1.203672e+04
6.807504e+02,1.203651e+04
6.836431e+02,1.202228e+04
6.865358e+02,1.199214e+04
6.894285e+02,1.195438e+04
6.923212e+02,1.194977e+04
6.952139e+02,1.194019e+04
6.981066e+02,1.190981e+04
7.009993e+02,1.194964e+04
7.038920e+02,1.190373e+04
7.067847e+02,1.188894e+04
7.096774e+02,1.185646e+04
7.125701e+02,1.183935e+04
7.154628e+02,1.186756e+04
7.183555e+02,1.184772e+04
7.212482e+02,1.177938e+04
7.241409e+02,1.176778e+04
7.270336e+02,1.177225e+04
7.299263e+02,1.175786e+04
7.328190e+02,1.176072e+04
7.357117e+02,1.173372e+04
7.386044e+02,1.172073e+04
7.414971e+02,1.170487e+04
7.443898e+02,1.172550e+04
7.472825e+02,1.169149e+04
7.501752e+02,1.166250e+04
7.530679e+02,1.161523e+04
7.559606e+02,1.158854e+04
7.588533e+02,1.166103e+04
7.617460e+02,1.165147e+04
7.646387e+02,1.158080e+04
7.675314e+02,1.154219e+04
7.704241e+02,1.153131e+04
7.733168e+02,1.152598e+04
7.762095e+02,1.154321e+04
7.791022e+02,1.151245e+04
7.819949e+02,1.147528e+04
7.848876e+02,1.146978e+04
7.877803e+02,1.146103e+04
7.906730e+02,1.144125e+04
7.935657e+02,1.144354e+04
7.964584e+02,1.137772e+04
7.993511e+02,1.135946e+04
8.022438e+02,1.134726e+04
8.051365e+02,1.136486e+04
8.080292e+02,1.135569e+04
8.109219e+02,1.134419e+04
8.138146e+02,1.131524e+04
8.167073e+02,1.133691e+04
8.196000e+02,1.130946e+04
8.224927e+02,1.129379e+04
8.253854e+02,1.127811e+04
8.282781e+02,1.124181e+04
8.311708e+02,1.125504e+04
8.340635e+02,1.126207e+04
8.369562e+02,1.126031e+04
8.398489e+02,1.121771e+04
8.427416e+02,1.120311e+04
8.456343e+02,1.116580e+04
8.485270e+02,1.113276e+04
8.514197e+02,1.111158e+04
8.543124e+02,1.115377e+04
8.572051e+02,1.109494e+04
8.600978e+02,1.103456e+04
8.629905e+02,1.104262e+04
8.658832e+02,1.107378e+04
8.687759e+02,1.104232e+04
8.716686e+02,1.105665e+04
8.745613e+02,1.098426e+04
8.774540e+02,1.098425e+04
8.803467e+02,1.099285e+04
8.832394e+02,1.097975e+04
8.861321e+02,1.096663e+04
8.890248e+02,1.093344e+04
8.919175e+02,1.094135e+04
8.948102e+02,1.092285e+04
8.977029e+02,1.086159e+04
9.005956e+02,1.090176e+04
9.034883e+02,1.087711e+04
9.063810e+02,1.082625e+04
9.092737e+02,1.081820e+04
9.121664e+02,1.082571e+04
9.150591e+02,1.078420e+04
9.179518e+02,1.080089e+04
9.208445e+02,1.077891e+04
9.237372e+02,1.072295e+04
9.266299e+02,1.073908e+04
9.295226e+02,1.075068e+04
9.324153e+02,1.071831e+04
9.353080e+02,1.071988e+04
9.382007e+02,1.064754e+04
9.410934e+02,1.064077e+04
9.439861e+02,1.063949e+04
9.468788e+02,1.065011e+04
9.497715e+02,1.063322e+04
9.526642e+02,1.060634e+04
9.555569e+02,1.059025e+04
9.584496e+02,1.055725e+04
9.613423e+02,1.058146e+04
9.642350e+02,1.055309e+04
9.671277e+02,1.053992e+04
9.700204e+02,1.048215e+04
9.729131e+02,1.042650e+04
9.758058e+02,1.047508e+04
9.786985e+02,1.051012e+04
9.815912e+02,1.047788e+04
9.844839e+02,1.041864e+04
9.873766e+02,1.039525e+04
9.902693e+02,1.040537e+04
9.931620e+02,1.043070e+04
9.960547e+02,1.041604e+04
9.989474e+02,1.036009e+04
1.001840e+03,1.033351e+04
1.004733e+03,1.033627e+04
1.007626e+03,1.036769e+04
1.010518e+03,1.035274e+04
1.013411e+03,1.031739e+04
1.016304e+03,1.027591e+04
1.019196e+03,1.026588e+04
1.022089e+03,1.026692e+04
1.024982e+03,1.024809e+04
1.027875e+03,1.025509e+04
1.030767e+03,1.017941e+04
1.033660e+03,1.020879e+04
1.036552e+03,1.020671e+04
1.039445e+03,1.021685e+04
1.042338e+03,1.018194e+04
1.045231e+03,1.015666e+04
1.048123e+03,1.015929e+04
1.051016e+03,1.014294e+04
1.053909e+03,1.014055e+04
1.056802e+03,1.012751e+04
1.059694e+03,1.007610e+04
1.062587e+03,1.005702e+04
1.065479e+03,1.007941e+04
1.068372e+03,1.007175e+04
1.071265e+03,1.006961e+04
1.074158e+03,1.007392e+04
1.077050e+03,1.000671e+04
1.079943e+03,9.998187e+03
1.082836e+03,1.002424e+04
1.085729e+03,1.004131e+04
1.088621e+03,1.001502e+04
1.091514e+03,1.000107e+04
1.094406e+03,9.962894e+03
1.097299e+03,9.954767e+03
1.100192e+03,9.963753e+03
1.103085e+03,9.930464e+03
1.105977e+03,9.917397e+03
1.108870e+03,9.886082e+03
1.111763e+03,9.876372e+03
1.114656e+03,9.876589e+03
1.117548e+03,9.879478e+03
1.120441e+03,9.898730e+03
1.123334e+03,9.854941e+03
1.126226e+03,9.830371e+03
1.129119e+03,9.819702e+03
1.132012e+03,9.869599e+03
1.134904e+03,9.835001e+03
1.137797e+03,9.792558e+03
1.140690e+03,9.779318e+03
1.143583e+03,9.817777e+03
1.146475e+03,9.774411e+03
1.149368e+03,9.753277e+03
1.152261e+03,9.774251e+03
1.155153e+03,9.741813e+03
1.158046e+03,9.705916e+03
1.160939e+03,9.706151e+03
1.163831e+03,9.698578e+03
1.166724e+03,9.654843e+03
1.169617e+03,9.631020e+03
1.172510e+03,9.611415e+03
1.175402e+03,9.585418e+03
1.178295e+03,9.636625e+03
1.181188e+03,9.640203e+03
1.184080e+03,9.590050e+03
1.186973e+03,9.587786e+03
1.189866e+03,9.573024e+03
1.192758e+03,9.581562e+03
1.195651e+03,9.545795e+03
1.198544e+03,9.562965e+03
1.201437e+03,9.502847e+03
1.204329e+03,9.485177e+03
1.207222e+03,9.488697e+03
1.210115e+03,9.516737e+03
1.213007e+03,9.509552e+03
1.215900e+03,9.461595e+03
1.218793e+03,9.444339e+03
1.221685e+03,9.461342e+03
1.224578e+03,9.420771e+03
1.227471e+03,9.417610e+03
1.230364e+03,9.406372e+03
1.233256e+03,9.347106e+03
1.236149e+03,9.353955e+03
1.239042e+03,9.331319e+03
1.241934e+03,9.374894e+03
1.244827e+03,9.366134e+03
1.247720e+03,9.309485e+03
1.250612e+03,9.306028e+03
1.253505e+03,9.283562e+03
1.256398e+03,9.281007e+03
1.259291e+03,9.295998e+03
1.262183e+03,9.265969e+03
1.265076e+03,9.249799e+03
1.267969e+03,9.226467e+03
1.270861e+03,9.255026e+03
1.273754e+03,9.260737e+03
1.276647e+03,9.262397e+03
1.279539e+03,9.261062e+03
1.282432e+03,9.231747e+03
1.285325e+03,9.251173e+03
1.288218e+03,9.224502e+03
1.291110e+03,9.194177e+03
1.294003e+03,9.161042e+03
1.296896e+03,9.141031e+03
1.299788e+03,9.121459e+03
1.302681e+03,9.115209e+03
1.305574e+03,9.111734e+03
1.308466e+03,9.089840e+03
1.311359e+03,9.048082e+03
1.314252e+03,9.057754e+03
1.317145e+03,9.044482e+03
1.320037e+03,9.058231e+03
1.322930e+03,9.053737e+03
1.325823e+03,8.983269e+03
1.328715e+03,8.979761e+03
1.331608e+03,9.018381e+03
1.334501e+03,9.057934e+03
1.337393e+03,9.044671e+03
1.340286e+03,8.991394e+03
1.343179e+03,8.975226e+03
1.346072e+03,8.927815e+03
1.348964e+03,8.961660e+03
1.351857e+03,8.942156e+03
1.354750e+03,8.933600e+03
1.357642e+03,8.921649e+03
1.360535e+03,8.862027e+03
1.363428e+03,8.880618e+03
1.366320e+03,8.899006e+03
1.369213e+03,8.869626e+03
1.372106e+03,8.820764e+03
1.374999e+03,8.793667e+03
1.377891e+03,8.792214e+03
1.380784e+03,8.784892e+03
1.383677e+03,8.791879e+03
1.386569e+03,8.749830e+03
1.389462e+03,8.715594e+03
1.392355e+03,8.695934e+03
1.395247e+03,8.707926e+03
1.398140e+03,8.692503e+03
1.401033e+03,8.693519e+03
1.403926e+03,8.637806e+03
1.406818e+03,8.628845e+03
1.409711e+03,8.653258e+03
1.412604e+03,8.651216e+03
1.415496e+03,8.618338e+03
1.418389e+03,8.617427e+03
1.421282e+03,8.570071e+03
1.424174e+03,8.554646e+03
1.427067e+03,8.537618e+03
1.429960e+03,8.548801e+03
1.432853e+03,8.527343e+03
1.435745e+03,8.492786e+03
1.438638e+03,8.489758e+03
1.441531e+03,8.474688e+03
1.444423e+03,8.472447e+03
1.447316e+03,8.433066e+03
1.450209e+03,8.404551e+03
1.453101e+03,8.422320e+03
1.455994e+03,8.418321e+03
1.458887e+03,8.400465e+03
1.461780e+03,8.416710e+03
1.464672e+03,8.367407e+03
1.467565e+03,8.359669e+03
1.470458e+03,8.310276e+03
1.473350e+03,8.323704e+03
1.476243e+03,8.328901e+03
1.479136e+03,8.305730e+03
1.482028e+03,8.300583e+03
1.484921e+03,8.261207e+03
1.487814e+03,8.258923e+03
1.490707e+03,8.256825e+03
1.493599e+03,8.257901e+03
1.496492e+03,8.249358e+03
1.499385e+03,8.212977e+03
1.502277e+03,8.227415e+03
1.505170e+03,8.237071e+03
1.508063e+03,8.224634e+03
1.510955e+03,8.178666e+03
1.513848e+03,8.129968e+03
1.516741e+03,8.138473e+03
1.519634e+03,8.158963e+03
1.522526e+03,8.143913e+03
1.525419e+03,8.115085e+03
1.528312e+03,8.079299e+03
1.531204e+03,8.071555e+03
1.534097e+03,8.090518e+03
1.536990e+03,8.046633e+03
1.539882e+03,8.066630e+03
1.542775e+03,8.027897e+03
1.545668e+03,8.027203e+03
1.548561e+03,8.039972e+03
1.551453e+03,8.034799e+03
1.554346e+03,8.025207e+03
1.557239e+03,8.012595e+03
1.560131e+03,8.018992e+03
1.563024e+03,7.983398e+03
1.565917e+03,7.994667e+03
1.568809e+03,8.009372e+03
1.571702e+03,7.995078e+03
1.574595e+03,7.989912e+03
1.577488e+03,8.002671e+03
1.580380e+03,7.976680e+03
1.583273e+03,7.954647e+03
1.586166e+03,7.931015e+03
1.589058e+03,7.933680e+03
1.591951e+03,7.867723e+03
1.594844e+03,7.890092e+03
1.597736e+03,7.890849e+03
1.600629e+03,7.875633e+03
1.603522e+03,7.829374e+03
1.606415e+03,7.805667e+03
1.609307e+03,7.782569e+03
1.612200e+03,7.760569e+03
1.615093e+03,7.769866e+03
1.617985e+03,7.728575e+03
1.620878e+03,7.723305e+03
1.623771e+03,7.690290e+03
1.626663e+03,7.696937e+03
1.629556e+03,7.680777e+03
1.632449e+03,7.659743e+03
1.635342e+03,7.626069e+03
1.638234e+03,7.635478e+03
1.641127e+03,7.607523e+03
1.644020e+03,7.617890e+03
1.646912e+03,7.571560e+03
1.649805e+03,7.552396e+03
1.652698e+03,7.522712e+03
1.655590e+03,7.529390e+03
1.658483e+03,7.520828e+03
1.661376e+03,7.495611e+03
1.664269e+03,7.476006e+03
1.667161e+03,7.478061e+03
1.670054e+03,7.450667e+03
1.672947e+03,7.438097e+03
1.675839e+03,7.431161e+03
1.678732e+03,7.436519e+03
1.681625e+03,7.410207e+03
1.684517e+03,7.386729e+03
1.687410e+03,7.369393e+03
1.690303e+03,7.396280e+03
1.693196e+03,7.347483e+03
1.696088e+03,7.332611e+03
1.698981e+03,7.356408e+03
1.701874e+03,7.295644e+03
1.704766e+03,7.331259e+03
1.707659e+03,7.306327e+03
1.710552e+03,7.284128e+03
1.713444e+03,7.286363e+03
1.716337e+03,7.234353e+03
1.719230e+03,7.217292e+03
1.722123e+03,7.246123e+03
1.725015e+03,7.196110e+03
1.727908e+03,7.190546e+03
1.730801e+03,7.185377e+03
1.733693e+03,7.156924e+03
1.736586e+03,7.163005e+03
1.739479e+03,7.153778e+03
1.742371e+03,7.140239e+03
1.745264e+03,7.106091e+03
1.748157e+03,7.129318e+03
1.751050e+03,7.092989e+03
1.753942e+03,7.095430e+03
1.756835e+03,7.078781e+03
1.759728e+03,7.054778e+03
1.762620e+03,7.035596e+03
1.765513e+03,7.042602e+03
1.768406e+03,7.034762e+03
1.771298e+03,7.006982e+03
1.774191e+03,6.974899e+03
1.777084e+03,6.986762e+03
1.779977e+03,6.954118e+03
1.782869e+03,6.945792e+03
1.785762e+03,6.976632e+03
1.788655e+03,6.922521e+03
1.791547e+03,6.914721e+03
1.794440e+03,6.898813e+03
1.797333e+03,6.896599e+03
1.800225e+03,6.922417e+03
1.803118e+03,6.846605e+03
1.806011e+03,6.838365e+03
1.808904e+03,6.809602e+03
1.811796e+03,6.833792e+03
1.814689e+03,6.804722e+03
1.817582e+03,6.816514e+03
1.820474e+03,6.761987e+03
1.823367e+03,6.797729e+03
1.826260e+03,6.770110e+03
1.829152e+03,6.742407e+03
1.832045e+03,6.738315e+03
1.834938e+03,6.701991e+03
1.837831e+03,6.685123e+03
1.840723e+03,6.722406e+03
1.843616e+03,6.691533e+03
1.846509e+03,6.678632e+03
1.849401e+03,6.613081e+03
1.852294e+03,6.624168e+03
1.855187e+03,6.619441e+03
1.858079e+03,6.623846e+03
1.860972e+03,6.599134e+03
1.863865e+03,6.580770e+03
1.866758e+03,6.577998e+03
1.869650e+03,6.577270e+03
1.872543e+03,6.521497e+03
1.875436e+03,6.554166e+03
1.878328e+03,6.545804e+03
1.881221e+03,6.519750e+03
1.884114e+03,6.478526e+03
1.887006e+03,6.467623e+03
1.889899e+03,6.500032e+03
1.892792e+03,6.475451e+03
1.895685e+03,6.444256e+03
1.898577e+03,6.423436e+03
1.901470e+03,6.423720e+03
1.904363e+03,6.386308e+03
1.907255e+03,6.410053e+03
1.910148e+03,6.392820e+03
1.913041e+03,6.383688e+03
1.915933e+03,6.347758e+03
1.918826e+03,6.331432e+03
1.921719e+03,6.314239e+03
1.924612e+03,6.322507e+03
1.927504e+03,6.313034e+03
1.930397e+03,6.286052e+03
1.933290e+03,6.257563e+03
1.936182e+03,6.287593e+03
1.939075e+03,6.240369e+03
1.941968e+03,6.243006e+03
1.944860e+03,6.206997e+03
1.947753e+03,6.185311e+03
1.950646e+03,6.186808e+03
1.953539e+03,6.180284e+03
1.956431e+03,6.171475e+03
1.959324e+03,6.131171e+03
1.962217e+03,6.135282e+03
1.965109e+03,6.112459e+03
1.968002e+03,6.139300e+03
1.970895e+03,6.062505e+03
1.973787e+03,6.096405e+03
1.976680e+03,6.065465e+03
1.979573e+03,6.054860e+03
1.982466e+03,6.026833e+03
1.985358e+03,6.058978e+03
1.988251e+03,6.000631e+03
1.991144e+03,5.976443e+03
1.994036e+03,6.001250e+03
1.996929e+03,5.999851e+03
1.999822e+03,5.980204e+03
2.002714e+03,5.965619e+03
2.005607e+03,5.938960e+03
2.008500e+03,5.911726e+03
2.011393e+03,5.895090e+03
2.014285e+03,5.902265e+03
2.017178e+03,5.902636e+03
2.020071e+03,5.845229e+03
2.022963e+03,5.849886e+03
2.025856e+03,5.841096e+03
2.028749e+03,5.789890e+03
2.031641e+03,5.820153e+03
2.034534e+03,5.828396e+03
2.037427e+03,5.766634e+03
2.040320e+03,5.739466e+03
2.043212e+03,5.751608e+03
2.046105e+03,5.768251e+03
2.048998e+03,5.764232e+03
2.051890e+03,5.722166e+03
2.054783e+03,5.688036e+03
2.057676e+03,5.676139e+03
2.060568e+03,5.656951e+03
2.063461e+03,5.663761e+03
2.066354e+03,5.683069e+03
2.069247e+03,5.630446e+03
2.072139e+03,5.623954e+03
2.075032e+03,5.589893e+03
2.077925e+03,5.595021e+03
2.080817e+03,5.631208e+03
2.083710e+03,5.578619e+03
2.086603e+03,5.553240e+03
2.089496e+03,5.560752e+03
2.092388e+03,5.545950e+03
2.095281e+03,5.542154e+03
2.098174e+03,5.516726e+03
2.101066e+03,5.479844e+03
2.103959e+03,5.462260e+03
2.106852e+03,5.484143e+03
2.109744e+03,5.468530e+03
2.112637e+03,5.452556e+03
2.115530e+03,5.396548e+03
2.118422e+03,5.393465e+03
2.121315e+03,5.422325e+03
2.124208e+03,5.423395e+03
2.127101e+03,5.371977e+03
2.129993e+03,5.341163e+03
2.132886e+03,5.354562e+03
2.135779e+03,5.351088e+03
2.138671e+03,5.353539e+03
2.141564e+03,5.312511e+03
2.144457e+03,5.335984e+03
2.147350e+03,5.295403e+03
2.150242e+03,5.252558e+03
2.153135e+03,5.296077e+03
2.156028e+03,5.245053e+03
2.158920e+03,5.221357e+03
2.161813e+03,5.222318e+03
2.164706e+03,5.215917e+03
2.167598e+03,5.189500e+03
2.170491e+03,5.195932e+03
2.173384e+03,5.191770e+03
2.176277e+03,5.176187e+03
2.179169e+03,5.166319e+03
2.182062e+03,5.145696e+03
2.184955e+03,5.154025e+03
2.187847e+03,5.097528e+03
2.190740e+03,5.101931e+03
2.193633e+03,5.107987e+03
2.196525e+03,5.082007e+03
2.199418e+03,5.070034e+03
2.202311e+03,5.045122e+03
2.205204e+03,5.074944e+03
2.208096e+03,5.071823e+03
2.210989e+03,5.099022e+03
2.213882e+03,4.996411e+03
2.216774e+03,5.024548e+03
2.219667e+03,5.018233e+03
2.222560e+03,4.957276e+03
2.225452e+03,4.925743e+03
2.228345e+03,4.946591e+03
2.231238e+03,4.920912e+03
2.234131e+03,4.956729e+03
2.237023e+03,4.914683e+03
2.239916e+03,4.876210e+03
2.242809e+03,4.848276e+03
2.245701e+03,4.871032e+03
2.248594e+03,4.862303e+03
2.251487e+03,4.880241e+03
2.254379e+03,4.826061e+03
2.257272e+03,4.776250e+03
2.260165e+03,4.796477e+03
2.263058e+03,4.785969e+03
2.265950e+03,4.818955e+03
2.268843e+03,4.766370e+03
2.271736e+03,4.736461e+03
2.274628e+03,4.686618e+03
2.277521e+03,4.740633e+03
2.280414e+03,4.764534e+03
2.283306e+03,4.738771e+03
2.286199e+03,4.694380e+03
2.289092e+03,4.671271e+03
2.291985e+03,4.663135e+03
2.294877e+03,4.652435e+03
2.297770e+03,4.685833e+03
2.300663e+03,4.685430e+03
2.303555e+03,4.610667e+03
2.306448e+03,4.617495e+03
2.309341e+03,4.627607e+03
2.312233e+03,4.606383e+03
2.315126e+03,4.605503e+03
2.318019e+03,4.582522e+03
2.320912e+03,4.588705e+03
2.323804e+03,4.571010e+03
2.326697e+03,4.578328e+03
2.329590e+03,4.532841e+03
2.332482e+03,4.555560e+03
2.335375e+03,4.517175e+03
2.338268e+03,4.510432e+03
2.341160e+03,4.524907e+03
2.344053e+03,4.508019e+03
2.346946e+03,4.492666e+03
2.349839e+03,4.455630e+03
2.352731e+03,4.474686e+03
2.355624e+03,4.480536e+03
2.358517e+03,4.470313e+03
2.361409e+03,4.479280e+03
2.364302e+03,4.417333e+03
2.367195e+03,4.412186e+03
2.370087e+03,4.388946e+03
2.372980e+03,4.389035e+03
2.375873e+03,4.435302e+03
2.378766e+03,4.363512e+03
2.381658e+03,4.322501e+03
2.384551e+03,4.350088e+03
2.387444e+03,4.365941e+03
2.390336e+03,4.362895e+03
2.393229e+03,4.320568e+03
2.396122e+03,4.303332e+03
2.399014e+03,4.279684e+03
2.401907e+03,4.296544e+03
2.404800e+03,4.278242e+03
2.407693e+03,4.295311e+03
2.410585e+03,4.267905e+03
2.413478e+03,4.246329e+03
2.416371e+03,4.251870e+03
2.419263e+03,4.260104e+03
2.422156e+03,4.236160e+03
2.425049e+03,4.246026e+03
2.427941e+03,4.201698e+03
2.430834e+03,4.201015e+03
2.433727e+03,4.181257e+03
2.436620e+03,4.178692e+03
2.439512e+03,4.170991e+03
2.442405e+03,4.137657e+03
2.445298e+03,4.140618e+03
2.448190e+03,4.119846e+03
2.451083e+03,4.134198e+03
2.453976e+03,4.136511e+03
2.456868e+03,4.124501e+03
2.459761e+03,4.065906e+03
2.462654e+03,4.112481e+03
2.465547e+03,4.092043e+03
2.468439e+03,4.065712e+03
2.471332e+03,4.069167e+03
2.474225e+03,4.037505e+03
2.477117e+03,4.055535e+03
2.480010e+03,4.063304e+03
2.482903e+03,4.029785e+03
2.485795e+03,4.035831e+03
2.488688e+03,4.038368e+03
2.491581e+03,4.001723e+03
2.494474e+03,3.965522e+03
2.497366e+03,3.972268e+03
2.500259e+03,3.975261e+03
2.503152e+03,3.977083e+03
2.506044e+03,3.953863e+03
2.508937e+03,3.937792e+03
2.511830e+03,3.918898e+03
2.514722e+03,3.932732e+03
2.517615e+03,3.931610e+03
2.520508e+03,3.905775e+03
2.523401e+03,3.910087e+03
2.526293e+03,3.911087e+03
2.529186e+03,3.898549e+03
2.532079e+03,3.896481e+03
2.534971e+03,3.911226e+03
2.537864e+03,3.869506e+03
2.540757e+03,3.848800e+03
2.543649e+03,3.883401e+03
2.546542e+03,3.883894e+03
2.549435e+03,3.802142e+03
2.552328e+03,3.837506e+03
2.555220e+03,3.821556e+03
2.558113e+03,3.820496e+03
2.561006e+03,3.797158e+03
2.563898e+03,3.811855e+03
2.566791e+03,3.800937e+03
2.569684e+03,3.809943e+03
2.572576e+03,3.789833e+03
2.575469e+03,3.791854e+03
2.578362e+03,3.774689e+03
2.581255e+03,3.778136e+03
2.584147e+03,3.722794e+03
2.587040e+03,3.712325e+03
2.589933e+03,3.752604e+03
2.592825e+03,3.747941e+03
2.595718e+03,3.754340e+03
2.598611e+03,3.720324e+03
2.601503e+03,3.723894e+03
2.604396e+03,3.712294e+03
2.607289e+03,3.701710e+03
2.610182e+03,3.724288e+03
2.613074e+03,3.680140e+03
2.615967e+03,3.686421e+03
2.618860e+03,3.653981e+03
2.621752e+03,3.699551e+03
2.624645e+03,3.700952e+03
2.627538e+03,3.646245e+03
2.630430e+03,3.623574e+03
2.633323e+03,3.639786e+03
2.636216e+03,3.621749e+03
2.639109e+03,3.625161e+03
2.642001e+03,3.627639e+03
2.644894e+03,3.601726e+03
2.647787e+03,3.622649e+03
2.650679e+03,3.577676e+03
2.653572e+03,3.599508e+03
2.656465e+03,3.633038e+03
2.659357e+03,3.570118e+03
2.662250e+03,3.590854e+03
2.665143e+03,3.564974e+03
2.668036e+03,3.574044e+03
2.670928e+03,3.586207e+03
2.673821e+03,3.552368e+03
2.676714e+03,3.503767e+03
2.679606e+03,3.552542e+03
2.682499e+03,3.533668e+03
2.685392e+03,3.524982e+03
2.688284e+03,3.521099e+03
2.691177e+03,3.512709e+03
2.694070e+03,3.515196e+03
2.696963e+03,3.495500e+03
2.699855e+03,3.494759e+03
2.702748e+03,3.481585e+03
2.705641e+03,3.476847e+03
2.708533e+03,3.453422e+03
2.711426e+03,3.462352e+03
2.714319e+03,3.447159e+03
2.717211e+03,3.445405e+03
2.720104e+03,3.438285e+03
2.722997e+03,3.449175e+03
2.725890e+03,3.426891e+03
2.728782e+03,3.439188e+03
2.731675e+03,3.426085e+03
2.734568e+03,3.412281e+03
2.737460e+03,3.394025e+03
2.740353e+03,3.419766e+03
2.743246e+03,3.354246e+03
2.746138e+03,3.417577e+03
2.749031e+03,3.398820e+03
2.751924e+03,3.388183e+03
2.754817e+03,3.365390e+03
2.757709e+03,3.362448e+03
2.760602e+03,3.346770e+03
2.763495e+03,3.334082e+03
2.766387e+03,3.360186e+03
2.769280e+03,3.350113e+03
2.772173e+03,3.358530e+03
2.775065e+03,3.311417e+03
2.777958e+03,3.314217e+03
2.780851e+03,3.305736e+03
2.783744e+03,3.345550e+03
2.786636e+03,3.308878e+03
2.789529e+03,3.339769e+03
2.792422e+03,3.297684e+03
2.795314e+03,3.286986e+03
2.798207e+03,3.294875e+03
2.801100e+03,3.283573e+03
2.803992e+03,3.282560e+03
2.806885e+03,3.287561e+03
2.809778e+03,3.250296e+03
2.812671e+03,3.249720e+03
2.815563e+03,3.274405e+03
2.818456e+03,3.222417e+03
2.821349e+03,3.238073e+03
2.824241e+03,3.270900e+03
2.827134e+03,3.246123e+03
2.830027e+03,3.213843e+03
2.832919e+03,3.218520e+03
2.835812e+03,3.225444e+03
2.838705e+03,3.159432e+03
2.841598e+03,3.222492e+03
2.844490e+03,3.229025e+03
2.847383e+03,3.199827e+03
2.850276e+03,3.192405e+03
2.853168e+03,3.214705e+03
2.856061e+03,3.204686e+03
2.858954e+03,3.176135e+03
2.861846e+03,3.185386e+03
2.864739e+03,3.166683e+03
2.867632e+03,3.146248e+03
2.870525e+03,3.151296e+03
2.873417e+03,3.163853e+03
2.876310e+03,3.225071e+03
2.879203e+03,3.117301e+03
2.882095e+03,3.167573e+03
2.884988e+03,3.138991e+03
2.887881e+03,3.157048e+03
2.890773e+03,3.165610e+03
2.893666e+03,3.092718e+03
2.896559e+03,3.120981e+03
2.899452e+03,3.183076e+03
2.902344e+03,3.152872e+03
2.905237e+03,3.133794e+03
2.908130e+03,3.119805e+03
2.911022e+03,3.121353e+03
2.913915e+03,3.130476e+03
2.916808e+03,3.082176e+03
2.919700e+03,3.093863e+03
2.922593e+03,3.075712e+03
2.925486e+03,3.142564e+03
2.928379e+03,3.099826e+03
2.931271e+03,3.082822e+03
2.934164e+03,3.058039e+03
2.937057e+03,3.051112e+03
2.939949e+03,3.043684e+03
2.942842e+03,3.013313e+03
2.945735e+03,3.054423e+03
2.948627e+03,3.055879e+03
2.951520e+03,3.031483e+03
2.954413e+03,3.007574e+03
2.957306e+03,3.039895e+03
2.960198e+03,3.055295e+03
2.963091e+03,3.049520e+03
2.965984e+03,2.999471e+03
2.968876e+03,3.000280e+03
2.971769e+03,3.016036e+03
2.974662e+03,2.969056e+03
2.977554e+03,2.912525e+03
2.980447e+03,3.002718e+03
2.983340e+03,3.023282e+03
2.986233e+03,2.972709e+03
2.989125e+03,2.956543e+03
2.992018e+03,2.960832e+03
2.994911e+03,2.945402e+03
2.997803e+03,2.985449e+03
3.000696e+03,2.955593e+03
3.003589e+03,2.896792e+03
3.006481e+03,2.924765e+03
3.009374e+03,2.921214e+03
3.012267e+03,2.915313e+03
3.015160e+03,2.881237e+03
3.018052e+03,2.882133e+03
3.020945e+03,2.886778e+03
3.023838e+03,2.920866e+03
3.026730e+03,2.877682e+03
3.029623e+03,2.864048e+03
3.032516e+03,2.902073e+03
3.035408e+03,2.880156e+03
3.038301e+03,2.863244e+03
3.041194e+03,2.950573e+03
3.044087e+03,2.839280e+03
3.046979e+03,2.881548e+03
3.049872e+03,2.894336e+03
3.052765e+03,2.879485e+03
3.055657e+03,2.884253e+03
3.058550e+03,2.861649e+03
3.061443e+03,2.904595e+03
3.064335e+03,2.822691e+03
3.067228e+03,2.871596e+03
3.070121e+03,2.829332e+03
3.073014e+03,2.837629e+03
3.075906e+03,2.765650e+03
3.078799e+03,2.885635e+03
3.081692e+03,2.835462e+03
3.084584e+03,2.849918e+03
3.087477e+03,2.825453e+03
3.090370e+03,2.858501e+03
3.093262e+03,2.783015e+03
3.096155e+03,2.891957e+03
3.099048e+03,2.794198e+03
3.101941e+03,2.867769e+03
3.104833e+03,2.865451e+03
3.107726e+03,2.849238e+03
3.110619e+03,2.834730e+03
3.113511e+03,2.810537e+03
3.116404e+03,2.793258e+03
3.119297e+03,2.841151e+03
3.122189e+03,2.790770e+03
3.125082e+03,2.856685e+03
3.127975e+03,2.823159e+03
3.130868e+03,2.811533e+03
3.133760e+03,2.831052e+03
3.136653e+03,2.799885e+03
3.139546e+03,2.851010e+03
3.142438e+03,2.807362e+03
3.145331e+03,2.746219e+03
3.148224e+03,2.805657e+03
3.151116e+03,2.852845e+03
3.154009e+03,2.805834e+03
3.156902e+03,2.802116e+03
3.159795e+03,2.728337e+03
3.162687e+03,2.807967e+03
3.165580e+03,2.808110e+03
3.168473e+03,2.779958e+03
3.171365e+03,2.759476e+03
3.174258e+03,2.749043e+03
3.177151e+03,2.805455e+03
3.180043e+03,2.796544e+03
3.182936e+03,2.831528e+03
3.185829e+03,2.740881e+03
3.188722e+03,2.787814e+03
3.191614e+03,2.848202e+03
3.194507e+03,2.802970e+03
3.197400e+03,2.787902e+03
3.200292e+03,2.779923e+03
3.203185e+03,0.000000e+00
3.206078e+03,0.000000e+00
3.208970e+03,0.000000e+00
3.211863e+03,0.000000e+00
3.214756e+03,0.000000e+00
3.217649e+03,0.000000e+00
3.220541e+03,0.000000e+00
3.223434e+03,0.000000e+00
3.226327e+03,0.000000e+00
3.229219e+03,0.000000e+00
3.232112e+03,0.000000e+00
3.235005e+03,0.000000e+00
3.237897e+03,0.000000e+00
3.240790e+03,0.000000e+00
3.243683e+03,0.000000e+00
3.246576e+03,0.000000e+00
3.249468e+03,0.000000e+00
3.252361e+03,0.000000e+00
3.255254e+03,0.000000e+00
3.258146e+03,0.000000e+00
3.261039e+03,0.000000e+00
3.263932e+03,0.000000e+00
3.266824e+03,0.000000e+00
3.269717e+03,0.000000e+00
3.272610e+03,0.000000e+00
3.275503e+03,0.000000e+00
3.278395e+03,0.000000e+00
3.281288e+03,0.000000e+00
3.284181e+03,0.000000e+00
3.287073e+03,0.000000e+00
3.289966e+03,0.000000e+00
3.292859e+03,0.000000e+00
3.295751e+03,0.000000e+00
3.298644e+03,0.000000e+00
3.301537e+03,0.000000e+00
3.304430e+03,0.000000e+00
3.307322e+03,0.000000e+00
3.310215e+03,0.000000e+00
3.313108e+03,0.000000e+00
3.316000e+03,0.000000e+00
3.318893e+03,0.000000e+00
3.321786e+03,0.000000e+00
3.324678e+03,0.000000e+00
3.327571e+03,0.000000e+00
3.330464e+03,0.000000e+00
3.333357e+03,0.000000e+00
3.336249e+03,0.000000e+00
3.339142e+03,0.000000e+00
3.342035e+03,0.000000e+00
3.344927e+03,0.000000e+00
3.347820e+03,0.000000e+00
3.350713e+03,0.000000e+00
3.353605e+03,0.000000e+00
3.356498e+03,0.000000e+00
3.359391e+03,0.000000e+00
3.362284e+03,0.000000e+00
3.365176e+03,0.000000e+00
3.368069e+03,0.000000e+00
3.370962e+03,0.000000e+00
3.373854e+03,0.000000e+00
3.376747e+03,0.000000e+00
3.379640e+03,0.000000e+00
3.382532e+03,0.000000e+00
3.385425e+03,0.000000e+00
3.388318e+03,0.000000e+00
3.391211e+03,0.000000e+00
3.394103e+03,0.000000e+00
3.396996e+03,0.000000e+00
3.399889e+03,0.000000e+00
3.402781e+03,0.000000e+00
3.405674e+03,0.000000e+00
3.408567e+03,0.000000e+00
3.411459e+03,0.000000e+00
3.414352e+03,0.000000e+00
3.417245e+03,0.000000e+00
3.420138e+03,0.000000e+00
3.423030e+03,0.000000e+00
3.425923e+03,0.000000e+00
3.428816e+03,0.000000e+00
3.431708e+03,0.000000e+00
3.434601e+03,0.000000e+00
3.437494e+03,0.000000e+00
3.440386e+03,0.000000e+00
3.443279e+03,0.000000e+00
3.446172e+03,0.000000e+00
3.449065e+03,0.000000e+00
3.451957e+03,0.000000e+00
3.454850e+03,0.000000e+00
3.457743e+03,0.000000e+00
3.460635e+03,0.000000e+00
3.463528e+03,0.000000e+00
3.466421e+03,0.000000e+00
3.469313e+03,0.000000e+00
3.472206e+03,0.000000e+00
3.475099e+03,0.000000e+00
3.477992e+03,0.000000e+00
3.480884e+03,0.000000e+00
3.483777e+03,0.000000e+00
3.486670e+03,0.000000e+00
3.489563e+03,0.000000e+00
3.492455e+03,0.000000e+00
3.495348e+03,0.000000e+00
3.498240e+03,0.000000e+00
3.500169e+03,0.000000e+00