File: RAMAN_data/13042023_r2/black fibre4.CSV
9.931763e+01,0.000000e+00
1.022103e+02,0.000000e+00
1.051030e+02,0.000000e+00
1.079957e+02,0.000000e+00
1.108884e+02,0.000000e+00
1.137811e+02,0.000000e+00
1.166738e+02,0.000000e+00
1.195665e+02,0.000000e+00
1.224592e+02,0.000000e+00
1.253519e+02,0.000000e+00
1.282446e+02,0.000000e+00
1.311373e+02,0.000000e+00
1.340300e+02,0.000000e+00
1.369227e+02,0.000000e+00
1.398154e+02,0.000000e+00
1.427081e+02,0.000000e+00
1.456008e+02,0.000000e+00
1.484935e+02,0.000000e+00
1.513862e+02,0.000000e+00
1.542789e+02,0.000000e+00
1.571716e+02,0.000000e+00
1.600643e+02,0.000000e+00
1.629570e+02,0.000000e+00
1.658497e+02,0.000000e+00
1.687424e+02,0.000000e+00
1.716351e+02,0.000000e+00
1.745278e+02,0.000000e+00
1.774205e+02,0.000000e+00
1.803132e+02,0.000000e+00
1.832059e+02,0.000000e+00
1.860986e+02,0.000000e+00
1.889913e+02,0.000000e+00
1.918840e+02,0.000000e+00
1.947767e+02,0.000000e+00
1.976694e+02,0.000000e+00
2.005621e+02,1.047899e+04
2.034548e+02,1.051899e+04
2.063475e+02,1.054891e+04
2.092402e+02,1.054938e+04
2.121329e+02,1.055037e+04
2.150256e+02,1.057905e+04
2.179183e+02,1.060927e+04
2.208110e+02,1.066068e+04
2.237037e+02,1.067604e+04
2.265964e+02,1.068651e+04
2.294892e+02,1.071479e+04
2.323819e+02,1.076347e+04
2.352746e+02,1.080069e+04
2.381673e+02,1.083713e+04
2.410600e+02,1.083247e+04
2.439527e+02,1.084990e+04
2.468454e+02,1.088676e+04
2.497381e+02,1.092278e+04
2.526308e+02,1.095922e+04
2.555235e+02,1.097428e+04
2.584161e+02,1.097618e+04
2.613088e+02,1.101875e+04
2.642015e+02,1.107090e+04
2.670942e+02,1.109680e+04
2.699869e+02,1.113129e+04
2.728796e+02,1.114345e+04
2.757723e+02,1.118588e+04
2.786650e+02,1.122837e+04
2.815577e+02,1.125757e+04
2.844504e+02,1.128443e+04
2.873431e+02,1.128894e+04
2.902358e+02,1.131662e+04
2.931285e+02,1.134527e+04
2.960212e+02,1.138987e+04
2.989139e+02,1.141438e+04
3.018066e+02,1.143403e+04
3.046993e+02,1.146588e+04
3.075920e+02,1.148845e+04
3.104847e+02,1.152735e+04
3.133774e+02,1.157835e+04
3.162701e+02,1.159458e+04
3.191628e+02,1.160775e+04
3.220555e+02,1.163998e+04
3.249482e+02,1.168473e+04
3.278409e+02,1.172350e+04
3.307336e+02,1.175910e+04
3.336263e+02,1.178434e+04
3.365190e+02,1.179563e+04
3.394117e+02,1.184454e+04
3.423044e+02,1.188976e+04
3.451971e+02,1.195046e+04
3.480898e+02,1.197444e+04
3.509825e+02,1.198815e+04
3.538752e+02,1.203829e+04
3.567680e+02,1.208699e+04
3.596607e+02,1.212620e+04
3.625534e+02,1.216527e+04
3.654461e+02,1.215099e+04
3.683388e+02,1.217619e+04
3.712315e+02,1.223918e+04
3.741242e+02,1.227458e+04
3.770169e+02,1.231110e+04
3.799096e+02,1.235298e+04
3.828023e+02,1.236815e+04
3.856950e+02,1.240989e+04
3.885877e+02,1.246675e+04
3.914804e+02,1.251700e+04
3.943731e+02,1.254452e+04
3.972658e+02,1.257093e+04
4.001585e+02,1.259455e+04
4.030512e+02,1.265127e+04
4.059439e+02,1.268371e+04
4.088366e+02,1.272614e+04
4.117293e+02,1.274362e+04
4.146220e+02,1.277177e+04
4.175147e+02,1.281287e+04
4.204074e+02,1.285215e+04
4.233001e+02,1.288550e+04
4.261928e+02,1.290769e+04
4.290855e+02,1.294545e+04
4.319782e+02,1.298619e+04
4.348709e+02,1.304495e+04
4.377636e+02,1.309429e+04
4.406563e+02,1.313490e+04
4.435490e+02,1.317557e+04
4.464417e+02,1.321596e+04
4.493344e+02,1.326363e+04
4.522271e+02,1.329423e+04
4.551198e+02,1.332356e+04
4.580125e+02,1.333375e+04
4.609052e+02,1.337756e+04
4.637979e+02,1.337812e+04
4.666906e+02,1.338047e+04
4.695833e+02,1.341808e+04
4.724760e+02,1.344266e+04
4.753687e+02,1.342959e+04
4.782614e+02,1.346138e+04
4.811541e+02,1.348594e+04
4.840468e+02,1.352395e+04
4.869395e+02,1.354434e+04
4.898322e+02,1.354579e+04
4.927249e+02,1.356469e+04
4.956176e+02,1.356546e+04
4.985103e+02,1.362773e+04
5.014030e+02,1.362902e+04
5.042957e+02,1.363733e+04
5.071884e+02,1.360873e+04
5.100811e+02,1.362042e+04
5.129738e+02,1.362526e+04
5.158665e+02,1.362553e+04
5.187592e+02,1.364785e+04
5.216519e+02,1.359358e+04
5.245446e+02,1.361664e+04
5.274373e+02,1.363790e+04
5.303300e+02,1.361835e+04
5.332227e+02,1.362642e+04
5.361154e+02,1.358865e+04
5.390081e+02,1.359053e+04
5.419008e+02,1.359225e+04
5.447935e+02,1.361031e+04
5.476862e+02,1.359528e+04
5.505789e+02,1.358442e+04
5.534716e+02,1.353577e+04
5.563643e+02,1.358613e+04
5.592570e+02,1.356483e+04
5.621497e+02,1.358374e+04
5.650424e+02,1.359692e+04
5.679351e+02,1.354525e+04
5.708278e+02,1.353865e+04
5.737205e+02,1.353306e+04
5.766132e+02,1.357727e+04
5.795059e+02,1.359462e+04
5.823986e+02,1.357093e+04
5.852913e+02,1.355654e+04
5.881840e+02,1.355388e+04
5.910767e+02,1.356812e+04
5.939694e+02,1.358757e+04
5.968621e+02,1.356808e+04
5.997548e+02,1.355990e+04
6.026475e+02,1.353885e+04
6.055402e+02,1.354100e+04
6.084329e+02,1.347609e+04
6.113256e+02,1.344927e+04
6.142183e+02,1.343704e+04
6.171110e+02,1.341338e+04
6.200037e+02,1.343304e+04
6.228964e+02,1.342067e+04
6.257891e+02,1.342461e+04
6.286818e+02,1.338747e+04
6.315745e+02,1.336262e+04
6.344672e+02,1.336322e+04
6.373599e+02,1.332914e+04
6.402526e+02,1.330691e+04
6.431453e+02,1.330755e+04
6.460380e+02,1.325139e+04
6.489307e+02,1.323504e+04
6.518234e+02,1.321523e+04
6.547161e+02,1.326552e+04
6.576088e+02,1.319287e+04
6.605015e+02,1.318032e+04
6.633942e+02,1.315012e+04
6.662869e+02,1.313036e+04
6.691796e+02,1.316984e+04
6.720723e+02,1.314399e+04
6.749650e+02,1.305886e+04
6.778577e+02,1.307424e+04
6.807504e+02,1.307087e+04
6.836431e+02,1.305638e+04
6.865358e+02,1.304524e+04
6.894285e+02,1.302426e+04
6.923212e+02,1.296758e+04
6.952139e+02,1.297448e+04
6.981066e+02,1.297531e+04
7.009993e+02,1.298770e+04
7.038920e+02,1.296164e+04
7.067847e+02,1.291361e+04
7.096774e+02,1.288131e+04
7.125701e+02,1.290559e+04
7.154628e+02,1.284543e+04
7.183555e+02,1.288521e+04
7.212482e+02,1.286015e+04
7.241409e+02,1.283173e+04
7.270336e+02,1.281457e+04
7.299263e+02,1.282722e+04
7.328190e+02,1.281496e+04
7.357117e+02,1.278442e+04
7.386044e+02,1.274321e+04
7.414971e+02,1.274769e+04
7.443898e+02,1.273432e+04
7.472825e+02,1.275010e+04
7.501752e+02,1.271946e+04
7.530679e+02,1.266574e+04
7.559606e+02,1.261876e+04
7.588533e+02,1.262582e+04
7.617460e+02,1.264734e+04
7.646387e+02,1.256766e+04
7.675314e+02,1.257306e+04
7.704241e+02,1.253880e+04
7.733168e+02,1.251091e+04
7.762095e+02,1.255225e+04
7.791022e+02,1.254231e+04
7.819949e+02,1.248911e+04
7.848876e+02,1.249726e+04
7.877803e+02,1.244686e+04
7.906730e+02,1.243840e+04
7.935657e+02,1.244691e+04
7.964584e+02,1.240618e+04
7.993511e+02,1.236774e+04
8.022438e+02,1.240122e+04
8.051365e+02,1.238648e+04
8.080292e+02,1.232462e+04
8.109219e+02,1.230867e+04
8.138146e+02,1.233312e+04
8.167073e+02,1.230468e+04
8.196000e+02,1.229711e+04
8.224927e+02,1.226331e+04
8.253854e+02,1.226242e+04
8.282781e+02,1.221739e+04
8.311708e+02,1.220327e+04
8.340635e+02,1.221569e+04
8.369562e+02,1.220488e+04
8.398489e+02,1.223391e+04
8.427416e+02,1.215994e+04
8.456343e+02,1.215198e+04
8.485270e+02,1.215180e+04
8.514197e+02,1.213260e+04
8.543124e+02,1.211990e+04
8.572051e+02,1.210620e+04
8.600978e+02,1.207459e+04
8.629905e+02,1.204203e+04
8.658832e+02,1.200829e+04
8.687759e+02,1.201312e+04
8.716686e+02,1.201941e+04
8.745613e+02,1.199772e+04
8.774540e+02,1.193765e+04
8.803467e+02,1.196497e+04
8.832394e+02,1.193893e+04
8.861321e+02,1.194889e+04
8.890248e+02,1.192427e+04
8.919175e+02,1.183436e+04
8.948102e+02,1.186053e+04
8.977029e+02,1.184409e+04
9.005956e+02,1.183753e+04
9.034883e+02,1.188144e+04
9.063810e+02,1.180926e+04
9.092737e+02,1.177534e+04
9.121664e+02,1.175650e+04
9.150591e+02,1.173911e+04
9.179518e+02,1.175852e+04
9.208445e+02,1.166140e+04
9.237372e+02,1.169505e+04
9.266299e+02,1.169119e+04
9.295226e+02,1.166090e+04
9.324153e+02,1.165726e+04
9.353080e+02,1.163460e+04
9.382007e+02,1.159158e+04
9.410934e+02,1.160359e+04
9.439861e+02,1.157755e+04
9.468788e+02,1.156583e+04
9.497715e+02,1.154982e+04
9.526642e+02,1.150871e+04
9.555569e+02,1.150325e+04
9.584496e+02,1.148376e+04
9.613423e+02,1.148192e+04
9.642350e+02,1.148213e+04
9.671277e+02,1.144677e+04
9.700204e+02,1.143195e+04
9.729131e+02,1.142250e+04
9.758058e+02,1.139987e+04
9.786985e+02,1.140058e+04
9.815912e+02,1.138618e+04
9.844839e+02,1.131924e+04
9.873766e+02,1.132431e+04
9.902693e+02,1.130299e+04
9.931620e+02,1.135643e+04
9.960547e+02,1.133100e+04
9.989474e+02,1.128137e+04
1.001840e+03,1.124514e+04
1.004733e+03,1.126072e+04
1.007626e+03,1.124789e+04
1.010518e+03,1.123453e+04
1.013411e+03,1.122357e+04
1.016304e+03,1.117914e+04
1.019196e+03,1.115864e+04
1.022089e+03,1.115934e+04
1.024982e+03,1.116112e+04
1.027875e+03,1.112111e+04
1.030767e+03,1.112834e+04
1.033660e+03,1.110167e+04
1.036552e+03,1.107906e+04
1.039445e+03,1.108834e+04
1.042338e+03,1.106963e+04
1.045231e+03,1.108301e+04
1.048123e+03,1.106910e+04
1.051016e+03,1.101399e+04
1.053909e+03,1.106700e+04
1.056802e+03,1.102361e+04
1.059694e+03,1.099326e+04
1.062587e+03,1.100272e+04
1.065479e+03,1.098777e+04
1.068372e+03,1.098330e+04
1.071265e+03,1.101350e+04
1.074158e+03,1.096910e+04
1.077050e+03,1.095278e+04
1.079943e+03,1.089787e+04
1.082836e+03,1.089944e+04
1.085729e+03,1.096073e+04
1.088621e+03,1.090725e+04
1.091514e+03,1.088942e+04
1.094406e+03,1.085343e+04
1.097299e+03,1.085121e+04
1.100192e+03,1.084851e+04
1.103085e+03,1.084879e+04
1.105977e+03,1.082082e+04
1.108870e+03,1.076339e+04
1.111763e+03,1.076077e+04
1.114656e+03,1.077071e+04
1.117548e+03,1.080042e+04
1.120441e+03,1.079480e+04
1.123334e+03,1.075937e+04
1.126226e+03,1.072732e+04
1.129119e+03,1.072807e+04
1.132012e+03,1.074367e+04
1.134904e+03,1.071627e+04
1.137797e+03,1.069481e+04
1.140690e+03,1.068527e+04
1.143583e+03,1.070774e+04
1.146475e+03,1.067101e+04
1.149368e+03,1.065107e+04
1.152261e+03,1.070856e+04
1.155153e+03,1.063894e+04
1.158046e+03,1.061831e+04
1.160939e+03,1.064228e+04
1.163831e+03,1.066069e+04
1.166724e+03,1.065045e+04
1.169617e+03,1.060130e+04
1.172510e+03,1.056716e+04
1.175402e+03,1.053038e+04
1.178295e+03,1.053599e+04
1.181188e+03,1.053055e+04
1.184080e+03,1.047814e+04
1.186973e+03,1.045623e+04
1.189866e+03,1.047807e+04
1.192758e+03,1.044515e+04
1.195651e+03,1.044883e+04
1.198544e+03,1.044694e+04
1.201437e+03,1.042051e+04
1.204329e+03,1.039228e+04
1.207222e+03,1.039455e+04
1.210115e+03,1.036421e+04
1.213007e+03,1.034813e+04
1.215900e+03,1.033565e+04
1.218793e+03,1.030774e+04
1.221685e+03,1.027479e+04
1.224578e+03,1.029259e+04
1.227471e+03,1.025725e+04
1.230364e+03,1.024860e+04
1.233256e+03,1.020147e+04
1.236149e+03,1.018346e+04
1.239042e+03,1.020025e+04
1.241934e+03,1.021083e+04
1.244827e+03,1.021769e+04
1.247720e+03,1.013374e+04
1.250612e+03,1.013412e+04
1.253505e+03,1.012244e+04
1.256398e+03,1.015945e+04
1.259291e+03,1.013651e+04
1.262183e+03,1.010531e+04
1.265076e+03,1.008635e+04
1.267969e+03,1.010506e+04
1.270861e+03,1.007085e+04
1.273754e+03,1.008522e+04
1.276647e+03,1.008195e+04
1.279539e+03,1.005814e+04
1.282432e+03,1.002607e+04
1.285325e+03,1.003257e+04
1.288218e+03,1.003595e+04
1.291110e+03,1.003592e+04
1.294003e+03,1.002491e+04
1.296896e+03,9.969151e+03
1.299788e+03,9.944226e+03
1.302681e+03,9.996921e+03
1.305574e+03,9.996726e+03
1.308466e+03,1.001108e+04
1.311359e+03,9.969169e+03
1.314252e+03,9.958601e+03
1.317145e+03,9.985179e+03
1.320037e+03,1.001404e+04
1.322930e+03,9.947667e+03
1.325823e+03,9.934801e+03
1.328715e+03,9.942365e+03
1.331608e+03,9.949563e+03
1.334501e+03,9.936007e+03
1.337393e+03,9.890506e+03
1.340286e+03,9.856794e+03
1.343179e+03,9.815561e+03
1.346072e+03,9.789191e+03
1.348964e+03,9.765207e+03
1.351857e+03,9.768725e+03
1.354750e+03,9.730247e+03
1.357642e+03,9.698806e+03
1.360535e+03,9.700524e+03
1.363428e+03,9.696955e+03
1.366320e+03,9.687660e+03
1.369213e+03,9.698797e+03
1.372106e+03,9.617431e+03
1.374999e+03,9.621587e+03
1.377891e+03,9.643517e+03
1.380784e+03,9.598342e+03
1.383677e+03,9.628951e+03
1.386569e+03,9.596232e+03
1.389462e+03,9.541276e+03
1.392355e+03,9.530486e+03
1.395247e+03,9.513712e+03
1.398140e+03,9.534259e+03
1.401033e+03,9.499084e+03
1.403926e+03,9.465991e+03
1.406818e+03,9.437114e+03
1.409711e+03,9.458865e+03
1.412604e+03,9.485751e+03
1.415496e+03,9.459831e+03
1.418389e+03,9.414860e+03
1.421282e+03,9.398093e+03
1.424174e+03,9.376665e+03
1.427067e+03,9.368870e+03
1.429960e+03,9.349987e+03
1.432853e+03,9.326140e+03
1.435745e+03,9.332453e+03
1.438638e+03,9.349903e+03
1.441531e+03,9.319915e+03
1.444423e+03,9.321062e+03
1.447316e+03,9.272576e+03
1.450209e+03,9.259687e+03
1.453101e+03,9.244389e+03
1.455994e+03,9.260153e+03
1.458887e+03,9.272204e+03
1.461780e+03,9.253350e+03
1.464672e+03,9.244176e+03
1.467565e+03,9.179642e+03
1.470458e+03,9.165146e+03
1.473350e+03,9.184006e+03
1.476243e+03,9.144474e+03
1.479136e+03,9.140436e+03
1.482028e+03,9.127787e+03
1.484921e+03,9.094513e+03
1.487814e+03,9.115980e+03
1.490707e+03,9.095613e+03
1.493599e+03,9.070284e+03
1.496492e+03,9.092297e+03
1.499385e+03,9.064132e+03
1.502277e+03,9.040514e+03
1.505170e+03,9.064797e+03
1.508063e+03,9.008879e+03
1.510955e+03,9.010739e+03
1.513848e+03,8.966434e+03
1.516741e+03,8.970798e+03
1.519634e+03,8.944076e+03
1.522526e+03,8.979344e+03
1.525419e+03,8.964527e+03
1.528312e+03,8.891150e+03
1.531204e+03,8.926643e+03
1.534097e+03,8.875717e+03
1.536990e+03,8.889001e+03
1.539882e+03,8.871346e+03
1.542775e+03,8.848554e+03
1.545668e+03,8.857838e+03
1.548561e+03,8.867087e+03
1.551453e+03,8.852592e+03
1.554346e+03,8.840856e+03
1.557239e+03,8.847804e+03
1.560131e+03,8.818580e+03
1.563024e+03,8.801868e+03
1.565917e+03,8.815894e+03
1.568809e+03,8.802549e+03
1.571702e+03,8.790771e+03
1.574595e+03,8.770781e+03
1.577488e+03,8.778525e+03
1.580380e+03,8.783946e+03
1.583273e+03,8.761202e+03
1.586166e+03,8.752864e+03
1.589058e+03,8.718715e+03
1.591951e+03,8.658974e+03
1.594844e+03,8.689216e+03
1.597736e+03,8.656688e+03
1.600629e+03,8.654078e+03
1.603522e+03,8.664159e+03
1.606415e+03,8.654095e+03
1.609307e+03,8.683716e+03
1.612200e+03,8.648536e+03
1.615093e+03,8.605705e+03
1.617985e+03,8.617905e+03
1.620878e+03,8.533521e+03
1.623771e+03,8.502946e+03
1.626663e+03,8.515185e+03
1.629556e+03,8.473655e+03
1.632449e+03,8.449979e+03
1.635342e+03,8.413752e+03
1.638234e+03,8.362767e+03
1.641127e+03,8.361391e+03
1.644020e+03,8.393698e+03
1.646912e+03,8.364010e+03
1.649805e+03,8.327425e+03
1.652698e+03,8.326038e+03
1.655590e+03,8.302475e+03
1.658483e+03,8.305257e+03
1.661376e+03,8.287862e+03
1.664269e+03,8.274089e+03
1.667161e+03,8.221604e+03
1.670054e+03,8.211907e+03
1.672947e+03,8.184652e+03
1.675839e+03,8.212000e+03
1.678732e+03,8.211350e+03
1.681625e+03,8.168178e+03
1.684517e+03,8.108119e+03
1.687410e+03,8.147733e+03
1.690303e+03,8.143672e+03
1.693196e+03,8.120883e+03
1.696088e+03,8.089753e+03
1.698981e+03,8.054932e+03
1.701874e+03,8.083286e+03
1.704766e+03,8.078889e+03
1.707659e+03,8.046530e+03
1.710552e+03,8.027209e+03
1.713444e+03,7.994546e+03
1.716337e+03,7.988775e+03
1.719230e+03,8.021044e+03
1.722123e+03,7.961173e+03
1.725015e+03,7.975433e+03
1.727908e+03,7.944479e+03
1.730801e+03,7.980076e+03
1.733693e+03,7.936825e+03
1.736586e+03,7.908858e+03
1.739479e+03,7.888315e+03
1.742371e+03,7.876178e+03
1.745264e+03,7.863017e+03
1.748157e+03,7.823521e+03
1.751050e+03,7.855011e+03
1.753942e+03,7.835405e+03
1.756835e+03,7.814674e+03
1.759728e+03,7.726624e+03
1.762620e+03,7.766644e+03
1.765513e+03,7.750210e+03
1.768406e+03,7.734649e+03
1.771298e+03,7.719806e+03
1.774191e+03,7.718647e+03
1.777084e+03,7.670358e+03
1.779977e+03,7.675213e+03
1.782869e+03,7.679604e+03
1.785762e+03,7.640157e+03
1.788655e+03,7.639049e+03
1.791547e+03,7.592488e+03
1.794440e+03,7.575329e+03
1.797333e+03,7.599805e+03
1.800225e+03,7.576078e+03
1.803118e+03,7.562585e+03
1.806011e+03,7.556665e+03
1.808904e+03,7.515097e+03
1.811796e+03,7.516864e+03
1.814689e+03,7.494567e+03
1.817582e+03,7.475769e+03
1.820474e+03,7.440416e+03
1.823367e+03,7.451360e+03
1.826260e+03,7.415819e+03
1.829152e+03,7.469627e+03
1.832045e+03,7.436838e+03
1.834938e+03,7.387286e+03
1.837831e+03,7.386421e+03
1.840723e+03,7.384484e+03
1.843616e+03,7.332131e+03
1.846509e+03,7.319050e+03
1.849401e+03,7.331678e+03
1.852294e+03,7.284595e+03
1.855187e+03,7.291112e+03
1.858079e+03,7.272803e+03
1.860972e+03,7.274441e+03
1.863865e+03,7.228886e+03
1.866758e+03,7.228756e+03
1.869650e+03,7.180630e+03
1.872543e+03,7.205300e+03
1.875436e+03,7.203545e+03
1.878328e+03,7.185131e+03
1.881221e+03,7.164875e+03
1.884114e+03,7.120373e+03
1.887006e+03,7.114058e+03
1.889899e+03,7.095365e+03
1.892792e+03,7.078300e+03
1.895685e+03,7.068245e+03
1.898577e+03,7.059777e+03
1.901470e+03,7.046127e+03
1.904363e+03,7.024693e+03
1.907255e+03,7.028244e+03
1.910148e+03,7.005632e+03
1.913041e+03,6.991935e+03
1.915933e+03,6.939727e+03
1.918826e+03,6.943194e+03
1.921719e+03,6.935334e+03
1.924612e+03,6.901190e+03
1.927504e+03,6.905842e+03
1.930397e+03,6.913486e+03
1.933290e+03,6.870889e+03
1.936182e+03,6.880838e+03
1.939075e+03,6.809341e+03
1.941968e+03,6.834228e+03
1.944860e+03,6.819993e+03
1.947753e+03,6.799618e+03
1.950646e+03,6.747444e+03
1.953539e+03,6.787905e+03
1.956431e+03,6.762307e+03
1.959324e+03,6.751752e+03
1.962217e+03,6.720557e+03
1.965109e+03,6.709972e+03
1.968002e+03,6.716387e+03
1.970895e+03,6.710412e+03
1.973787e+03,6.663923e+03
1.976680e+03,6.628833e+03
1.979573e+03,6.634578e+03
1.982466e+03,6.634419e+03
1.985358e+03,6.603519e+03
1.988251e+03,6.598730e+03
1.991144e+03,6.581409e+03
1.994036e+03,6.578156e+03
1.996929e+03,6.558155e+03
1.999822e+03,6.556404e+03
2.002714e+03,6.494404e+03
2.005607e+03,6.499042e+03
2.008500e+03,6.482650e+03
2.011393e+03,6.451823e+03
2.014285e+03,6.473745e+03
2.017178e+03,6.447959e+03
2.020071e+03,6.433375e+03
2.022963e+03,6.420919e+03
2.025856e+03,6.381760e+03
2.028749e+03,6.363639e+03
2.031641e+03,6.390796e+03
2.034534e+03,6.390711e+03
2.037427e+03,6.327957e+03
2.040320e+03,6.297998e+03
2.043212e+03,6.270269e+03
2.046105e+03,6.276909e+03
2.048998e+03,6.256439e+03
2.051890e+03,6.239809e+03
2.054783e+03,6.238570e+03
2.057676e+03,6.187327e+03
2.060568e+03,6.165436e+03
2.063461e+03,6.184224e+03
2.066354e+03,6.196940e+03
2.069247e+03,6.166617e+03
2.072139e+03,6.125245e+03
2.075032e+03,6.115459e+03
2.077925e+03,6.082118e+03
2.080817e+03,6.109545e+03
2.083710e+03,6.051432e+03
2.086603e+03,6.048425e+03
2.089496e+03,6.036833e+03
2.092388e+03,6.004870e+03
2.095281e+03,6.026736e+03
2.098174e+03,6.015133e+03
2.101066e+03,6.001581e+03
2.103959e+03,5.961815e+03
2.106852e+03,5.957983e+03
2.109744e+03,5.983443e+03
2.112637e+03,5.930336e+03
2.115530e+03,5.893135e+03
2.118422e+03,5.868609e+03
2.121315e+03,5.894202e+03
2.124208e+03,5.899576e+03
2.127101e+03,5.853163e+03
2.129993e+03,5.835445e+03
2.132886e+03,5.830761e+03
2.135779e+03,5.801120e+03
2.138671e+03,5.785499e+03
2.141564e+03,5.777732e+03
2.144457e+03,5.782224e+03
2.147350e+03,5.735536e+03
2.150242e+03,5.742530e+03
2.153135e+03,5.739328e+03
2.156028e+03,5.676447e+03
2.158920e+03,5.662822e+03
2.161813e+03,5.653004e+03
2.164706e+03,5.677703e+03
2.167598e+03,5.636245e+03
2.170491e+03,5.678847e+03
2.173384e+03,5.641369e+03
2.176277e+03,5.593522e+03
2.179169e+03,5.611906e+03
2.182062e+03,5.583065e+03
2.184955e+03,5.552544e+03
2.187847e+03,5.547352e+03
2.190740e+03,5.538354e+03
2.193633e+03,5.511795e+03
2.196525e+03,5.505403e+03
2.199418e+03,5.516177e+03
2.202311e+03,5.487412e+03
2.205204e+03,5.489296e+03
2.208096e+03,5.472533e+03
2.210989e+03,5.416619e+03
2.213882e+03,5.390535e+03
2.216774e+03,5.422114e+03
2.219667e+03,5.426549e+03
2.222560e+03,5.383071e+03
2.225452e+03,5.330375e+03
2.228345e+03,5.323271e+03
2.231238e+03,5.367170e+03
2.234131e+03,5.323495e+03
2.237023e+03,5.337731e+03
2.239916e+03,5.289282e+03
2.242809e+03,5.272589e+03
2.245701e+03,5.259038e+03
2.248594e+03,5.245674e+03
2.251487e+03,5.270477e+03
2.254379e+03,5.261319e+03
2.257272e+03,5.169367e+03
2.260165e+03,5.202921e+03
2.263058e+03,5.181350e+03
2.265950e+03,5.182157e+03
2.268843e+03,5.144827e+03
2.271736e+03,5.124093e+03
2.274628e+03,5.143002e+03
2.277521e+03,5.129660e+03
2.280414e+03,5.099788e+03
2.283306e+03,5.116616e+03
2.286199e+03,5.078111e+03
2.289092e+03,5.061564e+03
2.291985e+03,5.055792e+03
2.294877e+03,5.042151e+03
2.297770e+03,5.039023e+03
2.300663e+03,5.021189e+03
2.303555e+03,5.000236e+03
2.306448e+03,4.960575e+03
2.309341e+03,4.982336e+03
2.312233e+03,4.974456e+03
2.315126e+03,4.959100e+03
2.318019e+03,4.917553e+03
2.320912e+03,4.938318e+03
2.323804e+03,4.936419e+03
2.326697e+03,4.934085e+03
2.329590e+03,4.888739e+03
2.332482e+03,4.894456e+03
2.335375e+03,4.865378e+03
2.338268e+03,4.858574e+03
2.341160e+03,4.820292e+03
2.344053e+03,4.842252e+03
2.346946e+03,4.795690e+03
2.349839e+03,4.798607e+03
2.352731e+03,4.794655e+03
2.355624e+03,4.766327e+03
2.358517e+03,4.791654e+03
2.361409e+03,4.765269e+03
2.364302e+03,4.747573e+03
2.367195e+03,4.715714e+03
2.370087e+03,4.719693e+03
2.372980e+03,4.693425e+03
2.375873e+03,4.677404e+03
2.378766e+03,4.682989e+03
2.381658e+03,4.624544e+03
2.384551e+03,4.658118e+03
2.387444e+03,4.627420e+03
2.390336e+03,4.623612e+03
2.393229e+03,4.619424e+03
2.396122e+03,4.584798e+03
2.399014e+03,4.573489e+03
2.401907e+03,4.568538e+03
2.404800e+03,4.598060e+03
2.407693e+03,4.576216e+03
2.410585e+03,4.536734e+03
2.413478e+03,4.546776e+03
2.416371e+03,4.513272e+03
2.419263e+03,4.501347e+03
2.422156e+03,4.506893e+03
2.425049e+03,4.497300e+03
2.427941e+03,4.477210e+03
2.430834e+03,4.450040e+03
2.433727e+03,4.448685e+03
2.436620e+03,4.456972e+03
2.439512e+03,4.422726e+03
2.442405e+03,4.421188e+03
2.445298e+03,4.425313e+03
2.448190e+03,4.423779e+03
2.451083e+03,4.407486e+03
2.453976e+03,4.392344e+03
2.456868e+03,4.373208e+03
2.459761e+03,4.370267e+03
2.462654e+03,4.347342e+03
2.465547e+03,4.323280e+03
2.468439e+03,4.351902e+03
2.471332e+03,4.302012e+03
2.474225e+03,4.306890e+03
2.477117e+03,4.319869e+03
2.480010e+03,4.319065e+03
2.482903e+03,4.318285e+03
2.485795e+03,4.288448e+03
2.488688e+03,4.235038e+03
2.491581e+03,4.269598e+03
2.494474e+03,4.239376e+03
2.497366e+03,4.226757e+03
2.500259e+03,4.198257e+03
2.503152e+03,4.195176e+03
2.506044e+03,4.217503e+03
2.508937e+03,4.205789e+03
2.511830e+03,4.174260e+03
2.514722e+03,4.168119e+03
2.517615e+03,4.160131e+03
2.520508e+03,4.153529e+03
2.523401e+03,4.175334e+03
2.526293e+03,4.148586e+03
2.529186e+03,4.144231e+03
2.532079e+03,4.120824e+03
2.534971e+03,4.144911e+03
2.537864e+03,4.120823e+03
2.540757e+03,4.095611e+03
2.543649e+03,4.082763e+03
2.546542e+03,4.098256e+03
2.549435e+03,4.083554e+03
2.552328e+03,4.074849e+03
2.555220e+03,4.041294e+03
2.558113e+03,4.045375e+03
2.561006e+03,4.052325e+03
2.563898e+03,4.019647e+03
2.566791e+03,4.007086e+03
2.569684e+03,4.029914e+03
2.572576e+03,4.001025e+03
2.575469e+03,3.980035e+03
2.578362e+03,3.988074e+03
2.581255e+03,3.972722e+03
2.584147e+03,3.967255e+03
2.587040e+03,3.949527e+03
2.589933e+03,3.963299e+03
2.592825e+03,3.925722e+03
2.595718e+03,3.941634e+03
2.598611e+03,3.893806e+03
2.601503e+03,3.895027e+03
2.604396e+03,3.894536e+03
2.607289e+03,3.891103e+03
2.610182e+03,3.866503e+03
2.613074e+03,3.868961e+03
2.615967e+03,3.874275e+03
2.618860e+03,3.851635e+03
2.621752e+03,3.856887e+03
2.624645e+03,3.857067e+03
2.627538e+03,3.850971e+03
2.630430e+03,3.830687e+03
2.633323e+03,3.802052e+03
2.636216e+03,3.819446e+03
2.639109e+03,3.835520e+03
2.642001e+03,3.803103e+03
2.644894e+03,3.798307e+03
2.647787e+03,3.788213e+03
2.650679e+03,3.799373e+03
2.653572e+03,3.743623e+03
2.656465e+03,3.784923e+03
2.659357e+03,3.772783e+03
2.662250e+03,3.707749e+03
2.665143e+03,3.703322e+03
2.668036e+03,3.724949e+03
2.670928e+03,3.755912e+03
2.673821e+03,3.689569e+03
2.676714e+03,3.675691e+03
2.679606e+03,3.703403e+03
2.682499e+03,3.707504e+03
2.685392e+03,3.670382e+03
2.688284e+03,3.653978e+03
2.691177e+03,3.672512e+03
2.694070e+03,3.616070e+03
2.696963e+03,3.630046e+03
2.699855e+03,3.640539e+03
2.702748e+03,3.637875e+03
2.705641e+03,3.636689e+03
2.708533e+03,3.637144e+03
2.711426e+03,3.602110e+03
2.714319e+03,3.584755e+03
2.717211e+03,3.569780e+03
2.720104e+03,3.615181e+03
2.722997e+03,3.582773e+03
2.725890e+03,3.572720e+03
2.728782e+03,3.573862e+03
2.731675e+03,3.572301e+03
2.734568e+03,3.596240e+03
2.737460e+03,3.538449e+03
2.740353e+03,3.527608e+03
2.743246e+03,3.543197e+03
2.746138e+03,3.540508e+03
2.749031e+03,3.530813e+03
2.751924e+03,3.525178e+03
2.754817e+03,3.487406e+03
2.757709e+03,3.486197e+03
2.760602e+03,3.515292e+03
2.763495e+03,3.485897e+03
2.766387e+03,3.521964e+03
2.769280e+03,3.451021e+03
2.772173e+03,3.513792e+03
2.775065e+03,3.471695e+03
2.777958e+03,3.457090e+03
2.780851e+03,3.488567e+03
2.783744e+03,3.386054e+03
2.786636e+03,3.437576e+03
2.789529e+03,3.412381e+03
2.792422e+03,3.412975e+03
2.795314e+03,3.392332e+03
2.798207e+03,3.397881e+03
2.801100e+03,3.445903e+03
2.803992e+03,3.389866e+03
2.806885e+03,3.366402e+03
2.809778e+03,3.391920e+03
2.812671e+03,3.385052e+03
2.815563e+03,3.381890e+03
2.818456e+03,3.341252e+03
2.821349e+03,3.351953e+03
2.824241e+03,3.320187e+03
2.827134e+03,3.402846e+03
2.830027e+03,3.346474e+03
2.832919e+03,3.321723e+03
2.835812e+03,3.390162e+03
2.838705e+03,3.333773e+03
2.841598e+03,3.324448e+03
2.844490e+03,3.338579e+03
2.847383e+03,3.309705e+03
2.850276e+03,3.301614e+03
2.853168e+03,3.295171e+03
2.856061e+03,3.307799e+03
2.858954e+03,3.269868e+03
2.861846e+03,3.242955e+03
2.864739e+03,3.300193e+03
2.867632e+03,3.280157e+03
2.870525e+03,3.265959e+03
2.873417e+03,3.283709e+03
2.876310e+03,3.244303e+03
2.879203e+03,3.235553e+03
2.882095e+03,3.282753e+03
2.884988e+03,3.266632e+03
2.887881e+03,3.253282e+03
2.890773e+03,3.275577e+03
2.893666e+03,3.217214e+03
2.896559e+03,3.191932e+03
2.899452e+03,3.219741e+03
2.902344e+03,3.213723e+03
2.905237e+03,3.245843e+03
2.908130e+03,3.169834e+03
2.911022e+03,3.209063e+03
2.913915e+03,3.153212e+03
2.916808e+03,3.166569e+03
2.919700e+03,3.221879e+03
2.922593e+03,3.151956e+03
2.925486e+03,3.186057e+03
2.928379e+03,3.211820e+03
2.931271e+03,3.198970e+03
2.934164e+03,3.140160e+03
2.937057e+03,3.079749e+03
2.939949e+03,3.139289e+03
2.942842e+03,3.135970e+03
2.945735e+03,3.123221e+03
2.948627e+03,3.153292e+03
2.951520e+03,3.146877e+03
2.954413e+03,3.099930e+03
2.957306e+03,3.110073e+03
2.960198e+03,3.117840e+03
2.963091e+03,3.107584e+03
2.965984e+03,3.113523e+03
2.968876e+03,3.100891e+03
2.971769e+03,3.105578e+03
2.974662e+03,3.112199e+03
2.977554e+03,3.065740e+03
2.980447e+03,3.120315e+03
2.983340e+03,3.079961e+03
2.986233e+03,3.042808e+03
2.989125e+03,3.045635e+03
2.992018e+03,3.061608e+03
2.994911e+03,3.041544e+03
2.997803e+03,2.994407e+03
3.000696e+03,3.036583e+03
3.003589e+03,2.970082e+03
3.006481e+03,3.020452e+03
3.009374e+03,3.011258e+03
3.012267e+03,3.054356e+03
3.015160e+03,3.009842e+03
3.018052e+03,2.997054e+03
3.020945e+03,3.015300e+03
3.023838e+03,2.976451e+03
3.026730e+03,2.990584e+03
3.029623e+03,2.985269e+03
3.032516e+03,2.977027e+03
3.035408e+03,2.905421e+03
3.038301e+03,2.982860e+03
3.041194e+03,2.982228e+03
3.044087e+03,2.905284e+03
3.046979e+03,2.982698e+03
3.049872e+03,2.940244e+03
3.052765e+03,2.952964e+03
3.055657e+03,2.950145e+03
3.058550e+03,2.985911e+03
3.061443e+03,2.936999e+03
3.064335e+03,2.935447e+03
3.067228e+03,2.925267e+03
3.070121e+03,2.933825e+03
3.073014e+03,2.921899e+03
3.075906e+03,2.922803e+03
3.078799e+03,2.989259e+03
3.081692e+03,2.923318e+03
3.084584e+03,2.888514e+03
3.087477e+03,2.905450e+03
3.090370e+03,2.932461e+03
3.093262e+03,2.897167e+03
3.096155e+03,2.888968e+03
3.099048e+03,2.899488e+03
3.101941e+03,2.930081e+03
3.104833e+03,2.926845e+03
3.107726e+03,2.877484e+03
3.110619e+03,2.858914e+03
3.113511e+03,2.905133e+03
3.116404e+03,2.916012e+03
3.119297e+03,2.884435e+03
3.122189e+03,2.894008e+03
3.125082e+03,2.807342e+03
3.127975e+03,2.874621e+03
3.130868e+03,2.872787e+03
3.133760e+03,2.908096e+03
3.136653e+03,2.855937e+03
3.139546e+03,2.872577e+03
3.142438e+03,2.857886e+03
3.145331e+03,2.864747e+03
3.148224e+03,2.884956e+03
3.151116e+03,2.849140e+03
3.154009e+03,2.873495e+03
3.156902e+03,2.854260e+03
3.159795e+03,2.797176e+03
3.162687e+03,2.857367e+03
3.165580e+03,2.819798e+03
3.168473e+03,2.892397e+03
3.171365e+03,2.924627e+03
3.174258e+03,2.925137e+03
3.177151e+03,2.836480e+03
3.180043e+03,2.835145e+03
3.182936e+03,2.940320e+03
3.185829e+03,2.783969e+03
3.188722e+03,2.794777e+03
3.191614e+03,2.918322e+03
3.194507e+03,2.874569e+03
3.197400e+03,2.761922e+03
3.200292e+03,2.925594e+03
3.203185e+03,0.000000e+00
3.206078e+03,0.000000e+00
3.208970e+03,0.000000e+00
3.211863e+03,0.000000e+00
3.214756e+03,0.000000e+00
3.217649e+03,0.000000e+00
3.220541e+03,0.000000e+00
3.223434e+03,0.000000e+00
3.226327e+03,0.000000e+00
3.229219e+03,0.000000e+00
3.232112e+03,0.000000e+00
3.235005e+03,0.000000e+00
3.237897e+03,0.000000e+00
3.240790e+03,0.000000e+00
3.243683e+03,0.000000e+00
3.246576e+03,0.000000e+00
3.249468e+03,0.000000e+00
3.252361e+03,0.000000e+00
3.255254e+03,0.000000e+00
3.258146e+03,0.000000e+00
3.261039e+03,0.000000e+00
3.263932e+03,0.000000e+00
3.266824e+03,0.000000e+00
3.269717e+03,0.000000e+00
3.272610e+03,0.000000e+00
3.275503e+03,0.000000e+00
3.278395e+03,0.000000e+00
3.281288e+03,0.000000e+00
3.284181e+03,0.000000e+00
3.287073e+03,0.000000e+00
3.289966e+03,0.000000e+00
3.292859e+03,0.000000e+00
3.295751e+03,0.000000e+00
3.298644e+03,0.000000e+00
3.301537e+03,0.000000e+00
3.304430e+03,0.000000e+00
3.307322e+03,0.000000e+00
3.310215e+03,0.000000e+00
3.313108e+03,0.000000e+00
3.316000e+03,0.000000e+00
3.318893e+03,0.000000e+00
3.321786e+03,0.000000e+00
3.324678e+03,0.000000e+00
3.327571e+03,0.000000e+00
3.330464e+03,0.000000e+00
3.333357e+03,0.000000e+00
3.336249e+03,0.000000e+00
3.339142e+03,0.000000e+00
3.342035e+03,0.000000e+00
3.344927e+03,0.000000e+00
3.347820e+03,0.000000e+00
3.350713e+03,0.000000e+00
3.353605e+03,0.000000e+00
3.356498e+03,0.000000e+00
3.359391e+03,0.000000e+00
3.362284e+03,0.000000e+00
3.365176e+03,0.000000e+00
3.368069e+03,0.000000e+00
3.370962e+03,0.000000e+00
3.373854e+03,0.000000e+00
3.376747e+03,0.000000e+00
3.379640e+03,0.000000e+00
3.382532e+03,0.000000e+00
3.385425e+03,0.000000e+00
3.388318e+03,0.000000e+00
3.391211e+03,0.000000e+00
3.394103e+03,0.000000e+00
3.396996e+03,0.000000e+00
3.399889e+03,0.000000e+00
3.402781e+03,0.000000e+00
3.405674e+03,0.000000e+00
3.408567e+03,0.000000e+00
3.411459e+03,0.000000e+00
3.414352e+03,0.000000e+00
3.417245e+03,0.000000e+00
3.420138e+03,0.000000e+00
3.423030e+03,0.000000e+00
3.425923e+03,0.000000e+00
3.428816e+03,0.000000e+00
3.431708e+03,0.000000e+00
3.434601e+03,0.000000e+00
3.437494e+03,0.000000e+00
3.440386e+03,0.000000e+00
3.443279e+03,0.000000e+00
3.446172e+03,0.000000e+00
3.449065e+03,0.000000e+00
3.451957e+03,0.000000e+00
3.454850e+03,0.000000e+00
3.457743e+03,0.000000e+00
3.460635e+03,0.000000e+00
3.463528e+03,0.000000e+00
3.466421e+03,0.000000e+00
3.469313e+03,0.000000e+00
3.472206e+03,0.000000e+00
3.475099e+03,0.000000e+00
3.477992e+03,0.000000e+00
3.480884e+03,0.000000e+00
3.483777e+03,0.000000e+00
3.486670e+03,0.000000e+00
3.489563e+03,0.000000e+00
3.492455e+03,0.000000e+00
3.495348e+03,0.000000e+00
3.498240e+03,0.000000e+00
3.500169e+03,0.000000e+00