File: RAMAN_data/13042023_r2/black fibre2.CSV
9.931763e+01,0.000000e+00
1.022103e+02,0.000000e+00
1.051030e+02,0.000000e+00
1.079957e+02,0.000000e+00
1.108884e+02,0.000000e+00
1.137811e+02,0.000000e+00
1.166738e+02,0.000000e+00
1.195665e+02,0.000000e+00
1.224592e+02,0.000000e+00
1.253519e+02,0.000000e+00
1.282446e+02,0.000000e+00
1.311373e+02,0.000000e+00
1.340300e+02,0.000000e+00
1.369227e+02,0.000000e+00
1.398154e+02,0.000000e+00
1.427081e+02,0.000000e+00
1.456008e+02,0.000000e+00
1.484935e+02,0.000000e+00
1.513862e+02,0.000000e+00
1.542789e+02,0.000000e+00
1.571716e+02,0.000000e+00
1.600643e+02,0.000000e+00
1.629570e+02,0.000000e+00
1.658497e+02,0.000000e+00
1.687424e+02,0.000000e+00
1.716351e+02,0.000000e+00
1.745278e+02,0.000000e+00
1.774205e+02,0.000000e+00
1.803132e+02,0.000000e+00
1.832059e+02,0.000000e+00
1.860986e+02,0.000000e+00
1.889913e+02,0.000000e+00
1.918840e+02,0.000000e+00
1.947767e+02,0.000000e+00
1.976694e+02,0.000000e+00
2.005621e+02,8.421574e+03
2.034548e+02,8.414605e+03
2.063475e+02,8.388841e+03
2.092402e+02,8.401066e+03
2.121329e+02,8.357644e+03
2.150256e+02,8.371696e+03
2.179183e+02,8.349549e+03
2.208110e+02,8.340553e+03
2.237037e+02,8.338502e+03
2.265964e+02,8.275332e+03
2.294892e+02,8.273304e+03
2.323819e+02,8.287616e+03
2.352746e+02,8.282467e+03
2.381673e+02,8.258160e+03
2.410600e+02,8.258309e+03
2.439527e+02,8.196685e+03
2.468454e+02,8.197013e+03
2.497381e+02,8.220037e+03
2.526308e+02,8.200092e+03
2.555235e+02,8.166498e+03
2.584161e+02,8.139410e+03
2.613088e+02,8.141036e+03
2.642015e+02,8.132158e+03
2.670942e+02,8.095864e+03
2.699869e+02,8.116809e+03
2.728796e+02,8.080249e+03
2.757723e+02,8.071329e+03
2.786650e+02,8.053814e+03
2.815577e+02,8.042975e+03
2.844504e+02,8.032816e+03
2.873431e+02,7.999981e+03
2.902358e+02,7.989864e+03
2.931285e+02,7.945031e+03
2.960212e+02,7.963024e+03
2.989139e+02,7.961896e+03
3.018066e+02,7.931776e+03
3.046993e+02,7.891545e+03
3.075920e+02,7.887436e+03
3.104847e+02,7.866932e+03
3.133774e+02,7.854075e+03
3.162701e+02,7.855824e+03
3.191628e+02,7.847599e+03
3.220555e+02,7.829720e+03
3.249482e+02,7.807716e+03
3.278409e+02,7.786110e+03
3.307336e+02,7.762779e+03
3.336263e+02,7.762872e+03
3.365190e+02,7.717113e+03
3.394117e+02,7.710101e+03
3.423044e+02,7.686195e+03
3.451971e+02,7.678064e+03
3.480898e+02,7.672690e+03
3.509825e+02,7.642073e+03
3.538752e+02,7.625160e+03
3.567680e+02,7.610946e+03
3.596607e+02,7.615573e+03
3.625534e+02,7.618716e+03
3.654461e+02,7.562563e+03
3.683388e+02,7.544771e+03
3.712315e+02,7.567848e+03
3.741242e+02,7.528193e+03
3.770169e+02,7.518428e+03
3.799096e+02,7.497189e+03
3.828023e+02,7.466516e+03
3.856950e+02,7.458871e+03
3.885877e+02,7.437107e+03
3.914804e+02,7.441702e+03
3.943731e+02,7.426577e+03
3.972658e+02,7.389031e+03
4.001585e+02,7.378825e+03
4.030512e+02,7.351595e+03
4.059439e+02,7.355500e+03
4.088366e+02,7.334411e+03
4.117293e+02,7.313951e+03
4.146220e+02,7.297353e+03
4.175147e+02,7.255365e+03
4.204074e+02,7.247358e+03
4.233001e+02,7.235731e+03
4.261928e+02,7.221283e+03
4.290855e+02,7.219512e+03
4.319782e+02,7.205775e+03
4.348709e+02,7.205057e+03
4.377636e+02,7.192492e+03
4.406563e+02,7.163337e+03
4.435490e+02,7.118002e+03
4.464417e+02,7.108254e+03
4.493344e+02,7.119880e+03
4.522271e+02,7.104668e+03
4.551198e+02,7.107361e+03
4.580125e+02,7.056883e+03
4.609052e+02,7.038728e+03
4.637979e+02,7.033829e+03
4.666906e+02,7.032052e+03
4.695833e+02,7.025926e+03
4.724760e+02,7.003280e+03
4.753687e+02,6.966197e+03
4.782614e+02,6.976192e+03
4.811541e+02,6.969962e+03
4.840468e+02,6.958298e+03
4.869395e+02,6.969452e+03
4.898322e+02,6.928586e+03
4.927249e+02,6.902200e+03
4.956176e+02,6.877113e+03
4.985103e+02,6.909604e+03
5.014030e+02,6.866277e+03
5.042957e+02,6.837239e+03
5.071884e+02,6.832233e+03
5.100811e+02,6.812248e+03
5.129738e+02,6.789116e+03
5.158665e+02,6.810463e+03
5.187592e+02,6.816203e+03
5.216519e+02,6.776966e+03
5.245446e+02,6.741976e+03
5.274373e+02,6.748727e+03
5.303300e+02,6.743551e+03
5.332227e+02,6.706091e+03
5.361154e+02,6.656766e+03
5.390081e+02,6.674625e+03
5.419008e+02,6.654048e+03
5.447935e+02,6.656762e+03
5.476862e+02,6.624870e+03
5.505789e+02,6.631783e+03
5.534716e+02,6.611533e+03
5.563643e+02,6.580706e+03
5.592570e+02,6.598603e+03
5.621497e+02,6.584099e+03
5.650424e+02,6.563037e+03
5.679351e+02,6.538350e+03
5.708278e+02,6.529420e+03
5.737205e+02,6.539317e+03
5.766132e+02,6.576706e+03
5.795059e+02,6.509713e+03
5.823986e+02,6.475395e+03
5.852913e+02,6.481823e+03
5.881840e+02,6.483090e+03
5.910767e+02,6.458009e+03
5.939694e+02,6.473196e+03
5.968621e+02,6.456260e+03
5.997548e+02,6.437865e+03
6.026475e+02,6.436272e+03
6.055402e+02,6.430823e+03
6.084329e+02,6.413298e+03
6.113256e+02,6.368323e+03
6.142183e+02,6.374003e+03
6.171110e+02,6.358233e+03
6.200037e+02,6.357897e+03
6.228964e+02,6.332365e+03
6.257891e+02,6.348947e+03
6.286818e+02,6.321119e+03
6.315745e+02,6.320769e+03
6.344672e+02,6.293331e+03
6.373599e+02,6.288895e+03
6.402526e+02,6.303923e+03
6.431453e+02,6.281054e+03
6.460380e+02,6.275073e+03
6.489307e+02,6.244225e+03
6.518234e+02,6.248342e+03
6.547161e+02,6.220118e+03
6.576088e+02,6.206084e+03
6.605015e+02,6.187225e+03
6.633942e+02,6.187720e+03
6.662869e+02,6.201413e+03
6.691796e+02,6.191101e+03
6.720723e+02,6.177536e+03
6.749650e+02,6.126541e+03
6.778577e+02,6.135008e+03
6.807504e+02,6.125618e+03
6.836431e+02,6.107511e+03
6.865358e+02,6.100504e+03
6.894285e+02,6.072290e+03
6.923212e+02,6.076616e+03
6.952139e+02,6.063036e+03
6.981066e+02,6.061447e+03
7.009993e+02,6.069311e+03
7.038920e+02,6.055223e+03
7.067847e+02,6.038635e+03
7.096774e+02,6.035742e+03
7.125701e+02,6.012208e+03
7.154628e+02,6.018036e+03
7.183555e+02,5.998521e+03
7.212482e+02,5.981557e+03
7.241409e+02,5.976666e+03
7.270336e+02,5.956792e+03
7.299263e+02,5.949706e+03
7.328190e+02,5.954254e+03
7.357117e+02,5.952707e+03
7.386044e+02,5.929716e+03
7.414971e+02,5.936849e+03
7.443898e+02,5.902079e+03
7.472825e+02,5.904320e+03
7.501752e+02,5.882072e+03
7.530679e+02,5.845916e+03
7.559606e+02,5.859862e+03
7.588533e+02,5.851689e+03
7.617460e+02,5.835149e+03
7.646387e+02,5.816358e+03
7.675314e+02,5.840216e+03
7.704241e+02,5.805693e+03
7.733168e+02,5.799367e+03
7.762095e+02,5.815137e+03
7.791022e+02,5.813898e+03
7.819949e+02,5.762089e+03
7.848876e+02,5.771245e+03
7.877803e+02,5.772536e+03
7.906730e+02,5.755632e+03
7.935657e+02,5.757650e+03
7.964584e+02,5.744201e+03
7.993511e+02,5.700272e+03
8.022438e+02,5.706498e+03
8.051365e+02,5.708541e+03
8.080292e+02,5.702713e+03
8.109219e+02,5.697388e+03
8.138146e+02,5.662196e+03
8.167073e+02,5.680223e+03
8.196000e+02,5.659253e+03
8.224927e+02,5.652848e+03
8.253854e+02,5.653916e+03
8.282781e+02,5.644568e+03
8.311708e+02,5.612444e+03
8.340635e+02,5.611308e+03
8.369562e+02,5.607681e+03
8.398489e+02,5.608417e+03
8.427416e+02,5.614867e+03
8.456343e+02,5.568157e+03
8.485270e+02,5.562007e+03
8.514197e+02,5.547893e+03
8.543124e+02,5.556399e+03
8.572051e+02,5.547046e+03
8.600978e+02,5.534874e+03
8.629905e+02,5.512222e+03
8.658832e+02,5.526209e+03
8.687759e+02,5.516875e+03
8.716686e+02,5.512986e+03
8.745613e+02,5.479376e+03
8.774540e+02,5.484299e+03
8.803467e+02,5.470081e+03
8.832394e+02,5.460547e+03
8.861321e+02,5.484134e+03
8.890248e+02,5.472858e+03
8.919175e+02,5.438168e+03
8.948102e+02,5.438200e+03
8.977029e+02,5.426097e+03
9.005956e+02,5.410190e+03
9.034883e+02,5.412825e+03
9.063810e+02,5.399081e+03
9.092737e+02,5.387970e+03
9.121664e+02,5.376524e+03
9.150591e+02,5.358573e+03
9.179518e+02,5.368617e+03
9.208445e+02,5.347093e+03
9.237372e+02,5.331490e+03
9.266299e+02,5.309027e+03
9.295226e+02,5.308441e+03
9.324153e+02,5.316196e+03
9.353080e+02,5.297756e+03
9.382007e+02,5.310436e+03
9.410934e+02,5.264354e+03
9.439861e+02,5.279166e+03
9.468788e+02,5.274555e+03
9.497715e+02,5.273126e+03
9.526642e+02,5.220856e+03
9.555569e+02,5.216809e+03
9.584496e+02,5.241503e+03
9.613423e+02,5.223434e+03
9.642350e+02,5.238644e+03
9.671277e+02,5.197360e+03
9.700204e+02,5.180477e+03
9.729131e+02,5.165272e+03
9.758058e+02,5.181546e+03
9.786985e+02,5.171241e+03
9.815912e+02,5.158689e+03
9.844839e+02,5.127795e+03
9.873766e+02,5.123802e+03
9.902693e+02,5.119591e+03
9.931620e+02,5.139430e+03
9.960547e+02,5.114694e+03
9.989474e+02,5.133221e+03
1.001840e+03,5.093542e+03
1.004733e+03,5.069631e+03
1.007626e+03,5.093988e+03
1.010518e+03,5.061186e+03
1.013411e+03,5.066131e+03
1.016304e+03,5.055978e+03
1.019196e+03,5.038528e+03
1.022089e+03,5.048458e+03
1.024982e+03,5.037769e+03
1.027875e+03,5.012174e+03
1.030767e+03,5.006067e+03
1.033660e+03,5.012056e+03
1.036552e+03,5.004119e+03
1.039445e+03,5.007110e+03
1.042338e+03,4.993192e+03
1.045231e+03,4.990630e+03
1.048123e+03,4.955958e+03
1.051016e+03,4.973276e+03
1.053909e+03,4.964015e+03
1.056802e+03,4.960998e+03
1.059694e+03,4.942633e+03
1.062587e+03,4.942963e+03
1.065479e+03,4.913251e+03
1.068372e+03,4.927722e+03
1.071265e+03,4.927299e+03
1.074158e+03,4.919982e+03
1.077050e+03,4.873108e+03
1.079943e+03,4.888541e+03
1.082836e+03,4.893187e+03
1.085729e+03,4.893797e+03
1.088621e+03,4.910154e+03
1.091514e+03,4.887514e+03
1.094406e+03,4.868550e+03
1.097299e+03,4.878745e+03
1.100192e+03,4.852696e+03
1.103085e+03,4.852332e+03
1.105977e+03,4.835526e+03
1.108870e+03,4.846178e+03
1.111763e+03,4.843378e+03
1.114656e+03,4.820333e+03
1.117548e+03,4.845211e+03
1.120441e+03,4.836005e+03
1.123334e+03,4.804818e+03
1.126226e+03,4.805327e+03
1.129119e+03,4.782024e+03
1.132012e+03,4.780108e+03
1.134904e+03,4.811007e+03
1.137797e+03,4.748850e+03
1.140690e+03,4.762760e+03
1.143583e+03,4.761862e+03
1.146475e+03,4.760353e+03
1.149368e+03,4.754000e+03
1.152261e+03,4.765088e+03
1.155153e+03,4.719567e+03
1.158046e+03,4.708720e+03
1.160939e+03,4.709552e+03
1.163831e+03,4.719471e+03
1.166724e+03,4.691193e+03
1.169617e+03,4.675428e+03
1.172510e+03,4.642322e+03
1.175402e+03,4.639787e+03
1.178295e+03,4.660700e+03
1.181188e+03,4.655271e+03
1.184080e+03,4.624963e+03
1.186973e+03,4.622076e+03
1.189866e+03,4.615052e+03
1.192758e+03,4.624483e+03
1.195651e+03,4.627769e+03
1.198544e+03,4.614244e+03
1.201437e+03,4.592472e+03
1.204329e+03,4.569389e+03
1.207222e+03,4.570752e+03
1.210115e+03,4.584144e+03
1.213007e+03,4.570206e+03
1.215900e+03,4.551835e+03
1.218793e+03,4.537112e+03
1.221685e+03,4.560693e+03
1.224578e+03,4.551199e+03
1.227471e+03,4.540442e+03
1.230364e+03,4.520339e+03
1.233256e+03,4.495560e+03
1.236149e+03,4.491250e+03
1.239042e+03,4.486171e+03
1.241934e+03,4.518570e+03
1.244827e+03,4.509018e+03
1.247720e+03,4.458810e+03
1.250612e+03,4.457275e+03
1.253505e+03,4.460413e+03
1.256398e+03,4.460577e+03
1.259291e+03,4.457648e+03
1.262183e+03,4.444588e+03
1.265076e+03,4.441647e+03
1.267969e+03,4.433095e+03
1.270861e+03,4.471732e+03
1.273754e+03,4.454674e+03
1.276647e+03,4.434162e+03
1.279539e+03,4.413950e+03
1.282432e+03,4.411359e+03
1.285325e+03,4.423155e+03
1.288218e+03,4.403962e+03
1.291110e+03,4.385447e+03
1.294003e+03,4.381463e+03
1.296896e+03,4.359198e+03
1.299788e+03,4.353973e+03
1.302681e+03,4.360619e+03
1.305574e+03,4.340225e+03
1.308466e+03,4.328126e+03
1.311359e+03,4.328325e+03
1.314252e+03,4.316964e+03
1.317145e+03,4.311177e+03
1.320037e+03,4.327700e+03
1.322930e+03,4.296893e+03
1.325823e+03,4.293536e+03
1.328715e+03,4.289231e+03
1.331608e+03,4.281418e+03
1.334501e+03,4.298500e+03
1.337393e+03,4.294619e+03
1.340286e+03,4.290545e+03
1.343179e+03,4.272615e+03
1.346072e+03,4.266920e+03
1.348964e+03,4.255666e+03
1.351857e+03,4.276055e+03
1.354750e+03,4.251822e+03
1.357642e+03,4.228064e+03
1.360535e+03,4.232796e+03
1.363428e+03,4.216214e+03
1.366320e+03,4.227491e+03
1.369213e+03,4.193493e+03
1.372106e+03,4.209655e+03
1.374999e+03,4.189254e+03
1.377891e+03,4.181808e+03
1.380784e+03,4.181861e+03
1.383677e+03,4.167258e+03
1.386569e+03,4.150181e+03
1.389462e+03,4.156369e+03
1.392355e+03,4.131985e+03
1.395247e+03,4.117351e+03
1.398140e+03,4.129822e+03
1.401033e+03,4.112430e+03
1.403926e+03,4.113602e+03
1.406818e+03,4.084839e+03
1.409711e+03,4.120593e+03
1.412604e+03,4.107389e+03
1.415496e+03,4.081400e+03
1.418389e+03,4.090885e+03
1.421282e+03,4.068500e+03
1.424174e+03,4.045728e+03
1.427067e+03,4.062639e+03
1.429960e+03,4.055793e+03
1.432853e+03,4.059056e+03
1.435745e+03,4.048106e+03
1.438638e+03,4.024414e+03
1.441531e+03,4.025145e+03
1.444423e+03,4.014767e+03
1.447316e+03,4.002062e+03
1.450209e+03,3.991728e+03
1.453101e+03,3.976980e+03
1.455994e+03,3.980786e+03
1.458887e+03,3.980624e+03
1.461780e+03,3.986941e+03
1.464672e+03,3.961032e+03
1.467565e+03,3.931311e+03
1.470458e+03,3.933958e+03
1.473350e+03,3.930211e+03
1.476243e+03,3.925218e+03
1.479136e+03,3.922859e+03
1.482028e+03,3.910740e+03
1.484921e+03,3.927886e+03
1.487814e+03,3.912051e+03
1.490707e+03,3.910163e+03
1.493599e+03,3.896489e+03
1.496492e+03,3.873378e+03
1.499385e+03,3.881784e+03
1.502277e+03,3.875681e+03
1.505170e+03,3.874490e+03
1.508063e+03,3.871101e+03
1.510955e+03,3.862047e+03
1.513848e+03,3.853509e+03
1.516741e+03,3.846054e+03
1.519634e+03,3.846053e+03
1.522526e+03,3.837721e+03
1.525419e+03,3.819226e+03
1.528312e+03,3.837290e+03
1.531204e+03,3.803988e+03
1.534097e+03,3.800659e+03
1.536990e+03,3.792232e+03
1.539882e+03,3.803285e+03
1.542775e+03,3.797986e+03
1.545668e+03,3.773052e+03
1.548561e+03,3.770348e+03
1.551453e+03,3.787324e+03
1.554346e+03,3.788116e+03
1.557239e+03,3.777531e+03
1.560131e+03,3.775090e+03
1.563024e+03,3.756650e+03
1.565917e+03,3.746531e+03
1.568809e+03,3.762475e+03
1.571702e+03,3.750862e+03
1.574595e+03,3.723417e+03
1.577488e+03,3.733692e+03
1.580380e+03,3.738067e+03
1.583273e+03,3.749857e+03
1.586166e+03,3.732835e+03
1.589058e+03,3.713680e+03
1.591951e+03,3.727949e+03
1.594844e+03,3.711402e+03
1.597736e+03,3.701666e+03
1.600629e+03,3.698027e+03
1.603522e+03,3.678909e+03
1.606415e+03,3.671432e+03
1.609307e+03,3.664012e+03
1.612200e+03,3.640545e+03
1.615093e+03,3.630613e+03
1.617985e+03,3.642508e+03
1.620878e+03,3.622166e+03
1.623771e+03,3.604993e+03
1.626663e+03,3.605072e+03
1.629556e+03,3.603135e+03
1.632449e+03,3.588684e+03
1.635342e+03,3.606748e+03
1.638234e+03,3.560598e+03
1.641127e+03,3.566469e+03
1.644020e+03,3.561668e+03
1.646912e+03,3.549601e+03
1.649805e+03,3.542791e+03
1.652698e+03,3.566755e+03
1.655590e+03,3.525925e+03
1.658483e+03,3.505805e+03
1.661376e+03,3.508543e+03
1.664269e+03,3.508829e+03
1.667161e+03,3.487326e+03
1.670054e+03,3.498641e+03
1.672947e+03,3.491179e+03
1.675839e+03,3.454040e+03
1.678732e+03,3.471848e+03
1.681625e+03,3.461586e+03
1.684517e+03,3.462724e+03
1.687410e+03,3.444720e+03
1.690303e+03,3.444206e+03
1.693196e+03,3.433365e+03
1.696088e+03,3.421813e+03
1.698981e+03,3.419661e+03
1.701874e+03,3.423628e+03
1.704766e+03,3.415062e+03
1.707659e+03,3.384411e+03
1.710552e+03,3.401959e+03
1.713444e+03,3.387814e+03
1.716337e+03,3.382234e+03
1.719230e+03,3.384306e+03
1.722123e+03,3.358547e+03
1.725015e+03,3.374780e+03
1.727908e+03,3.342024e+03
1.730801e+03,3.342590e+03
1.733693e+03,3.330582e+03
1.736586e+03,3.336026e+03
1.739479e+03,3.334541e+03
1.742371e+03,3.325538e+03
1.745264e+03,3.292640e+03
1.748157e+03,3.303589e+03
1.751050e+03,3.304964e+03
1.753942e+03,3.294533e+03
1.756835e+03,3.292016e+03
1.759728e+03,3.277031e+03
1.762620e+03,3.271683e+03
1.765513e+03,3.273958e+03
1.768406e+03,3.260165e+03
1.771298e+03,3.263306e+03
1.774191e+03,3.239611e+03
1.777084e+03,3.231939e+03
1.779977e+03,3.216426e+03
1.782869e+03,3.212979e+03
1.785762e+03,3.228826e+03
1.788655e+03,3.212425e+03
1.791547e+03,3.189225e+03
1.794440e+03,3.184054e+03
1.797333e+03,3.196241e+03
1.800225e+03,3.201565e+03
1.803118e+03,3.168302e+03
1.806011e+03,3.141363e+03
1.808904e+03,3.144963e+03
1.811796e+03,3.159792e+03
1.814689e+03,3.157679e+03
1.817582e+03,3.150785e+03
1.820474e+03,3.125347e+03
1.823367e+03,3.124613e+03
1.826260e+03,3.111887e+03
1.829152e+03,3.127610e+03
1.832045e+03,3.108475e+03
1.834938e+03,3.097024e+03
1.837831e+03,3.100168e+03
1.840723e+03,3.062512e+03
1.843616e+03,3.089868e+03
1.846509e+03,3.076612e+03
1.849401e+03,3.085012e+03
1.852294e+03,3.038399e+03
1.855187e+03,3.033427e+03
1.858079e+03,3.046739e+03
1.860972e+03,3.044385e+03
1.863865e+03,3.026173e+03
1.866758e+03,2.991828e+03
1.869650e+03,3.002214e+03
1.872543e+03,3.017306e+03
1.875436e+03,2.995921e+03
1.878328e+03,2.982248e+03
1.881221e+03,2.983173e+03
1.884114e+03,2.984695e+03
1.887006e+03,2.978450e+03
1.889899e+03,2.978708e+03
1.892792e+03,2.984249e+03
1.895685e+03,2.962292e+03
1.898577e+03,2.943122e+03
1.901470e+03,2.939710e+03
1.904363e+03,2.947216e+03
1.907255e+03,2.921155e+03
1.910148e+03,2.917129e+03
1.913041e+03,2.915138e+03
1.915933e+03,2.878667e+03
1.918826e+03,2.892459e+03
1.921719e+03,2.887527e+03
1.924612e+03,2.882690e+03
1.927504e+03,2.874373e+03
1.930397e+03,2.881648e+03
1.933290e+03,2.856605e+03
1.936182e+03,2.873551e+03
1.939075e+03,2.862494e+03
1.941968e+03,2.867742e+03
1.944860e+03,2.832838e+03
1.947753e+03,2.839839e+03
1.950646e+03,2.824043e+03
1.953539e+03,2.828182e+03
1.956431e+03,2.812775e+03
1.959324e+03,2.794957e+03
1.962217e+03,2.816130e+03
1.965109e+03,2.751775e+03
1.968002e+03,2.792887e+03
1.970895e+03,2.780037e+03
1.973787e+03,2.766382e+03
1.976680e+03,2.760321e+03
1.979573e+03,2.759736e+03
1.982466e+03,2.756960e+03
1.985358e+03,2.733056e+03
1.988251e+03,2.721466e+03
1.991144e+03,2.717024e+03
1.994036e+03,2.744492e+03
1.996929e+03,2.724666e+03
1.999822e+03,2.708062e+03
2.002714e+03,2.704461e+03
2.005607e+03,2.685925e+03
2.008500e+03,2.678740e+03
2.011393e+03,2.670379e+03
2.014285e+03,2.671614e+03
2.017178e+03,2.664445e+03
2.020071e+03,2.656052e+03
2.022963e+03,2.647817e+03
2.025856e+03,2.636294e+03
2.028749e+03,2.646241e+03
2.031641e+03,2.641404e+03
2.034534e+03,2.624868e+03
2.037427e+03,2.626179e+03
2.040320e+03,2.602169e+03
2.043212e+03,2.606796e+03
2.046105e+03,2.603808e+03
2.048998e+03,2.588777e+03
2.051890e+03,2.563523e+03
2.054783e+03,2.579917e+03
2.057676e+03,2.575406e+03
2.060568e+03,2.563953e+03
2.063461e+03,2.573726e+03
2.066354e+03,2.565943e+03
2.069247e+03,2.555244e+03
2.072139e+03,2.558855e+03
2.075032e+03,2.508469e+03
2.077925e+03,2.533611e+03
2.080817e+03,2.517093e+03
2.083710e+03,2.511017e+03
2.086603e+03,2.499249e+03
2.089496e+03,2.516089e+03
2.092388e+03,2.508821e+03
2.095281e+03,2.482210e+03
2.098174e+03,2.484250e+03
2.101066e+03,2.462352e+03
2.103959e+03,2.458219e+03
2.106852e+03,2.459187e+03
2.109744e+03,2.446362e+03
2.112637e+03,2.436905e+03
2.115530e+03,2.424607e+03
2.118422e+03,2.414933e+03
2.121315e+03,2.447620e+03
2.124208e+03,2.436662e+03
2.127101e+03,2.415700e+03
2.129993e+03,2.394158e+03
2.132886e+03,2.409457e+03
2.135779e+03,2.388724e+03
2.138671e+03,2.384669e+03
2.141564e+03,2.413854e+03
2.144457e+03,2.393051e+03
2.147350e+03,2.367229e+03
2.150242e+03,2.358155e+03
2.153135e+03,2.357470e+03
2.156028e+03,2.352781e+03
2.158920e+03,2.323132e+03
2.161813e+03,2.342026e+03
2.164706e+03,2.334578e+03
2.167598e+03,2.321118e+03
2.170491e+03,2.332663e+03
2.173384e+03,2.314448e+03
2.176277e+03,2.300356e+03
2.179169e+03,2.296568e+03
2.182062e+03,2.290723e+03
2.184955e+03,2.295323e+03
2.187847e+03,2.301031e+03
2.190740e+03,2.290007e+03
2.193633e+03,2.279832e+03
2.196525e+03,2.239461e+03
2.199418e+03,2.267314e+03
2.202311e+03,2.253538e+03
2.205204e+03,2.268737e+03
2.208096e+03,2.256364e+03
2.210989e+03,2.236615e+03
2.213882e+03,2.229722e+03
2.216774e+03,2.226290e+03
2.219667e+03,2.203095e+03
2.222560e+03,2.210157e+03
2.225452e+03,2.184484e+03
2.228345e+03,2.214360e+03
2.231238e+03,2.198298e+03
2.234131e+03,2.206448e+03
2.237023e+03,2.181662e+03
2.239916e+03,2.170734e+03
2.242809e+03,2.163767e+03
2.245701e+03,2.168312e+03
2.248594e+03,2.152334e+03
2.251487e+03,2.149878e+03
2.254379e+03,2.141852e+03
2.257272e+03,2.137295e+03
2.260165e+03,2.138105e+03
2.263058e+03,2.134414e+03
2.265950e+03,2.120295e+03
2.268843e+03,2.120662e+03
2.271736e+03,2.096377e+03
2.274628e+03,2.083802e+03
2.277521e+03,2.102208e+03
2.280414e+03,2.105919e+03
2.283306e+03,2.099865e+03
2.286199e+03,2.075525e+03
2.289092e+03,2.058043e+03
2.291985e+03,2.055389e+03
2.294877e+03,2.064559e+03
2.297770e+03,2.083715e+03
2.300663e+03,2.069230e+03
2.303555e+03,2.039685e+03
2.306448e+03,2.047383e+03
2.309341e+03,2.028284e+03
2.312233e+03,2.022049e+03
2.315126e+03,2.026446e+03
2.318019e+03,2.021413e+03
2.320912e+03,2.021395e+03
2.323804e+03,2.013082e+03
2.326697e+03,1.990238e+03
2.329590e+03,2.000867e+03
2.332482e+03,1.983181e+03
2.335375e+03,1.993121e+03
2.338268e+03,1.990832e+03
2.341160e+03,1.955266e+03
2.344053e+03,1.985855e+03
2.346946e+03,1.966096e+03
2.349839e+03,1.952522e+03
2.352731e+03,1.945764e+03
2.355624e+03,1.958051e+03
2.358517e+03,1.949188e+03
2.361409e+03,1.973193e+03
2.364302e+03,1.937572e+03
2.367195e+03,1.917984e+03
2.370087e+03,1.927407e+03
2.372980e+03,1.933465e+03
2.375873e+03,1.911755e+03
2.378766e+03,1.925361e+03
2.381658e+03,1.890292e+03
2.384551e+03,1.904896e+03
2.387444e+03,1.891899e+03
2.390336e+03,1.914634e+03
2.393229e+03,1.901210e+03
2.396122e+03,1.897782e+03
2.399014e+03,1.861818e+03
2.401907e+03,1.885789e+03
2.404800e+03,1.873384e+03
2.407693e+03,1.868368e+03
2.410585e+03,1.844295e+03
2.413478e+03,1.850605e+03
2.416371e+03,1.845872e+03
2.419263e+03,1.856541e+03
2.422156e+03,1.855745e+03
2.425049e+03,1.851250e+03
2.427941e+03,1.838061e+03
2.430834e+03,1.815878e+03
2.433727e+03,1.821187e+03
2.436620e+03,1.819728e+03
2.439512e+03,1.829176e+03
2.442405e+03,1.814533e+03
2.445298e+03,1.795833e+03
2.448190e+03,1.823454e+03
2.451083e+03,1.790816e+03
2.453976e+03,1.791736e+03
2.456868e+03,1.786956e+03
2.459761e+03,1.777999e+03
2.462654e+03,1.760790e+03
2.465547e+03,1.773935e+03
2.468439e+03,1.759955e+03
2.471332e+03,1.782483e+03
2.474225e+03,1.739646e+03
2.477117e+03,1.756081e+03
2.480010e+03,1.761793e+03
2.482903e+03,1.743982e+03
2.485795e+03,1.759735e+03
2.488688e+03,1.724444e+03
2.491581e+03,1.748522e+03
2.494474e+03,1.724824e+03
2.497366e+03,1.730568e+03
2.500259e+03,1.736657e+03
2.503152e+03,1.728102e+03
2.506044e+03,1.710938e+03
2.508937e+03,1.701086e+03
2.511830e+03,1.700465e+03
2.514722e+03,1.679352e+03
2.517615e+03,1.701683e+03
2.520508e+03,1.700285e+03
2.523401e+03,1.690364e+03
2.526293e+03,1.682574e+03
2.529186e+03,1.689491e+03
2.532079e+03,1.685714e+03
2.534971e+03,1.688432e+03
2.537864e+03,1.670785e+03
2.540757e+03,1.644960e+03
2.543649e+03,1.667953e+03
2.546542e+03,1.665329e+03
2.549435e+03,1.649113e+03
2.552328e+03,1.662922e+03
2.555220e+03,1.677487e+03
2.558113e+03,1.649889e+03
2.561006e+03,1.640621e+03
2.563898e+03,1.637749e+03
2.566791e+03,1.646440e+03
2.569684e+03,1.645733e+03
2.572576e+03,1.641215e+03
2.575469e+03,1.632560e+03
2.578362e+03,1.625118e+03
2.581255e+03,1.618750e+03
2.584147e+03,1.604896e+03
2.587040e+03,1.615619e+03
2.589933e+03,1.623075e+03
2.592825e+03,1.603484e+03
2.595718e+03,1.610864e+03
2.598611e+03,1.587958e+03
2.601503e+03,1.592635e+03
2.604396e+03,1.599222e+03
2.607289e+03,1.597855e+03
2.610182e+03,1.590227e+03
2.613074e+03,1.575019e+03
2.615967e+03,1.562517e+03
2.618860e+03,1.571466e+03
2.621752e+03,1.570201e+03
2.624645e+03,1.569177e+03
2.627538e+03,1.564382e+03
2.630430e+03,1.554460e+03
2.633323e+03,1.552764e+03
2.636216e+03,1.553906e+03
2.639109e+03,1.558929e+03
2.642001e+03,1.556361e+03
2.644894e+03,1.545453e+03
2.647787e+03,1.570513e+03
2.650679e+03,1.544033e+03
2.653572e+03,1.526403e+03
2.656465e+03,1.535971e+03
2.659357e+03,1.530511e+03
2.662250e+03,1.521070e+03
2.665143e+03,1.540172e+03
2.668036e+03,1.538072e+03
2.670928e+03,1.526081e+03
2.673821e+03,1.516098e+03
2.676714e+03,1.500667e+03
2.679606e+03,1.514877e+03
2.682499e+03,1.509570e+03
2.685392e+03,1.518821e+03
2.688284e+03,1.501652e+03
2.691177e+03,1.507035e+03
2.694070e+03,1.494395e+03
2.696963e+03,1.483178e+03
2.699855e+03,1.500297e+03
2.702748e+03,1.474501e+03
2.705641e+03,1.469038e+03
2.708533e+03,1.475761e+03
2.711426e+03,1.482150e+03
2.714319e+03,1.453887e+03
2.717211e+03,1.471531e+03
2.720104e+03,1.460876e+03
2.722997e+03,1.483974e+03
2.725890e+03,1.459556e+03
2.728782e+03,1.461776e+03
2.731675e+03,1.448226e+03
2.734568e+03,1.473548e+03
2.737460e+03,1.454914e+03
2.740353e+03,1.444422e+03
2.743246e+03,1.453232e+03
2.746138e+03,1.439763e+03
2.749031e+03,1.436849e+03
2.751924e+03,1.431219e+03
2.754817e+03,1.437426e+03
2.757709e+03,1.436853e+03
2.760602e+03,1.445531e+03
2.763495e+03,1.442336e+03
2.766387e+03,1.428610e+03
2.769280e+03,1.402347e+03
2.772173e+03,1.418187e+03
2.775065e+03,1.434170e+03
2.777958e+03,1.388888e+03
2.780851e+03,1.405244e+03
2.783744e+03,1.405261e+03
2.786636e+03,1.394995e+03
2.789529e+03,1.390020e+03
2.792422e+03,1.392992e+03
2.795314e+03,1.384573e+03
2.798207e+03,1.400404e+03
2.801100e+03,1.403442e+03
2.803992e+03,1.388102e+03
2.806885e+03,1.391174e+03
2.809778e+03,1.376156e+03
2.812671e+03,1.399894e+03
2.815563e+03,1.389010e+03
2.818456e+03,1.365869e+03
2.821349e+03,1.353935e+03
2.824241e+03,1.362520e+03
2.827134e+03,1.373995e+03
2.830027e+03,1.370185e+03
2.832919e+03,1.373435e+03
2.835812e+03,1.349946e+03
2.838705e+03,1.361964e+03
2.841598e+03,1.362968e+03
2.844490e+03,1.361580e+03
2.847383e+03,1.345255e+03
2.850276e+03,1.372246e+03
2.853168e+03,1.358567e+03
2.856061e+03,1.367292e+03
2.858954e+03,1.358422e+03
2.861846e+03,1.356272e+03
2.864739e+03,1.339057e+03
2.867632e+03,1.357500e+03
2.870525e+03,1.345958e+03
2.873417e+03,1.342288e+03
2.876310e+03,1.329218e+03
2.879203e+03,1.351597e+03
2.882095e+03,1.354959e+03
2.884988e+03,1.354314e+03
2.887881e+03,1.314413e+03
2.890773e+03,1.344784e+03
2.893666e+03,1.323066e+03
2.896559e+03,1.344725e+03
2.899452e+03,1.322542e+03
2.902344e+03,1.347253e+03
2.905237e+03,1.326234e+03
2.908130e+03,1.320747e+03
2.911022e+03,1.321968e+03
2.913915e+03,1.317759e+03
2.916808e+03,1.311669e+03
2.919700e+03,1.325649e+03
2.922593e+03,1.289114e+03
2.925486e+03,1.307907e+03
2.928379e+03,1.297512e+03
2.931271e+03,1.305260e+03
2.934164e+03,1.279380e+03
2.937057e+03,1.282680e+03
2.939949e+03,1.265099e+03
2.942842e+03,1.268783e+03
2.945735e+03,1.322118e+03
2.948627e+03,1.286572e+03
2.951520e+03,1.275391e+03
2.954413e+03,1.288320e+03
2.957306e+03,1.300270e+03
2.960198e+03,1.293821e+03
2.963091e+03,1.275941e+03
2.965984e+03,1.293109e+03
2.968876e+03,1.251071e+03
2.971769e+03,1.266673e+03
2.974662e+03,1.274488e+03
2.977554e+03,1.268412e+03
2.980447e+03,1.229681e+03
2.983340e+03,1.247385e+03
2.986233e+03,1.250364e+03
2.989125e+03,1.239388e+03
2.992018e+03,1.270558e+03
2.994911e+03,1.209827e+03
2.997803e+03,1.277662e+03
3.000696e+03,1.223839e+03
3.003589e+03,1.251374e+03
3.006481e+03,1.243141e+03
3.009374e+03,1.224233e+03
3.012267e+03,1.245432e+03
3.015160e+03,1.225170e+03
3.018052e+03,1.238535e+03
3.020945e+03,1.195553e+03
3.023838e+03,1.211575e+03
3.026730e+03,1.236353e+03
3.029623e+03,1.247611e+03
3.032516e+03,1.189249e+03
3.035408e+03,1.197452e+03
3.038301e+03,1.198430e+03
3.041194e+03,1.227283e+03
3.044087e+03,1.215960e+03
3.046979e+03,1.195592e+03
3.049872e+03,1.190492e+03
3.052765e+03,1.197557e+03
3.055657e+03,1.214757e+03
3.058550e+03,1.192212e+03
3.061443e+03,1.223674e+03
3.064335e+03,1.231096e+03
3.067228e+03,1.203273e+03
3.070121e+03,1.200543e+03
3.073014e+03,1.192056e+03
3.075906e+03,1.221590e+03
3.078799e+03,1.196955e+03
3.081692e+03,1.197626e+03
3.084584e+03,1.187359e+03
3.087477e+03,1.195152e+03
3.090370e+03,1.207126e+03
3.093262e+03,1.166038e+03
3.096155e+03,1.178965e+03
3.099048e+03,1.195490e+03
3.101941e+03,1.189501e+03
3.104833e+03,1.183163e+03
3.107726e+03,1.216123e+03
3.110619e+03,1.168325e+03
3.113511e+03,1.173920e+03
3.116404e+03,1.188910e+03
3.119297e+03,1.201427e+03
3.122189e+03,1.176940e+03
3.125082e+03,1.238287e+03
3.127975e+03,1.181580e+03
3.130868e+03,1.225422e+03
3.133760e+03,1.191928e+03
3.136653e+03,1.205912e+03
3.139546e+03,1.185454e+03
3.142438e+03,1.184022e+03
3.145331e+03,1.162774e+03
3.148224e+03,1.177981e+03
3.151116e+03,1.176340e+03
3.154009e+03,1.208846e+03
3.156902e+03,1.178221e+03
3.159795e+03,1.123185e+03
3.162687e+03,1.144648e+03
3.165580e+03,1.217660e+03
3.168473e+03,1.166393e+03
3.171365e+03,1.160350e+03
3.174258e+03,1.225242e+03
3.177151e+03,1.150935e+03
3.180043e+03,1.222603e+03
3.182936e+03,1.183536e+03
3.185829e+03,1.221994e+03
3.188722e+03,1.142782e+03
3.191614e+03,1.256974e+03
3.194507e+03,1.185040e+03
3.197400e+03,1.217105e+03
3.200292e+03,1.212571e+03
3.203185e+03,0.000000e+00
3.206078e+03,0.000000e+00
3.208970e+03,0.000000e+00
3.211863e+03,0.000000e+00
3.214756e+03,0.000000e+00
3.217649e+03,0.000000e+00
3.220541e+03,0.000000e+00
3.223434e+03,0.000000e+00
3.226327e+03,0.000000e+00
3.229219e+03,0.000000e+00
3.232112e+03,0.000000e+00
3.235005e+03,0.000000e+00
3.237897e+03,0.000000e+00
3.240790e+03,0.000000e+00
3.243683e+03,0.000000e+00
3.246576e+03,0.000000e+00
3.249468e+03,0.000000e+00
3.252361e+03,0.000000e+00
3.255254e+03,0.000000e+00
3.258146e+03,0.000000e+00
3.261039e+03,0.000000e+00
3.263932e+03,0.000000e+00
3.266824e+03,0.000000e+00
3.269717e+03,0.000000e+00
3.272610e+03,0.000000e+00
3.275503e+03,0.000000e+00
3.278395e+03,0.000000e+00
3.281288e+03,0.000000e+00
3.284181e+03,0.000000e+00
3.287073e+03,0.000000e+00
3.289966e+03,0.000000e+00
3.292859e+03,0.000000e+00
3.295751e+03,0.000000e+00
3.298644e+03,0.000000e+00
3.301537e+03,0.000000e+00
3.304430e+03,0.000000e+00
3.307322e+03,0.000000e+00
3.310215e+03,0.000000e+00
3.313108e+03,0.000000e+00
3.316000e+03,0.000000e+00
3.318893e+03,0.000000e+00
3.321786e+03,0.000000e+00
3.324678e+03,0.000000e+00
3.327571e+03,0.000000e+00
3.330464e+03,0.000000e+00
3.333357e+03,0.000000e+00
3.336249e+03,0.000000e+00
3.339142e+03,0.000000e+00
3.342035e+03,0.000000e+00
3.344927e+03,0.000000e+00
3.347820e+03,0.000000e+00
3.350713e+03,0.000000e+00
3.353605e+03,0.000000e+00
3.356498e+03,0.000000e+00
3.359391e+03,0.000000e+00
3.362284e+03,0.000000e+00
3.365176e+03,0.000000e+00
3.368069e+03,0.000000e+00
3.370962e+03,0.000000e+00
3.373854e+03,0.000000e+00
3.376747e+03,0.000000e+00
3.379640e+03,0.000000e+00
3.382532e+03,0.000000e+00
3.385425e+03,0.000000e+00
3.388318e+03,0.000000e+00
3.391211e+03,0.000000e+00
3.394103e+03,0.000000e+00
3.396996e+03,0.000000e+00
3.399889e+03,0.000000e+00
3.402781e+03,0.000000e+00
3.405674e+03,0.000000e+00
3.408567e+03,0.000000e+00
3.411459e+03,0.000000e+00
3.414352e+03,0.000000e+00
3.417245e+03,0.000000e+00
3.420138e+03,0.000000e+00
3.423030e+03,0.000000e+00
3.425923e+03,0.000000e+00
3.428816e+03,0.000000e+00
3.431708e+03,0.000000e+00
3.434601e+03,0.000000e+00
3.437494e+03,0.000000e+00
3.440386e+03,0.000000e+00
3.443279e+03,0.000000e+00
3.446172e+03,0.000000e+00
3.449065e+03,0.000000e+00
3.451957e+03,0.000000e+00
3.454850e+03,0.000000e+00
3.457743e+03,0.000000e+00
3.460635e+03,0.000000e+00
3.463528e+03,0.000000e+00
3.466421e+03,0.000000e+00
3.469313e+03,0.000000e+00
3.472206e+03,0.000000e+00
3.475099e+03,0.000000e+00
3.477992e+03,0.000000e+00
3.480884e+03,0.000000e+00
3.483777e+03,0.000000e+00
3.486670e+03,0.000000e+00
3.489563e+03,0.000000e+00
3.492455e+03,0.000000e+00
3.495348e+03,0.000000e+00
3.498240e+03,0.000000e+00
3.500169e+03,0.000000e+00