File: RAMAN_data/13042023_r2/black fibre5.CSV
9.931763e+01,0.000000e+00
1.022103e+02,0.000000e+00
1.051030e+02,0.000000e+00
1.079957e+02,0.000000e+00
1.108884e+02,0.000000e+00
1.137811e+02,0.000000e+00
1.166738e+02,0.000000e+00
1.195665e+02,0.000000e+00
1.224592e+02,0.000000e+00
1.253519e+02,0.000000e+00
1.282446e+02,0.000000e+00
1.311373e+02,0.000000e+00
1.340300e+02,0.000000e+00
1.369227e+02,0.000000e+00
1.398154e+02,0.000000e+00
1.427081e+02,0.000000e+00
1.456008e+02,0.000000e+00
1.484935e+02,0.000000e+00
1.513862e+02,0.000000e+00
1.542789e+02,0.000000e+00
1.571716e+02,0.000000e+00
1.600643e+02,0.000000e+00
1.629570e+02,0.000000e+00
1.658497e+02,0.000000e+00
1.687424e+02,0.000000e+00
1.716351e+02,0.000000e+00
1.745278e+02,0.000000e+00
1.774205e+02,0.000000e+00
1.803132e+02,0.000000e+00
1.832059e+02,0.000000e+00
1.860986e+02,0.000000e+00
1.889913e+02,0.000000e+00
1.918840e+02,0.000000e+00
1.947767e+02,0.000000e+00
1.976694e+02,0.000000e+00
2.005621e+02,6.727643e+03
2.034548e+02,6.744017e+03
2.063475e+02,6.725566e+03
2.092402e+02,6.695479e+03
2.121329e+02,6.689804e+03
2.150256e+02,6.682396e+03
2.179183e+02,6.668713e+03
2.208110e+02,6.678992e+03
2.237037e+02,6.663461e+03
2.265964e+02,6.626966e+03
2.294892e+02,6.642280e+03
2.323819e+02,6.623420e+03
2.352746e+02,6.622183e+03
2.381673e+02,6.618658e+03
2.410600e+02,6.582604e+03
2.439527e+02,6.577647e+03
2.468454e+02,6.587563e+03
2.497381e+02,6.545338e+03
2.526308e+02,6.577125e+03
2.555235e+02,6.547239e+03
2.584161e+02,6.544417e+03
2.613088e+02,6.531145e+03
2.642015e+02,6.517880e+03
2.670942e+02,6.506283e+03
2.699869e+02,6.512702e+03
2.728796e+02,6.509333e+03
2.757723e+02,6.483976e+03
2.786650e+02,6.479078e+03
2.815577e+02,6.484052e+03
2.844504e+02,6.467755e+03
2.873431e+02,6.477080e+03
2.902358e+02,6.448083e+03
2.931285e+02,6.426210e+03
2.960212e+02,6.418433e+03
2.989139e+02,6.431345e+03
3.018066e+02,6.394065e+03
3.046993e+02,6.392713e+03
3.075920e+02,6.388241e+03
3.104847e+02,6.386134e+03
3.133774e+02,6.367628e+03
3.162701e+02,6.353057e+03
3.191628e+02,6.318505e+03
3.220555e+02,6.299890e+03
3.249482e+02,6.320772e+03
3.278409e+02,6.296154e+03
3.307336e+02,6.299319e+03
3.336263e+02,6.302000e+03
3.365190e+02,6.258875e+03
3.394117e+02,6.257688e+03
3.423044e+02,6.243827e+03
3.451971e+02,6.242939e+03
3.480898e+02,6.233243e+03
3.509825e+02,6.196794e+03
3.538752e+02,6.192511e+03
3.567680e+02,6.197671e+03
3.596607e+02,6.196515e+03
3.625534e+02,6.173628e+03
3.654461e+02,6.126713e+03
3.683388e+02,6.135024e+03
3.712315e+02,6.152978e+03
3.741242e+02,6.150403e+03
3.770169e+02,6.147639e+03
3.799096e+02,6.134602e+03
3.828023e+02,6.092398e+03
3.856950e+02,6.084811e+03
3.885877e+02,6.087984e+03
3.914804e+02,6.086435e+03
3.943731e+02,6.054366e+03
3.972658e+02,6.037571e+03
4.001585e+02,6.025764e+03
4.030512e+02,6.023303e+03
4.059439e+02,6.020300e+03
4.088366e+02,6.011461e+03
4.117293e+02,5.997397e+03
4.146220e+02,5.976283e+03
4.175147e+02,5.963789e+03
4.204074e+02,5.957023e+03
4.233001e+02,5.950538e+03
4.261928e+02,5.938372e+03
4.290855e+02,5.939022e+03
4.319782e+02,5.911121e+03
4.348709e+02,5.918605e+03
4.377636e+02,5.901242e+03
4.406563e+02,5.862833e+03
4.435490e+02,5.873397e+03
4.464417e+02,5.865675e+03
4.493344e+02,5.851764e+03
4.522271e+02,5.835396e+03
4.551198e+02,5.830688e+03
4.580125e+02,5.810311e+03
4.609052e+02,5.818489e+03
4.637979e+02,5.797667e+03
4.666906e+02,5.763388e+03
4.695833e+02,5.748637e+03
4.724760e+02,5.734892e+03
4.753687e+02,5.742366e+03
4.782614e+02,5.732667e+03
4.811541e+02,5.750800e+03
4.840468e+02,5.720273e+03
4.869395e+02,5.701308e+03
4.898322e+02,5.687511e+03
4.927249e+02,5.695433e+03
4.956176e+02,5.707614e+03
4.985103e+02,5.677951e+03
5.014030e+02,5.672441e+03
5.042957e+02,5.633296e+03
5.071884e+02,5.623993e+03
5.100811e+02,5.614676e+03
5.129738e+02,5.626253e+03
5.158665e+02,5.625046e+03
5.187592e+02,5.625954e+03
5.216519e+02,5.586225e+03
5.245446e+02,5.580324e+03
5.274373e+02,5.587002e+03
5.303300e+02,5.597726e+03
5.332227e+02,5.566448e+03
5.361154e+02,5.538063e+03
5.390081e+02,5.517052e+03
5.419008e+02,5.545011e+03
5.447935e+02,5.526826e+03
5.476862e+02,5.533309e+03
5.505789e+02,5.518153e+03
5.534716e+02,5.461979e+03
5.563643e+02,5.462296e+03
5.592570e+02,5.480142e+03
5.621497e+02,5.467823e+03
5.650424e+02,5.450494e+03
5.679351e+02,5.445999e+03
5.708278e+02,5.432577e+03
5.737205e+02,5.426266e+03
5.766132e+02,5.426266e+03
5.795059e+02,5.413475e+03
5.823986e+02,5.403036e+03
5.852913e+02,5.371807e+03
5.881840e+02,5.363797e+03
5.910767e+02,5.380403e+03
5.939694e+02,5.357109e+03
5.968621e+02,5.358719e+03
5.997548e+02,5.344179e+03
6.026475e+02,5.340154e+03
6.055402e+02,5.336060e+03
6.084329e+02,5.312070e+03
6.113256e+02,5.325144e+03
6.142183e+02,5.294369e+03
6.171110e+02,5.284429e+03
6.200037e+02,5.296981e+03
6.228964e+02,5.284188e+03
6.257891e+02,5.294665e+03
6.286818e+02,5.277708e+03
6.315745e+02,5.262288e+03
6.344672e+02,5.241561e+03
6.373599e+02,5.223103e+03
6.402526e+02,5.229796e+03
6.431453e+02,5.204361e+03
6.460380e+02,5.187449e+03
6.489307e+02,5.189738e+03
6.518234e+02,5.190448e+03
6.547161e+02,5.178830e+03
6.576088e+02,5.160933e+03
6.605015e+02,5.170919e+03
6.633942e+02,5.159724e+03
6.662869e+02,5.150213e+03
6.691796e+02,5.152308e+03
6.720723e+02,5.124859e+03
6.749650e+02,5.129218e+03
6.778577e+02,5.112553e+03
6.807504e+02,5.110217e+03
6.836431e+02,5.111568e+03
6.865358e+02,5.072147e+03
6.894285e+02,5.080712e+03
6.923212e+02,5.060365e+03
6.952139e+02,5.068920e+03
6.981066e+02,5.061694e+03
7.009993e+02,5.052676e+03
7.038920e+02,5.048909e+03
7.067847e+02,5.044142e+03
7.096774e+02,5.020735e+03
7.125701e+02,5.004563e+03
7.154628e+02,5.018700e+03
7.183555e+02,4.991826e+03
7.212482e+02,5.003030e+03
7.241409e+02,4.992098e+03
7.270336e+02,4.998981e+03
7.299263e+02,5.000768e+03
7.328190e+02,4.990065e+03
7.357117e+02,4.985160e+03
7.386044e+02,4.957069e+03
7.414971e+02,4.969205e+03
7.443898e+02,4.942880e+03
7.472825e+02,4.935235e+03
7.501752e+02,4.908592e+03
7.530679e+02,4.893698e+03
7.559606e+02,4.879918e+03
7.588533e+02,4.861845e+03
7.617460e+02,4.882517e+03
7.646387e+02,4.851409e+03
7.675314e+02,4.854001e+03
7.704241e+02,4.844275e+03
7.733168e+02,4.831890e+03
7.762095e+02,4.840636e+03
7.791022e+02,4.829869e+03
7.819949e+02,4.817000e+03
7.848876e+02,4.810643e+03
7.877803e+02,4.827126e+03
7.906730e+02,4.809212e+03
7.935657e+02,4.832479e+03
7.964584e+02,4.766123e+03
7.993511e+02,4.784498e+03
8.022438e+02,4.751935e+03
8.051365e+02,4.746375e+03
8.080292e+02,4.772568e+03
8.109219e+02,4.731418e+03
8.138146e+02,4.730757e+03
8.167073e+02,4.721722e+03
8.196000e+02,4.724963e+03
8.224927e+02,4.729903e+03
8.253854e+02,4.726423e+03
8.282781e+02,4.709883e+03
8.311708e+02,4.697967e+03
8.340635e+02,4.689358e+03
8.369562e+02,4.669381e+03
8.398489e+02,4.676975e+03
8.427416e+02,4.684619e+03
8.456343e+02,4.680825e+03
8.485270e+02,4.671830e+03
8.514197e+02,4.659444e+03
8.543124e+02,4.669373e+03
8.572051e+02,4.655644e+03
8.600978e+02,4.634002e+03
8.629905e+02,4.624461e+03
8.658832e+02,4.618855e+03
8.687759e+02,4.609351e+03
8.716686e+02,4.612920e+03
8.745613e+02,4.603041e+03
8.774540e+02,4.596149e+03
8.803467e+02,4.587453e+03
8.832394e+02,4.576366e+03
8.861321e+02,4.566119e+03
8.890248e+02,4.576860e+03
8.919175e+02,4.550697e+03
8.948102e+02,4.552079e+03
8.977029e+02,4.518886e+03
9.005956e+02,4.542721e+03
9.034883e+02,4.517232e+03
9.063810e+02,4.497409e+03
9.092737e+02,4.501794e+03
9.121664e+02,4.513286e+03
9.150591e+02,4.492711e+03
9.179518e+02,4.482396e+03
9.208445e+02,4.463739e+03
9.237372e+02,4.448114e+03
9.266299e+02,4.452026e+03
9.295226e+02,4.464485e+03
9.324153e+02,4.437759e+03
9.353080e+02,4.454834e+03
9.382007e+02,4.422618e+03
9.410934e+02,4.422250e+03
9.439861e+02,4.390739e+03
9.468788e+02,4.396945e+03
9.497715e+02,4.409723e+03
9.526642e+02,4.381838e+03
9.555569e+02,4.388905e+03
9.584496e+02,4.381259e+03
9.613423e+02,4.382083e+03
9.642350e+02,4.373003e+03
9.671277e+02,4.352165e+03
9.700204e+02,4.360212e+03
9.729131e+02,4.351841e+03
9.758058e+02,4.325904e+03
9.786985e+02,4.341163e+03
9.815912e+02,4.324877e+03
9.844839e+02,4.304657e+03
9.873766e+02,4.291765e+03
9.902693e+02,4.300876e+03
9.931620e+02,4.318650e+03
9.960547e+02,4.328823e+03
9.989474e+02,4.285223e+03
1.001840e+03,4.258011e+03
1.004733e+03,4.268960e+03
1.007626e+03,4.276751e+03
1.010518e+03,4.267263e+03
1.013411e+03,4.246801e+03
1.016304e+03,4.218059e+03
1.019196e+03,4.241064e+03
1.022089e+03,4.231019e+03
1.024982e+03,4.243028e+03
1.027875e+03,4.214521e+03
1.030767e+03,4.210665e+03
1.033660e+03,4.222048e+03
1.036552e+03,4.216136e+03
1.039445e+03,4.213631e+03
1.042338e+03,4.207821e+03
1.045231e+03,4.202510e+03
1.048123e+03,4.186808e+03
1.051016e+03,4.193553e+03
1.053909e+03,4.179461e+03
1.056802e+03,4.189167e+03
1.059694e+03,4.181880e+03
1.062587e+03,4.159017e+03
1.065479e+03,4.182635e+03
1.068372e+03,4.176993e+03
1.071265e+03,4.187678e+03
1.074158e+03,4.181592e+03
1.077050e+03,4.169366e+03
1.079943e+03,4.151545e+03
1.082836e+03,4.157345e+03
1.085729e+03,4.146594e+03
1.088621e+03,4.151861e+03
1.091514e+03,4.128977e+03
1.094406e+03,4.131528e+03
1.097299e+03,4.117598e+03
1.100192e+03,4.112200e+03
1.103085e+03,4.102410e+03
1.105977e+03,4.104125e+03
1.108870e+03,4.100438e+03
1.111763e+03,4.087508e+03
1.114656e+03,4.083293e+03
1.117548e+03,4.087062e+03
1.120441e+03,4.089446e+03
1.123334e+03,4.074397e+03
1.126226e+03,4.071586e+03
1.129119e+03,4.075269e+03
1.132012e+03,4.074958e+03
1.134904e+03,4.062678e+03
1.137797e+03,4.065061e+03
1.140690e+03,4.047913e+03
1.143583e+03,4.037652e+03
1.146475e+03,4.035072e+03
1.149368e+03,4.050798e+03
1.152261e+03,4.053493e+03
1.155153e+03,4.029543e+03
1.158046e+03,4.040602e+03
1.160939e+03,4.018260e+03
1.163831e+03,4.040569e+03
1.166724e+03,4.037131e+03
1.169617e+03,4.048669e+03
1.172510e+03,4.009312e+03
1.175402e+03,3.985846e+03
1.178295e+03,4.000865e+03
1.181188e+03,3.984721e+03
1.184080e+03,3.966903e+03
1.186973e+03,3.966525e+03
1.189866e+03,3.950493e+03
1.192758e+03,3.949917e+03
1.195651e+03,3.946691e+03
1.198544e+03,3.943585e+03
1.201437e+03,3.926708e+03
1.204329e+03,3.917544e+03
1.207222e+03,3.920225e+03
1.210115e+03,3.915679e+03
1.213007e+03,3.910562e+03
1.215900e+03,3.905949e+03
1.218793e+03,3.901772e+03
1.221685e+03,3.885724e+03
1.224578e+03,3.905464e+03
1.227471e+03,3.886744e+03
1.230364e+03,3.874673e+03
1.233256e+03,3.848634e+03
1.236149e+03,3.860954e+03
1.239042e+03,3.861144e+03
1.241934e+03,3.853413e+03
1.244827e+03,3.851152e+03
1.247720e+03,3.845543e+03
1.250612e+03,3.842143e+03
1.253505e+03,3.824577e+03
1.256398e+03,3.846589e+03
1.259291e+03,3.832696e+03
1.262183e+03,3.813854e+03
1.265076e+03,3.796051e+03
1.267969e+03,3.809956e+03
1.270861e+03,3.819406e+03
1.273754e+03,3.817797e+03
1.276647e+03,3.819349e+03
1.279539e+03,3.814186e+03
1.282432e+03,3.788564e+03
1.285325e+03,3.797935e+03
1.288218e+03,3.785869e+03
1.291110e+03,3.793643e+03
1.294003e+03,3.790696e+03
1.296896e+03,3.766316e+03
1.299788e+03,3.780377e+03
1.302681e+03,3.758691e+03
1.305574e+03,3.767515e+03
1.308466e+03,3.765415e+03
1.311359e+03,3.775573e+03
1.314252e+03,3.756834e+03
1.317145e+03,3.778508e+03
1.320037e+03,3.795153e+03
1.322930e+03,3.805529e+03
1.325823e+03,3.805212e+03
1.328715e+03,3.794423e+03
1.331608e+03,3.800649e+03
1.334501e+03,3.776697e+03
1.337393e+03,3.764594e+03
1.340286e+03,3.750464e+03
1.343179e+03,3.727514e+03
1.346072e+03,3.699848e+03
1.348964e+03,3.710759e+03
1.351857e+03,3.691626e+03
1.354750e+03,3.712694e+03
1.357642e+03,3.681258e+03
1.360535e+03,3.682532e+03
1.363428e+03,3.678312e+03
1.366320e+03,3.675164e+03
1.369213e+03,3.674823e+03
1.372106e+03,3.652505e+03
1.374999e+03,3.649045e+03
1.377891e+03,3.650731e+03
1.380784e+03,3.632434e+03
1.383677e+03,3.651429e+03
1.386569e+03,3.636570e+03
1.389462e+03,3.617621e+03
1.392355e+03,3.612321e+03
1.395247e+03,3.606615e+03
1.398140e+03,3.604725e+03
1.401033e+03,3.598188e+03
1.403926e+03,3.572656e+03
1.406818e+03,3.560763e+03
1.409711e+03,3.584388e+03
1.412604e+03,3.587384e+03
1.415496e+03,3.561749e+03
1.418389e+03,3.568439e+03
1.421282e+03,3.553902e+03
1.424174e+03,3.552940e+03
1.427067e+03,3.536329e+03
1.429960e+03,3.544562e+03
1.432853e+03,3.534200e+03
1.435745e+03,3.535140e+03
1.438638e+03,3.510137e+03
1.441531e+03,3.517116e+03
1.444423e+03,3.525673e+03
1.447316e+03,3.508135e+03
1.450209e+03,3.481409e+03
1.453101e+03,3.483117e+03
1.455994e+03,3.481537e+03
1.458887e+03,3.476785e+03
1.461780e+03,3.496679e+03
1.464672e+03,3.476918e+03
1.467565e+03,3.470782e+03
1.470458e+03,3.464946e+03
1.473350e+03,3.472487e+03
1.476243e+03,3.455517e+03
1.479136e+03,3.447739e+03
1.482028e+03,3.436922e+03
1.484921e+03,3.424083e+03
1.487814e+03,3.442804e+03
1.490707e+03,3.418318e+03
1.493599e+03,3.427127e+03
1.496492e+03,3.424302e+03
1.499385e+03,3.385782e+03
1.502277e+03,3.437009e+03
1.505170e+03,3.424101e+03
1.508063e+03,3.390841e+03
1.510955e+03,3.396645e+03
1.513848e+03,3.366852e+03
1.516741e+03,3.395770e+03
1.519634e+03,3.382935e+03
1.522526e+03,3.385232e+03
1.525419e+03,3.358836e+03
1.528312e+03,3.353497e+03
1.531204e+03,3.365218e+03
1.534097e+03,3.359159e+03
1.536990e+03,3.341750e+03
1.539882e+03,3.354747e+03
1.542775e+03,3.332685e+03
1.545668e+03,3.356290e+03
1.548561e+03,3.336612e+03
1.551453e+03,3.344691e+03
1.554346e+03,3.342875e+03
1.557239e+03,3.328721e+03
1.560131e+03,3.339677e+03
1.563024e+03,3.342145e+03
1.565917e+03,3.332173e+03
1.568809e+03,3.326233e+03
1.571702e+03,3.325634e+03
1.574595e+03,3.302766e+03
1.577488e+03,3.309483e+03
1.580380e+03,3.315782e+03
1.583273e+03,3.338949e+03
1.586166e+03,3.315787e+03
1.589058e+03,3.280940e+03
1.591951e+03,3.278770e+03
1.594844e+03,3.276271e+03
1.597736e+03,3.265869e+03
1.600629e+03,3.272333e+03
1.603522e+03,3.270615e+03
1.606415e+03,3.269867e+03
1.609307e+03,3.277874e+03
1.612200e+03,3.283727e+03
1.615093e+03,3.257859e+03
1.617985e+03,3.234533e+03
1.620878e+03,3.211394e+03
1.623771e+03,3.194328e+03
1.626663e+03,3.192980e+03
1.629556e+03,3.193938e+03
1.632449e+03,3.185563e+03
1.635342e+03,3.175622e+03
1.638234e+03,3.156550e+03
1.641127e+03,3.159461e+03
1.644020e+03,3.152663e+03
1.646912e+03,3.159406e+03
1.649805e+03,3.130691e+03
1.652698e+03,3.134511e+03
1.655590e+03,3.137939e+03
1.658483e+03,3.116271e+03
1.661376e+03,3.130483e+03
1.664269e+03,3.116694e+03
1.667161e+03,3.099970e+03
1.670054e+03,3.086712e+03
1.672947e+03,3.097637e+03
1.675839e+03,3.081192e+03
1.678732e+03,3.080125e+03
1.681625e+03,3.077481e+03
1.684517e+03,3.069694e+03
1.687410e+03,3.075316e+03
1.690303e+03,3.064246e+03
1.693196e+03,3.049211e+03
1.696088e+03,3.042543e+03
1.698981e+03,3.064406e+03
1.701874e+03,3.042049e+03
1.704766e+03,3.042771e+03
1.707659e+03,3.043415e+03
1.710552e+03,3.039033e+03
1.713444e+03,3.017749e+03
1.716337e+03,3.014391e+03
1.719230e+03,3.032468e+03
1.722123e+03,3.020366e+03
1.725015e+03,3.006883e+03
1.727908e+03,3.010236e+03
1.730801e+03,2.994023e+03
1.733693e+03,2.990298e+03
1.736586e+03,2.975962e+03
1.739479e+03,3.003252e+03
1.742371e+03,2.958061e+03
1.745264e+03,2.962172e+03
1.748157e+03,2.952058e+03
1.751050e+03,2.956790e+03
1.753942e+03,2.932199e+03
1.756835e+03,2.942319e+03
1.759728e+03,2.932955e+03
1.762620e+03,2.931771e+03
1.765513e+03,2.917301e+03
1.768406e+03,2.925136e+03
1.771298e+03,2.928531e+03
1.774191e+03,2.906551e+03
1.777084e+03,2.901915e+03
1.779977e+03,2.901591e+03
1.782869e+03,2.875574e+03
1.785762e+03,2.879778e+03
1.788655e+03,2.875680e+03
1.791547e+03,2.855958e+03
1.794440e+03,2.863516e+03
1.797333e+03,2.850344e+03
1.800225e+03,2.877087e+03
1.803118e+03,2.851313e+03
1.806011e+03,2.839651e+03
1.808904e+03,2.835509e+03
1.811796e+03,2.832938e+03
1.814689e+03,2.814384e+03
1.817582e+03,2.804567e+03
1.820474e+03,2.801690e+03
1.823367e+03,2.803889e+03
1.826260e+03,2.789835e+03
1.829152e+03,2.782002e+03
1.832045e+03,2.783078e+03
1.834938e+03,2.763594e+03
1.837831e+03,2.782071e+03
1.840723e+03,2.743446e+03
1.843616e+03,2.766181e+03
1.846509e+03,2.779858e+03
1.849401e+03,2.735656e+03
1.852294e+03,2.735206e+03
1.855187e+03,2.736400e+03
1.858079e+03,2.736431e+03
1.860972e+03,2.732255e+03
1.863865e+03,2.725305e+03
1.866758e+03,2.721378e+03
1.869650e+03,2.707938e+03
1.872543e+03,2.718276e+03
1.875436e+03,2.708110e+03
1.878328e+03,2.701016e+03
1.881221e+03,2.675500e+03
1.884114e+03,2.685117e+03
1.887006e+03,2.670694e+03
1.889899e+03,2.666962e+03
1.892792e+03,2.667680e+03
1.895685e+03,2.669987e+03
1.898577e+03,2.649389e+03
1.901470e+03,2.667301e+03
1.904363e+03,2.636265e+03
1.907255e+03,2.644725e+03
1.910148e+03,2.651134e+03
1.913041e+03,2.630741e+03
1.915933e+03,2.593413e+03
1.918826e+03,2.610038e+03
1.921719e+03,2.611852e+03
1.924612e+03,2.618365e+03
1.927504e+03,2.591206e+03
1.930397e+03,2.609378e+03
1.933290e+03,2.555177e+03
1.936182e+03,2.568146e+03
1.939075e+03,2.572047e+03
1.941968e+03,2.570675e+03
1.944860e+03,2.542722e+03
1.947753e+03,2.541349e+03
1.950646e+03,2.549890e+03
1.953539e+03,2.557412e+03
1.956431e+03,2.535919e+03
1.959324e+03,2.531988e+03
1.962217e+03,2.540306e+03
1.965109e+03,2.520393e+03
1.968002e+03,2.511290e+03
1.970895e+03,2.511746e+03
1.973787e+03,2.523751e+03
1.976680e+03,2.506751e+03
1.979573e+03,2.489392e+03
1.982466e+03,2.491676e+03
1.985358e+03,2.496241e+03
1.988251e+03,2.485997e+03
1.991144e+03,2.452224e+03
1.994036e+03,2.469801e+03
1.996929e+03,2.473039e+03
1.999822e+03,2.456055e+03
2.002714e+03,2.460094e+03
2.005607e+03,2.450509e+03
2.008500e+03,2.425321e+03
2.011393e+03,2.434158e+03
2.014285e+03,2.449128e+03
2.017178e+03,2.437335e+03
2.020071e+03,2.417619e+03
2.022963e+03,2.396354e+03
2.025856e+03,2.399793e+03
2.028749e+03,2.399575e+03
2.031641e+03,2.403736e+03
2.034534e+03,2.383096e+03
2.037427e+03,2.375530e+03
2.040320e+03,2.378910e+03
2.043212e+03,2.371614e+03
2.046105e+03,2.368158e+03
2.048998e+03,2.382160e+03
2.051890e+03,2.336416e+03
2.054783e+03,2.331846e+03
2.057676e+03,2.352087e+03
2.060568e+03,2.331276e+03
2.063461e+03,2.347865e+03
2.066354e+03,2.328049e+03
2.069247e+03,2.319842e+03
2.072139e+03,2.314300e+03
2.075032e+03,2.310149e+03
2.077925e+03,2.297696e+03
2.080817e+03,2.304925e+03
2.083710e+03,2.289271e+03
2.086603e+03,2.298719e+03
2.089496e+03,2.291907e+03
2.092388e+03,2.279514e+03
2.095281e+03,2.289642e+03
2.098174e+03,2.269813e+03
2.101066e+03,2.255202e+03
2.103959e+03,2.262288e+03
2.106852e+03,2.235955e+03
2.109744e+03,2.248520e+03
2.112637e+03,2.233300e+03
2.115530e+03,2.225753e+03
2.118422e+03,2.208883e+03
2.121315e+03,2.223093e+03
2.124208e+03,2.232422e+03
2.127101e+03,2.199285e+03
2.129993e+03,2.214828e+03
2.132886e+03,2.219103e+03
2.135779e+03,2.195743e+03
2.138671e+03,2.194227e+03
2.141564e+03,2.180727e+03
2.144457e+03,2.174160e+03
2.147350e+03,2.156671e+03
2.150242e+03,2.163384e+03
2.153135e+03,2.160427e+03
2.156028e+03,2.154741e+03
2.158920e+03,2.137048e+03
2.161813e+03,2.137707e+03
2.164706e+03,2.130429e+03
2.167598e+03,2.126997e+03
2.170491e+03,2.137564e+03
2.173384e+03,2.120692e+03
2.176277e+03,2.119258e+03
2.179169e+03,2.118189e+03
2.182062e+03,2.108968e+03
2.184955e+03,2.108440e+03
2.187847e+03,2.110582e+03
2.190740e+03,2.084387e+03
2.193633e+03,2.067294e+03
2.196525e+03,2.081710e+03
2.199418e+03,2.048436e+03
2.202311e+03,2.069092e+03
2.205204e+03,2.068684e+03
2.208096e+03,2.071462e+03
2.210989e+03,2.069570e+03
2.213882e+03,2.034010e+03
2.216774e+03,2.070587e+03
2.219667e+03,2.034183e+03
2.222560e+03,2.044869e+03
2.225452e+03,2.026277e+03
2.228345e+03,2.004395e+03
2.231238e+03,2.023178e+03
2.234131e+03,2.004541e+03
2.237023e+03,2.020234e+03
2.239916e+03,2.013977e+03
2.242809e+03,2.005070e+03
2.245701e+03,1.991370e+03
2.248594e+03,1.983704e+03
2.251487e+03,1.990588e+03
2.254379e+03,1.974977e+03
2.257272e+03,1.982312e+03
2.260165e+03,1.964605e+03
2.263058e+03,1.972780e+03
2.265950e+03,1.967808e+03
2.268843e+03,1.949681e+03
2.271736e+03,1.942847e+03
2.274628e+03,1.927696e+03
2.277521e+03,1.945002e+03
2.280414e+03,1.936051e+03
2.283306e+03,1.934285e+03
2.286199e+03,1.938184e+03
2.289092e+03,1.944563e+03
2.291985e+03,1.901707e+03
2.294877e+03,1.908771e+03
2.297770e+03,1.903558e+03
2.300663e+03,1.898686e+03
2.303555e+03,1.905312e+03
2.306448e+03,1.876458e+03
2.309341e+03,1.892241e+03
2.312233e+03,1.873415e+03
2.315126e+03,1.879966e+03
2.318019e+03,1.886337e+03
2.320912e+03,1.853832e+03
2.323804e+03,1.868796e+03
2.326697e+03,1.850162e+03
2.329590e+03,1.864492e+03
2.332482e+03,1.838373e+03
2.335375e+03,1.855536e+03
2.338268e+03,1.843481e+03
2.341160e+03,1.843432e+03
2.344053e+03,1.822654e+03
2.346946e+03,1.832249e+03
2.349839e+03,1.826851e+03
2.352731e+03,1.830337e+03
2.355624e+03,1.801858e+03
2.358517e+03,1.832828e+03
2.361409e+03,1.816285e+03
2.364302e+03,1.812608e+03
2.367195e+03,1.788835e+03
2.370087e+03,1.812427e+03
2.372980e+03,1.805192e+03
2.375873e+03,1.780635e+03
2.378766e+03,1.787223e+03
2.381658e+03,1.791266e+03
2.384551e+03,1.783921e+03
2.387444e+03,1.766489e+03
2.390336e+03,1.779896e+03
2.393229e+03,1.767682e+03
2.396122e+03,1.732725e+03
2.399014e+03,1.763447e+03
2.401907e+03,1.756046e+03
2.404800e+03,1.741489e+03
2.407693e+03,1.752680e+03
2.410585e+03,1.754021e+03
2.413478e+03,1.722018e+03
2.416371e+03,1.739435e+03
2.419263e+03,1.729374e+03
2.422156e+03,1.716085e+03
2.425049e+03,1.735433e+03
2.427941e+03,1.734485e+03
2.430834e+03,1.721846e+03
2.433727e+03,1.701560e+03
2.436620e+03,1.715219e+03
2.439512e+03,1.692007e+03
2.442405e+03,1.688487e+03
2.445298e+03,1.681801e+03
2.448190e+03,1.674635e+03
2.451083e+03,1.704736e+03
2.453976e+03,1.687866e+03
2.456868e+03,1.679196e+03
2.459761e+03,1.680699e+03
2.462654e+03,1.663425e+03
2.465547e+03,1.649813e+03
2.468439e+03,1.670552e+03
2.471332e+03,1.635492e+03
2.474225e+03,1.653148e+03
2.477117e+03,1.658367e+03
2.480010e+03,1.665789e+03
2.482903e+03,1.640460e+03
2.485795e+03,1.642703e+03
2.488688e+03,1.634982e+03
2.491581e+03,1.632456e+03
2.494474e+03,1.650428e+03
2.497366e+03,1.646124e+03
2.500259e+03,1.636869e+03
2.503152e+03,1.627537e+03
2.506044e+03,1.627953e+03
2.508937e+03,1.606762e+03
2.511830e+03,1.617006e+03
2.514722e+03,1.623225e+03
2.517615e+03,1.616624e+03
2.520508e+03,1.602902e+03
2.523401e+03,1.588144e+03
2.526293e+03,1.585573e+03
2.529186e+03,1.621516e+03
2.532079e+03,1.587985e+03
2.534971e+03,1.596581e+03
2.537864e+03,1.587131e+03
2.540757e+03,1.583519e+03
2.543649e+03,1.577142e+03
2.546542e+03,1.607181e+03
2.549435e+03,1.579756e+03
2.552328e+03,1.592274e+03
2.555220e+03,1.567040e+03
2.558113e+03,1.569836e+03
2.561006e+03,1.574665e+03
2.563898e+03,1.565774e+03
2.566791e+03,1.553615e+03
2.569684e+03,1.573751e+03
2.572576e+03,1.558875e+03
2.575469e+03,1.558013e+03
2.578362e+03,1.542783e+03
2.581255e+03,1.540666e+03
2.584147e+03,1.533253e+03
2.587040e+03,1.537435e+03
2.589933e+03,1.537075e+03
2.592825e+03,1.536168e+03
2.595718e+03,1.527038e+03
2.598611e+03,1.514644e+03
2.601503e+03,1.542365e+03
2.604396e+03,1.510389e+03
2.607289e+03,1.516308e+03
2.610182e+03,1.501411e+03
2.613074e+03,1.515061e+03
2.615967e+03,1.499534e+03
2.618860e+03,1.504380e+03
2.621752e+03,1.502407e+03
2.624645e+03,1.508029e+03
2.627538e+03,1.483114e+03
2.630430e+03,1.487269e+03
2.633323e+03,1.493171e+03
2.636216e+03,1.485965e+03
2.639109e+03,1.492646e+03
2.642001e+03,1.471686e+03
2.644894e+03,1.485699e+03
2.647787e+03,1.474732e+03
2.650679e+03,1.459661e+03
2.653572e+03,1.477064e+03
2.656465e+03,1.471244e+03
2.659357e+03,1.448606e+03
2.662250e+03,1.466931e+03
2.665143e+03,1.465437e+03
2.668036e+03,1.482307e+03
2.670928e+03,1.465524e+03
2.673821e+03,1.450685e+03
2.676714e+03,1.440761e+03
2.679606e+03,1.429025e+03
2.682499e+03,1.459719e+03
2.685392e+03,1.452163e+03
2.688284e+03,1.445006e+03
2.691177e+03,1.453755e+03
2.694070e+03,1.451512e+03
2.696963e+03,1.418150e+03
2.699855e+03,1.469214e+03
2.702748e+03,1.412875e+03
2.705641e+03,1.412149e+03
2.708533e+03,1.431825e+03
2.711426e+03,1.412168e+03
2.714319e+03,1.432131e+03
2.717211e+03,1.430304e+03
2.720104e+03,1.417581e+03
2.722997e+03,1.425506e+03
2.725890e+03,1.414343e+03
2.728782e+03,1.402582e+03
2.731675e+03,1.394735e+03
2.734568e+03,1.410971e+03
2.737460e+03,1.396857e+03
2.740353e+03,1.399065e+03
2.743246e+03,1.388908e+03
2.746138e+03,1.374992e+03
2.749031e+03,1.410159e+03
2.751924e+03,1.385297e+03
2.754817e+03,1.385799e+03
2.757709e+03,1.364775e+03
2.760602e+03,1.363005e+03
2.763495e+03,1.379557e+03
2.766387e+03,1.401602e+03
2.769280e+03,1.380638e+03
2.772173e+03,1.377740e+03
2.775065e+03,1.356173e+03
2.777958e+03,1.366617e+03
2.780851e+03,1.352252e+03
2.783744e+03,1.348362e+03
2.786636e+03,1.331526e+03
2.789529e+03,1.359611e+03
2.792422e+03,1.355007e+03
2.795314e+03,1.368721e+03
2.798207e+03,1.355662e+03
2.801100e+03,1.342637e+03
2.803992e+03,1.340101e+03
2.806885e+03,1.342083e+03
2.809778e+03,1.340442e+03
2.812671e+03,1.331220e+03
2.815563e+03,1.335707e+03
2.818456e+03,1.354309e+03
2.821349e+03,1.296491e+03
2.824241e+03,1.308687e+03
2.827134e+03,1.331125e+03
2.830027e+03,1.320435e+03
2.832919e+03,1.327719e+03
2.835812e+03,1.348229e+03
2.838705e+03,1.332810e+03
2.841598e+03,1.325200e+03
2.844490e+03,1.322066e+03
2.847383e+03,1.339411e+03
2.850276e+03,1.321147e+03
2.853168e+03,1.332082e+03
2.856061e+03,1.335233e+03
2.858954e+03,1.301074e+03
2.861846e+03,1.324549e+03
2.864739e+03,1.324650e+03
2.867632e+03,1.335682e+03
2.870525e+03,1.328685e+03
2.873417e+03,1.320360e+03
2.876310e+03,1.334518e+03
2.879203e+03,1.314334e+03
2.882095e+03,1.321216e+03
2.884988e+03,1.309241e+03
2.887881e+03,1.321688e+03
2.890773e+03,1.291065e+03
2.893666e+03,1.321166e+03
2.896559e+03,1.345386e+03
2.899452e+03,1.326013e+03
2.902344e+03,1.279693e+03
2.905237e+03,1.325616e+03
2.908130e+03,1.304225e+03
2.911022e+03,1.324746e+03
2.913915e+03,1.309243e+03
2.916808e+03,1.299342e+03
2.919700e+03,1.283418e+03
2.922593e+03,1.279401e+03
2.925486e+03,1.259736e+03
2.928379e+03,1.295449e+03
2.931271e+03,1.283148e+03
2.934164e+03,1.264689e+03
2.937057e+03,1.267119e+03
2.939949e+03,1.271898e+03
2.942842e+03,1.278446e+03
2.945735e+03,1.261008e+03
2.948627e+03,1.276788e+03
2.951520e+03,1.305696e+03
2.954413e+03,1.247115e+03
2.957306e+03,1.307100e+03
2.960198e+03,1.238660e+03
2.963091e+03,1.276283e+03
2.965984e+03,1.283557e+03
2.968876e+03,1.229053e+03
2.971769e+03,1.230658e+03
2.974662e+03,1.254342e+03
2.977554e+03,1.235462e+03
2.980447e+03,1.222844e+03
2.983340e+03,1.221451e+03
2.986233e+03,1.193460e+03
2.989125e+03,1.212424e+03
2.992018e+03,1.225883e+03
2.994911e+03,1.241398e+03
2.997803e+03,1.232903e+03
3.000696e+03,1.223595e+03
3.003589e+03,1.232033e+03
3.006481e+03,1.227577e+03
3.009374e+03,1.245575e+03
3.012267e+03,1.212594e+03
3.015160e+03,1.190814e+03
3.018052e+03,1.175833e+03
3.020945e+03,1.206063e+03
3.023838e+03,1.215533e+03
3.026730e+03,1.215801e+03
3.029623e+03,1.197828e+03
3.032516e+03,1.203794e+03
3.035408e+03,1.178225e+03
3.038301e+03,1.192448e+03
3.041194e+03,1.207546e+03
3.044087e+03,1.188286e+03
3.046979e+03,1.183503e+03
3.049872e+03,1.203444e+03
3.052765e+03,1.170245e+03
3.055657e+03,1.195874e+03
3.058550e+03,1.199546e+03
3.061443e+03,1.191930e+03
3.064335e+03,1.161723e+03
3.067228e+03,1.198382e+03
3.070121e+03,1.193391e+03
3.073014e+03,1.212552e+03
3.075906e+03,1.174980e+03
3.078799e+03,1.227839e+03
3.081692e+03,1.153192e+03
3.084584e+03,1.169405e+03
3.087477e+03,1.140228e+03
3.090370e+03,1.197115e+03
3.093262e+03,1.184527e+03
3.096155e+03,1.202031e+03
3.099048e+03,1.149026e+03
3.101941e+03,1.178004e+03
3.104833e+03,1.179881e+03
3.107726e+03,1.182437e+03
3.110619e+03,1.179484e+03
3.113511e+03,1.167156e+03
3.116404e+03,1.176183e+03
3.119297e+03,1.193879e+03
3.122189e+03,1.193984e+03
3.125082e+03,1.201661e+03
3.127975e+03,1.195715e+03
3.130868e+03,1.139491e+03
3.133760e+03,1.157554e+03
3.136653e+03,1.156567e+03
3.139546e+03,1.161144e+03
3.142438e+03,1.171930e+03
3.145331e+03,1.201175e+03
3.148224e+03,1.176560e+03
3.151116e+03,1.178453e+03
3.154009e+03,1.201657e+03
3.156902e+03,1.142854e+03
3.159795e+03,1.165349e+03
3.162687e+03,1.193542e+03
3.165580e+03,1.182598e+03
3.168473e+03,1.157652e+03
3.171365e+03,1.168121e+03
3.174258e+03,1.162759e+03
3.177151e+03,1.153090e+03
3.180043e+03,1.173776e+03
3.182936e+03,1.164186e+03
3.185829e+03,1.207061e+03
3.188722e+03,1.147824e+03
3.191614e+03,1.168801e+03
3.194507e+03,1.204373e+03
3.197400e+03,1.187669e+03
3.200292e+03,1.193262e+03
3.203185e+03,0.000000e+00
3.206078e+03,0.000000e+00
3.208970e+03,0.000000e+00
3.211863e+03,0.000000e+00
3.214756e+03,0.000000e+00
3.217649e+03,0.000000e+00
3.220541e+03,0.000000e+00
3.223434e+03,0.000000e+00
3.226327e+03,0.000000e+00
3.229219e+03,0.000000e+00
3.232112e+03,0.000000e+00
3.235005e+03,0.000000e+00
3.237897e+03,0.000000e+00
3.240790e+03,0.000000e+00
3.243683e+03,0.000000e+00
3.246576e+03,0.000000e+00
3.249468e+03,0.000000e+00
3.252361e+03,0.000000e+00
3.255254e+03,0.000000e+00
3.258146e+03,0.000000e+00
3.261039e+03,0.000000e+00
3.263932e+03,0.000000e+00
3.266824e+03,0.000000e+00
3.269717e+03,0.000000e+00
3.272610e+03,0.000000e+00
3.275503e+03,0.000000e+00
3.278395e+03,0.000000e+00
3.281288e+03,0.000000e+00
3.284181e+03,0.000000e+00
3.287073e+03,0.000000e+00
3.289966e+03,0.000000e+00
3.292859e+03,0.000000e+00
3.295751e+03,0.000000e+00
3.298644e+03,0.000000e+00
3.301537e+03,0.000000e+00
3.304430e+03,0.000000e+00
3.307322e+03,0.000000e+00
3.310215e+03,0.000000e+00
3.313108e+03,0.000000e+00
3.316000e+03,0.000000e+00
3.318893e+03,0.000000e+00
3.321786e+03,0.000000e+00
3.324678e+03,0.000000e+00
3.327571e+03,0.000000e+00
3.330464e+03,0.000000e+00
3.333357e+03,0.000000e+00
3.336249e+03,0.000000e+00
3.339142e+03,0.000000e+00
3.342035e+03,0.000000e+00
3.344927e+03,0.000000e+00
3.347820e+03,0.000000e+00
3.350713e+03,0.000000e+00
3.353605e+03,0.000000e+00
3.356498e+03,0.000000e+00
3.359391e+03,0.000000e+00
3.362284e+03,0.000000e+00
3.365176e+03,0.000000e+00
3.368069e+03,0.000000e+00
3.370962e+03,0.000000e+00
3.373854e+03,0.000000e+00
3.376747e+03,0.000000e+00
3.379640e+03,0.000000e+00
3.382532e+03,0.000000e+00
3.385425e+03,0.000000e+00
3.388318e+03,0.000000e+00
3.391211e+03,0.000000e+00
3.394103e+03,0.000000e+00
3.396996e+03,0.000000e+00
3.399889e+03,0.000000e+00
3.402781e+03,0.000000e+00
3.405674e+03,0.000000e+00
3.408567e+03,0.000000e+00
3.411459e+03,0.000000e+00
3.414352e+03,0.000000e+00
3.417245e+03,0.000000e+00
3.420138e+03,0.000000e+00
3.423030e+03,0.000000e+00
3.425923e+03,0.000000e+00
3.428816e+03,0.000000e+00
3.431708e+03,0.000000e+00
3.434601e+03,0.000000e+00
3.437494e+03,0.000000e+00
3.440386e+03,0.000000e+00
3.443279e+03,0.000000e+00
3.446172e+03,0.000000e+00
3.449065e+03,0.000000e+00
3.451957e+03,0.000000e+00
3.454850e+03,0.000000e+00
3.457743e+03,0.000000e+00
3.460635e+03,0.000000e+00
3.463528e+03,0.000000e+00
3.466421e+03,0.000000e+00
3.469313e+03,0.000000e+00
3.472206e+03,0.000000e+00
3.475099e+03,0.000000e+00
3.477992e+03,0.000000e+00
3.480884e+03,0.000000e+00
3.483777e+03,0.000000e+00
3.486670e+03,0.000000e+00
3.489563e+03,0.000000e+00
3.492455e+03,0.000000e+00
3.495348e+03,0.000000e+00
3.498240e+03,0.000000e+00
3.500169e+03,0.000000e+00