File: RAMAN_data/13042023_r2/black fibre1.CSV
9.931763e+01,0.000000e+00
1.022103e+02,0.000000e+00
1.051030e+02,0.000000e+00
1.079957e+02,0.000000e+00
1.108884e+02,0.000000e+00
1.137811e+02,0.000000e+00
1.166738e+02,0.000000e+00
1.195665e+02,0.000000e+00
1.224592e+02,0.000000e+00
1.253519e+02,0.000000e+00
1.282446e+02,0.000000e+00
1.311373e+02,0.000000e+00
1.340300e+02,0.000000e+00
1.369227e+02,0.000000e+00
1.398154e+02,0.000000e+00
1.427081e+02,0.000000e+00
1.456008e+02,0.000000e+00
1.484935e+02,0.000000e+00
1.513862e+02,0.000000e+00
1.542789e+02,0.000000e+00
1.571716e+02,0.000000e+00
1.600643e+02,0.000000e+00
1.629570e+02,0.000000e+00
1.658497e+02,0.000000e+00
1.687424e+02,0.000000e+00
1.716351e+02,0.000000e+00
1.745278e+02,0.000000e+00
1.774205e+02,0.000000e+00
1.803132e+02,0.000000e+00
1.832059e+02,0.000000e+00
1.860986e+02,0.000000e+00
1.889913e+02,0.000000e+00
1.918840e+02,0.000000e+00
1.947767e+02,0.000000e+00
1.976694e+02,0.000000e+00
2.005621e+02,2.145577e+03
2.034548e+02,2.139302e+03
2.063475e+02,2.140725e+03
2.092402e+02,2.118372e+03
2.121329e+02,2.113156e+03
2.150256e+02,2.107098e+03
2.179183e+02,2.102204e+03
2.208110e+02,2.107271e+03
2.237037e+02,2.097211e+03
2.265964e+02,2.088103e+03
2.294892e+02,2.078840e+03
2.323819e+02,2.091448e+03
2.352746e+02,2.082826e+03
2.381673e+02,2.076202e+03
2.410600e+02,2.055901e+03
2.439527e+02,2.056406e+03
2.468454e+02,2.048238e+03
2.497381e+02,2.040335e+03
2.526308e+02,2.023598e+03
2.555235e+02,2.020660e+03
2.584161e+02,2.017001e+03
2.613088e+02,2.004947e+03
2.642015e+02,1.998006e+03
2.670942e+02,2.007093e+03
2.699869e+02,2.005024e+03
2.728796e+02,1.986286e+03
2.757723e+02,1.971889e+03
2.786650e+02,1.972770e+03
2.815577e+02,1.969609e+03
2.844504e+02,1.958969e+03
2.873431e+02,1.948984e+03
2.902358e+02,1.950530e+03
2.931285e+02,1.937475e+03
2.960212e+02,1.923823e+03
2.989139e+02,1.925211e+03
3.018066e+02,1.920903e+03
3.046993e+02,1.911985e+03
3.075920e+02,1.913236e+03
3.104847e+02,1.902331e+03
3.133774e+02,1.899705e+03
3.162701e+02,1.879924e+03
3.191628e+02,1.881699e+03
3.220555e+02,1.879839e+03
3.249482e+02,1.876705e+03
3.278409e+02,1.869065e+03
3.307336e+02,1.861540e+03
3.336263e+02,1.855713e+03
3.365190e+02,1.854754e+03
3.394117e+02,1.852781e+03
3.423044e+02,1.829397e+03
3.451971e+02,1.832406e+03
3.480898e+02,1.816438e+03
3.509825e+02,1.809908e+03
3.538752e+02,1.806286e+03
3.567680e+02,1.805645e+03
3.596607e+02,1.786670e+03
3.625534e+02,1.782450e+03
3.654461e+02,1.775674e+03
3.683388e+02,1.787662e+03
3.712315e+02,1.774600e+03
3.741242e+02,1.788483e+03
3.770169e+02,1.770143e+03
3.799096e+02,1.763800e+03
3.828023e+02,1.755393e+03
3.856950e+02,1.752746e+03
3.885877e+02,1.733074e+03
3.914804e+02,1.721756e+03
3.943731e+02,1.704587e+03
3.972658e+02,1.717845e+03
4.001585e+02,1.693454e+03
4.030512e+02,1.690366e+03
4.059439e+02,1.688521e+03
4.088366e+02,1.689992e+03
4.117293e+02,1.679188e+03
4.146220e+02,1.668150e+03
4.175147e+02,1.670617e+03
4.204074e+02,1.664265e+03
4.233001e+02,1.656977e+03
4.261928e+02,1.650867e+03
4.290855e+02,1.656287e+03
4.319782e+02,1.652046e+03
4.348709e+02,1.652204e+03
4.377636e+02,1.655801e+03
4.406563e+02,1.637791e+03
4.435490e+02,1.614734e+03
4.464417e+02,1.640302e+03
4.493344e+02,1.615754e+03
4.522271e+02,1.609219e+03
4.551198e+02,1.611688e+03
4.580125e+02,1.606090e+03
4.609052e+02,1.594167e+03
4.637979e+02,1.595158e+03
4.666906e+02,1.586010e+03
4.695833e+02,1.565006e+03
4.724760e+02,1.569406e+03
4.753687e+02,1.567097e+03
4.782614e+02,1.558067e+03
4.811541e+02,1.563635e+03
4.840468e+02,1.553877e+03
4.869395e+02,1.542884e+03
4.898322e+02,1.543796e+03
4.927249e+02,1.536032e+03
4.956176e+02,1.532271e+03
4.985103e+02,1.526888e+03
5.014030e+02,1.520461e+03
5.042957e+02,1.514244e+03
5.071884e+02,1.517003e+03
5.100811e+02,1.499432e+03
5.129738e+02,1.504475e+03
5.158665e+02,1.497272e+03
5.187592e+02,1.493633e+03
5.216519e+02,1.484488e+03
5.245446e+02,1.486980e+03
5.274373e+02,1.483307e+03
5.303300e+02,1.474047e+03
5.332227e+02,1.466862e+03
5.361154e+02,1.457591e+03
5.390081e+02,1.462529e+03
5.419008e+02,1.458747e+03
5.447935e+02,1.456743e+03
5.476862e+02,1.450557e+03
5.505789e+02,1.437170e+03
5.534716e+02,1.435398e+03
5.563643e+02,1.429801e+03
5.592570e+02,1.429157e+03
5.621497e+02,1.432531e+03
5.650424e+02,1.421861e+03
5.679351e+02,1.422741e+03
5.708278e+02,1.419355e+03
5.737205e+02,1.402291e+03
5.766132e+02,1.410883e+03
5.795059e+02,1.404073e+03
5.823986e+02,1.406261e+03
5.852913e+02,1.401838e+03
5.881840e+02,1.388143e+03
5.910767e+02,1.388262e+03
5.939694e+02,1.379565e+03
5.968621e+02,1.383221e+03
5.997548e+02,1.375305e+03
6.026475e+02,1.371844e+03
6.055402e+02,1.373557e+03
6.084329e+02,1.368336e+03
6.113256e+02,1.363281e+03
6.142183e+02,1.353023e+03
6.171110e+02,1.344261e+03
6.200037e+02,1.342776e+03
6.228964e+02,1.339916e+03
6.257891e+02,1.340934e+03
6.286818e+02,1.337568e+03
6.315745e+02,1.342945e+03
6.344672e+02,1.329554e+03
6.373599e+02,1.335667e+03
6.402526e+02,1.336933e+03
6.431453e+02,1.319031e+03
6.460380e+02,1.320613e+03
6.489307e+02,1.313487e+03
6.518234e+02,1.310389e+03
6.547161e+02,1.302866e+03
6.576088e+02,1.302268e+03
6.605015e+02,1.292351e+03
6.633942e+02,1.297141e+03
6.662869e+02,1.305791e+03
6.691796e+02,1.301032e+03
6.720723e+02,1.280823e+03
6.749650e+02,1.278921e+03
6.778577e+02,1.266432e+03
6.807504e+02,1.282419e+03
6.836431e+02,1.283354e+03
6.865358e+02,1.264111e+03
6.894285e+02,1.255595e+03
6.923212e+02,1.264660e+03
6.952139e+02,1.260414e+03
6.981066e+02,1.270754e+03
7.009993e+02,1.262788e+03
7.038920e+02,1.251551e+03
7.067847e+02,1.238956e+03
7.096774e+02,1.232266e+03
7.125701e+02,1.237399e+03
7.154628e+02,1.240449e+03
7.183555e+02,1.249172e+03
7.212482e+02,1.239551e+03
7.241409e+02,1.239002e+03
7.270336e+02,1.240759e+03
7.299263e+02,1.224715e+03
7.328190e+02,1.227642e+03
7.357117e+02,1.222783e+03
7.386044e+02,1.217723e+03
7.414971e+02,1.222960e+03
7.443898e+02,1.210221e+03
7.472825e+02,1.220626e+03
7.501752e+02,1.206917e+03
7.530679e+02,1.200997e+03
7.559606e+02,1.207094e+03
7.588533e+02,1.202495e+03
7.617460e+02,1.196774e+03
7.646387e+02,1.199015e+03
7.675314e+02,1.199171e+03
7.704241e+02,1.181711e+03
7.733168e+02,1.184509e+03
7.762095e+02,1.180051e+03
7.791022e+02,1.194496e+03
7.819949e+02,1.171662e+03
7.848876e+02,1.177693e+03
7.877803e+02,1.169908e+03
7.906730e+02,1.168327e+03
7.935657e+02,1.167590e+03
7.964584e+02,1.163939e+03
7.993511e+02,1.166588e+03
8.022438e+02,1.154858e+03
8.051365e+02,1.155052e+03
8.080292e+02,1.161485e+03
8.109219e+02,1.154729e+03
8.138146e+02,1.160334e+03
8.167073e+02,1.145635e+03
8.196000e+02,1.138731e+03
8.224927e+02,1.142410e+03
8.253854e+02,1.139402e+03
8.282781e+02,1.126979e+03
8.311708e+02,1.136557e+03
8.340635e+02,1.133701e+03
8.369562e+02,1.135934e+03
8.398489e+02,1.135863e+03
8.427416e+02,1.122978e+03
8.456343e+02,1.122871e+03
8.485270e+02,1.118381e+03
8.514197e+02,1.110971e+03
8.543124e+02,1.121864e+03
8.572051e+02,1.106587e+03
8.600978e+02,1.107780e+03
8.629905e+02,1.114277e+03
8.658832e+02,1.102620e+03
8.687759e+02,1.112079e+03
8.716686e+02,1.105429e+03
8.745613e+02,1.112948e+03
8.774540e+02,1.117759e+03
8.803467e+02,1.106058e+03
8.832394e+02,1.114955e+03
8.861321e+02,1.107748e+03
8.890248e+02,1.092739e+03
8.919175e+02,1.092195e+03
8.948102e+02,1.089632e+03
8.977029e+02,1.085607e+03
9.005956e+02,1.081071e+03
9.034883e+02,1.079043e+03
9.063810e+02,1.068117e+03
9.092737e+02,1.070761e+03
9.121664e+02,1.063247e+03
9.150591e+02,1.056539e+03
9.179518e+02,1.072131e+03
9.208445e+02,1.058110e+03
9.237372e+02,1.060708e+03
9.266299e+02,1.051973e+03
9.295226e+02,1.054568e+03
9.324153e+02,1.047853e+03
9.353080e+02,1.051964e+03
9.382007e+02,1.044235e+03
9.410934e+02,1.044462e+03
9.439861e+02,1.046458e+03
9.468788e+02,1.035214e+03
9.497715e+02,1.047500e+03
9.526642e+02,1.039775e+03
9.555569e+02,1.042360e+03
9.584496e+02,1.029401e+03
9.613423e+02,1.039863e+03
9.642350e+02,1.036817e+03
9.671277e+02,1.025128e+03
9.700204e+02,1.029806e+03
9.729131e+02,1.020379e+03
9.758058e+02,1.022440e+03
9.786985e+02,1.013733e+03
9.815912e+02,1.012181e+03
9.844839e+02,1.009231e+03
9.873766e+02,1.011342e+03
9.902693e+02,1.007536e+03
9.931620e+02,1.016568e+03
9.960547e+02,1.007204e+03
9.989474e+02,1.009490e+03
1.001840e+03,1.000873e+03
1.004733e+03,9.985912e+02
1.007626e+03,9.945804e+02
1.010518e+03,9.909852e+02
1.013411e+03,9.865688e+02
1.016304e+03,9.919659e+02
1.019196e+03,9.908124e+02
1.022089e+03,9.881504e+02
1.024982e+03,9.880338e+02
1.027875e+03,9.871124e+02
1.030767e+03,9.812399e+02
1.033660e+03,9.775889e+02
1.036552e+03,9.875865e+02
1.039445e+03,9.863724e+02
1.042338e+03,9.819788e+02
1.045231e+03,9.738002e+02
1.048123e+03,9.733880e+02
1.051016e+03,9.662381e+02
1.053909e+03,9.750280e+02
1.056802e+03,9.724142e+02
1.059694e+03,9.701487e+02
1.062587e+03,9.640010e+02
1.065479e+03,9.704699e+02
1.068372e+03,9.686804e+02
1.071265e+03,9.673848e+02
1.074158e+03,9.731607e+02
1.077050e+03,9.662151e+02
1.079943e+03,9.560897e+02
1.082836e+03,9.653708e+02
1.085729e+03,9.772277e+02
1.088621e+03,9.813828e+02
1.091514e+03,9.825346e+02
1.094406e+03,9.816287e+02
1.097299e+03,9.802351e+02
1.100192e+03,9.715818e+02
1.103085e+03,9.668040e+02
1.105977e+03,9.610009e+02
1.108870e+03,9.521093e+02
1.111763e+03,9.578843e+02
1.114656e+03,9.476895e+02
1.117548e+03,9.545425e+02
1.120441e+03,9.461653e+02
1.123334e+03,9.492595e+02
1.126226e+03,9.414463e+02
1.129119e+03,9.289925e+02
1.132012e+03,9.277702e+02
1.134904e+03,9.191199e+02
1.137797e+03,9.110392e+02
1.140690e+03,9.105506e+02
1.143583e+03,9.107441e+02
1.146475e+03,9.031446e+02
1.149368e+03,9.146732e+02
1.152261e+03,9.079622e+02
1.155153e+03,9.016130e+02
1.158046e+03,8.998746e+02
1.160939e+03,8.894232e+02
1.163831e+03,8.854944e+02
1.166724e+03,8.864118e+02
1.169617e+03,8.913369e+02
1.172510e+03,8.867236e+02
1.175402e+03,8.787558e+02
1.178295e+03,8.717022e+02
1.181188e+03,8.781457e+02
1.184080e+03,8.774259e+02
1.186973e+03,8.758896e+02
1.189866e+03,8.701072e+02
1.192758e+03,8.658065e+02
1.195651e+03,8.728935e+02
1.198544e+03,8.757640e+02
1.201437e+03,8.676600e+02
1.204329e+03,8.657618e+02
1.207222e+03,8.606041e+02
1.210115e+03,8.528757e+02
1.213007e+03,8.520621e+02
1.215900e+03,8.522889e+02
1.218793e+03,8.524379e+02
1.221685e+03,8.475561e+02
1.224578e+03,8.510096e+02
1.227471e+03,8.508541e+02
1.230364e+03,8.445977e+02
1.233256e+03,8.370611e+02
1.236149e+03,8.435638e+02
1.239042e+03,8.385986e+02
1.241934e+03,8.404510e+02
1.244827e+03,8.361432e+02
1.247720e+03,8.348400e+02
1.250612e+03,8.354843e+02
1.253505e+03,8.256505e+02
1.256398e+03,8.327346e+02
1.259291e+03,8.283546e+02
1.262183e+03,8.362006e+02
1.265076e+03,8.265117e+02
1.267969e+03,8.337941e+02
1.270861e+03,8.251342e+02
1.273754e+03,8.297807e+02
1.276647e+03,8.228226e+02
1.279539e+03,8.309635e+02
1.282432e+03,8.212787e+02
1.285325e+03,8.157691e+02
1.288218e+03,8.150453e+02
1.291110e+03,8.204869e+02
1.294003e+03,8.201373e+02
1.296896e+03,8.153824e+02
1.299788e+03,8.089669e+02
1.302681e+03,8.043708e+02
1.305574e+03,8.104097e+02
1.308466e+03,8.099820e+02
1.311359e+03,8.070640e+02
1.314252e+03,8.101122e+02
1.317145e+03,8.064247e+02
1.320037e+03,8.151356e+02
1.322930e+03,8.109091e+02
1.325823e+03,8.067117e+02
1.328715e+03,8.114507e+02
1.331608e+03,8.041826e+02
1.334501e+03,8.072153e+02
1.337393e+03,8.061059e+02
1.340286e+03,8.064353e+02
1.343179e+03,8.027216e+02
1.346072e+03,8.003593e+02
1.348964e+03,8.015736e+02
1.351857e+03,7.876201e+02
1.354750e+03,7.923124e+02
1.357642e+03,7.951064e+02
1.360535e+03,7.833298e+02
1.363428e+03,7.854993e+02
1.366320e+03,7.815619e+02
1.369213e+03,7.817267e+02
1.372106e+03,7.873173e+02
1.374999e+03,7.821337e+02
1.377891e+03,7.833800e+02
1.380784e+03,7.855561e+02
1.383677e+03,7.806740e+02
1.386569e+03,7.735348e+02
1.389462e+03,7.647149e+02
1.392355e+03,7.652631e+02
1.395247e+03,7.575715e+02
1.398140e+03,7.598096e+02
1.401033e+03,7.615050e+02
1.403926e+03,7.535361e+02
1.406818e+03,7.512698e+02
1.409711e+03,7.594296e+02
1.412604e+03,7.591590e+02
1.415496e+03,7.526005e+02
1.418389e+03,7.485781e+02
1.421282e+03,7.522532e+02
1.424174e+03,7.411779e+02
1.427067e+03,7.437833e+02
1.429960e+03,7.437552e+02
1.432853e+03,7.421279e+02
1.435745e+03,7.345630e+02
1.438638e+03,7.355461e+02
1.441531e+03,7.317625e+02
1.444423e+03,7.355118e+02
1.447316e+03,7.254026e+02
1.450209e+03,7.227634e+02
1.453101e+03,7.239570e+02
1.455994e+03,7.296671e+02
1.458887e+03,7.245398e+02
1.461780e+03,7.214655e+02
1.464672e+03,7.222842e+02
1.467565e+03,7.234384e+02
1.470458e+03,7.185402e+02
1.473350e+03,7.193433e+02
1.476243e+03,7.174180e+02
1.479136e+03,7.137713e+02
1.482028e+03,7.116434e+02
1.484921e+03,6.986492e+02
1.487814e+03,7.071709e+02
1.490707e+03,6.947083e+02
1.493599e+03,6.967998e+02
1.496492e+03,6.962708e+02
1.499385e+03,6.928620e+02
1.502277e+03,6.930676e+02
1.505170e+03,6.938422e+02
1.508063e+03,6.896602e+02
1.510955e+03,6.934557e+02
1.513848e+03,6.868979e+02
1.516741e+03,6.906812e+02
1.519634e+03,6.971769e+02
1.522526e+03,6.817587e+02
1.525419e+03,6.898391e+02
1.528312e+03,6.838741e+02
1.531204e+03,6.799984e+02
1.534097e+03,6.787693e+02
1.536990e+03,6.778924e+02
1.539882e+03,6.687304e+02
1.542775e+03,6.783382e+02
1.545668e+03,6.720309e+02
1.548561e+03,6.761055e+02
1.551453e+03,6.627883e+02
1.554346e+03,6.683894e+02
1.557239e+03,6.689637e+02
1.560131e+03,6.672282e+02
1.563024e+03,6.646309e+02
1.565917e+03,6.563478e+02
1.568809e+03,6.659951e+02
1.571702e+03,6.625347e+02
1.574595e+03,6.564552e+02
1.577488e+03,6.636068e+02
1.580380e+03,6.524816e+02
1.583273e+03,6.571482e+02
1.586166e+03,6.605772e+02
1.589058e+03,6.536187e+02
1.591951e+03,6.553827e+02
1.594844e+03,6.461481e+02
1.597736e+03,6.469117e+02
1.600629e+03,6.488015e+02
1.603522e+03,6.490217e+02
1.606415e+03,6.399643e+02
1.609307e+03,6.409466e+02
1.612200e+03,6.397092e+02
1.615093e+03,6.404761e+02
1.617985e+03,6.356951e+02
1.620878e+03,6.423666e+02
1.623771e+03,6.356833e+02
1.626663e+03,6.509932e+02
1.629556e+03,6.339385e+02
1.632449e+03,6.287512e+02
1.635342e+03,6.289427e+02
1.638234e+03,6.296078e+02
1.641127e+03,6.225871e+02
1.644020e+03,6.286520e+02
1.646912e+03,6.242917e+02
1.649805e+03,6.239753e+02
1.652698e+03,6.183492e+02
1.655590e+03,6.234686e+02
1.658483e+03,6.093505e+02
1.661376e+03,6.086991e+02
1.664269e+03,6.170018e+02
1.667161e+03,6.143746e+02
1.670054e+03,6.121014e+02
1.672947e+03,6.093033e+02
1.675839e+03,5.967052e+02
1.678732e+03,6.118563e+02
1.681625e+03,6.036069e+02
1.684517e+03,6.064987e+02
1.687410e+03,6.090528e+02
1.690303e+03,5.996226e+02
1.693196e+03,5.981855e+02
1.696088e+03,6.022802e+02
1.698981e+03,6.032238e+02
1.701874e+03,5.942296e+02
1.704766e+03,5.904002e+02
1.707659e+03,5.966302e+02
1.710552e+03,5.880934e+02
1.713444e+03,5.924389e+02
1.716337e+03,5.819065e+02
1.719230e+03,5.930495e+02
1.722123e+03,5.907568e+02
1.725015e+03,5.862003e+02
1.727908e+03,5.795079e+02
1.730801e+03,5.809633e+02
1.733693e+03,5.823910e+02
1.736586e+03,5.707179e+02
1.739479e+03,5.746426e+02
1.742371e+03,5.715048e+02
1.745264e+03,5.746566e+02
1.748157e+03,5.666838e+02
1.751050e+03,5.670660e+02
1.753942e+03,5.751149e+02
1.756835e+03,5.705830e+02
1.759728e+03,5.591066e+02
1.762620e+03,5.655032e+02
1.765513e+03,5.628693e+02
1.768406e+03,5.635219e+02
1.771298e+03,5.608015e+02
1.774191e+03,5.668711e+02
1.777084e+03,5.521188e+02
1.779977e+03,5.537254e+02
1.782869e+03,5.632250e+02
1.785762e+03,5.641494e+02
1.788655e+03,5.395836e+02
1.791547e+03,5.488860e+02
1.794440e+03,5.541747e+02
1.797333e+03,5.438537e+02
1.800225e+03,5.494456e+02
1.803118e+03,5.414921e+02
1.806011e+03,5.496302e+02
1.808904e+03,5.479854e+02
1.811796e+03,5.361563e+02
1.814689e+03,5.445305e+02
1.817582e+03,5.393112e+02
1.820474e+03,5.367070e+02
1.823367e+03,5.395717e+02
1.826260e+03,5.391276e+02
1.829152e+03,5.323501e+02
1.832045e+03,5.426680e+02
1.834938e+03,5.357304e+02
1.837831e+03,5.370714e+02
1.840723e+03,5.272981e+02
1.843616e+03,5.285531e+02
1.846509e+03,5.288804e+02
1.849401e+03,5.167526e+02
1.852294e+03,5.200593e+02
1.855187e+03,5.245933e+02
1.858079e+03,5.106477e+02
1.860972e+03,5.173351e+02
1.863865e+03,5.283480e+02
1.866758e+03,5.214576e+02
1.869650e+03,5.159969e+02
1.872543e+03,5.101980e+02
1.875436e+03,5.168398e+02
1.878328e+03,5.082339e+02
1.881221e+03,5.140383e+02
1.884114e+03,5.067773e+02
1.887006e+03,5.074351e+02
1.889899e+03,5.094034e+02
1.892792e+03,5.021261e+02
1.895685e+03,5.007376e+02
1.898577e+03,5.043352e+02
1.901470e+03,5.041317e+02
1.904363e+03,5.004317e+02
1.907255e+03,4.978226e+02
1.910148e+03,4.919101e+02
1.913041e+03,5.021607e+02
1.915933e+03,4.946783e+02
1.918826e+03,4.978997e+02
1.921719e+03,4.914911e+02
1.924612e+03,4.888992e+02
1.927504e+03,4.888466e+02
1.930397e+03,4.943378e+02
1.933290e+03,4.786123e+02
1.936182e+03,4.898193e+02
1.939075e+03,4.862141e+02
1.941968e+03,4.848179e+02
1.944860e+03,4.885366e+02
1.947753e+03,4.791483e+02
1.950646e+03,4.768165e+02
1.953539e+03,4.776983e+02
1.956431e+03,4.770799e+02
1.959324e+03,4.785495e+02
1.962217e+03,4.693518e+02
1.965109e+03,4.685558e+02
1.968002e+03,4.780152e+02
1.970895e+03,4.646554e+02
1.973787e+03,4.740257e+02
1.976680e+03,4.761249e+02
1.979573e+03,4.673750e+02
1.982466e+03,4.714077e+02
1.985358e+03,4.662405e+02
1.988251e+03,4.624799e+02
1.991144e+03,4.565851e+02
1.994036e+03,4.590326e+02
1.996929e+03,4.561646e+02
1.999822e+03,4.646036e+02
2.002714e+03,4.635287e+02
2.005607e+03,4.578553e+02
2.008500e+03,4.514752e+02
2.011393e+03,4.465575e+02
2.014285e+03,4.494731e+02
2.017178e+03,4.553520e+02
2.020071e+03,4.454589e+02
2.022963e+03,4.535950e+02
2.025856e+03,4.495374e+02
2.028749e+03,4.496328e+02
2.031641e+03,4.408526e+02
2.034534e+03,4.435341e+02
2.037427e+03,4.375516e+02
2.040320e+03,4.453065e+02
2.043212e+03,4.392562e+02
2.046105e+03,4.443282e+02
2.048998e+03,4.386594e+02
2.051890e+03,4.347965e+02
2.054783e+03,4.318083e+02
2.057676e+03,4.319274e+02
2.060568e+03,4.320932e+02
2.063461e+03,4.292068e+02
2.066354e+03,4.220460e+02
2.069247e+03,4.388773e+02
2.072139e+03,4.182989e+02
2.075032e+03,4.199180e+02
2.077925e+03,4.187698e+02
2.080817e+03,4.165469e+02
2.083710e+03,4.167940e+02
2.086603e+03,4.222475e+02
2.089496e+03,4.255434e+02
2.092388e+03,4.186630e+02
2.095281e+03,4.158419e+02
2.098174e+03,4.191921e+02
2.101066e+03,4.160097e+02
2.103959e+03,4.088121e+02
2.106852e+03,4.152901e+02
2.109744e+03,4.150059e+02
2.112637e+03,4.107837e+02
2.115530e+03,4.061431e+02
2.118422e+03,3.984312e+02
2.121315e+03,4.251924e+02
2.124208e+03,4.144747e+02
2.127101e+03,4.067133e+02
2.129993e+03,3.990418e+02
2.132886e+03,4.072163e+02
2.135779e+03,4.003802e+02
2.138671e+03,3.998543e+02
2.141564e+03,3.967994e+02
2.144457e+03,4.031225e+02
2.147350e+03,3.938306e+02
2.150242e+03,3.934498e+02
2.153135e+03,3.913372e+02
2.156028e+03,3.942426e+02
2.158920e+03,3.927551e+02
2.161813e+03,3.974540e+02
2.164706e+03,3.881096e+02
2.167598e+03,3.874643e+02
2.170491e+03,3.974125e+02
2.173384e+03,3.806960e+02
2.176277e+03,3.800048e+02
2.179169e+03,3.754628e+02
2.182062e+03,3.932149e+02
2.184955e+03,3.824583e+02
2.187847e+03,3.781642e+02
2.190740e+03,3.797717e+02
2.193633e+03,3.753236e+02
2.196525e+03,3.728994e+02
2.199418e+03,3.736649e+02
2.202311e+03,3.799149e+02
2.205204e+03,3.728853e+02
2.208096e+03,3.750125e+02
2.210989e+03,3.661445e+02
2.213882e+03,3.687304e+02
2.216774e+03,3.627442e+02
2.219667e+03,3.623973e+02
2.222560e+03,3.679057e+02
2.225452e+03,3.707823e+02
2.228345e+03,3.692531e+02
2.231238e+03,3.626896e+02
2.234131e+03,3.627969e+02
2.237023e+03,3.644589e+02
2.239916e+03,3.565110e+02
2.242809e+03,3.529892e+02
2.245701e+03,3.637721e+02
2.248594e+03,3.545977e+02
2.251487e+03,3.636996e+02
2.254379e+03,3.572608e+02
2.257272e+03,3.430770e+02
2.260165e+03,3.542016e+02
2.263058e+03,3.576916e+02
2.265950e+03,3.550078e+02
2.268843e+03,3.488303e+02
2.271736e+03,3.604628e+02
2.274628e+03,3.422336e+02
2.277521e+03,3.461416e+02
2.280414e+03,3.544399e+02
2.283306e+03,3.428966e+02
2.286199e+03,3.436147e+02
2.289092e+03,3.508080e+02
2.291985e+03,3.457056e+02
2.294877e+03,3.439502e+02
2.297770e+03,3.394406e+02
2.300663e+03,3.414268e+02
2.303555e+03,3.400720e+02
2.306448e+03,3.391227e+02
2.309341e+03,3.378300e+02
2.312233e+03,3.386657e+02
2.315126e+03,3.383535e+02
2.318019e+03,3.330911e+02
2.320912e+03,3.327779e+02
2.323804e+03,3.301491e+02
2.326697e+03,3.311100e+02
2.329590e+03,3.337976e+02
2.332482e+03,3.299845e+02
2.335375e+03,3.264004e+02
2.338268e+03,3.260799e+02
2.341160e+03,3.295083e+02
2.344053e+03,3.241919e+02
2.346946e+03,3.228799e+02
2.349839e+03,3.254302e+02
2.352731e+03,3.232475e+02
2.355624e+03,3.218297e+02
2.358517e+03,3.295942e+02
2.361409e+03,3.233535e+02
2.364302e+03,3.222269e+02
2.367195e+03,3.234420e+02
2.370087e+03,3.183203e+02
2.372980e+03,3.183885e+02
2.375873e+03,3.226412e+02
2.378766e+03,3.136977e+02
2.381658e+03,3.156300e+02
2.384551e+03,3.129742e+02
2.387444e+03,3.143834e+02
2.390336e+03,3.109635e+02
2.393229e+03,3.078976e+02
2.396122e+03,3.095608e+02
2.399014e+03,3.170617e+02
2.401907e+03,3.142076e+02
2.404800e+03,3.079411e+02
2.407693e+03,3.135706e+02
2.410585e+03,3.078336e+02
2.413478e+03,3.041071e+02
2.416371e+03,3.060222e+02
2.419263e+03,3.068638e+02
2.422156e+03,3.041891e+02
2.425049e+03,2.962766e+02
2.427941e+03,3.015029e+02
2.430834e+03,3.003911e+02
2.433727e+03,2.957582e+02
2.436620e+03,3.027674e+02
2.439512e+03,2.958527e+02
2.442405e+03,2.951278e+02
2.445298e+03,3.022111e+02
2.448190e+03,2.930173e+02
2.451083e+03,2.986195e+02
2.453976e+03,2.921073e+02
2.456868e+03,3.005787e+02
2.459761e+03,2.989458e+02
2.462654e+03,2.967090e+02
2.465547e+03,2.901978e+02
2.468439e+03,2.957540e+02
2.471332e+03,2.903515e+02
2.474225e+03,2.903304e+02
2.477117e+03,2.950967e+02
2.480010e+03,2.921422e+02
2.482903e+03,2.925139e+02
2.485795e+03,2.912163e+02
2.488688e+03,2.855574e+02
2.491581e+03,2.914171e+02
2.494474e+03,2.862281e+02
2.497366e+03,2.857156e+02
2.500259e+03,2.794418e+02
2.503152e+03,2.858008e+02
2.506044e+03,2.874823e+02
2.508937e+03,2.832651e+02
2.511830e+03,2.843556e+02
2.514722e+03,2.723280e+02
2.517615e+03,2.830034e+02
2.520508e+03,2.777947e+02
2.523401e+03,2.801865e+02
2.526293e+03,2.809479e+02
2.529186e+03,2.820031e+02
2.532079e+03,2.803326e+02
2.534971e+03,2.821405e+02
2.537864e+03,2.714832e+02
2.540757e+03,2.814924e+02
2.543649e+03,2.858133e+02
2.546542e+03,2.767571e+02
2.549435e+03,2.772603e+02
2.552328e+03,2.755255e+02
2.555220e+03,2.877106e+02
2.558113e+03,2.726747e+02
2.561006e+03,2.846185e+02
2.563898e+03,2.825719e+02
2.566791e+03,2.644260e+02
2.569684e+03,2.842191e+02
2.572576e+03,2.760631e+02
2.575469e+03,2.849315e+02
2.578362e+03,2.710609e+02
2.581255e+03,2.683228e+02
2.584147e+03,2.654857e+02
2.587040e+03,2.619420e+02
2.589933e+03,2.629143e+02
2.592825e+03,2.607267e+02
2.595718e+03,2.732143e+02
2.598611e+03,2.647946e+02
2.601503e+03,2.622916e+02
2.604396e+03,2.636492e+02
2.607289e+03,2.660119e+02
2.610182e+03,2.616905e+02
2.613074e+03,2.600494e+02
2.615967e+03,2.638201e+02
2.618860e+03,2.599087e+02
2.621752e+03,2.767440e+02
2.624645e+03,2.576819e+02
2.627538e+03,2.603399e+02
2.630430e+03,2.470249e+02
2.633323e+03,2.673973e+02
2.636216e+03,2.602159e+02
2.639109e+03,2.619240e+02
2.642001e+03,2.599697e+02
2.644894e+03,2.508412e+02
2.647787e+03,2.512110e+02
2.650679e+03,2.653833e+02
2.653572e+03,2.566084e+02
2.656465e+03,2.562819e+02
2.659357e+03,2.574912e+02
2.662250e+03,2.578171e+02
2.665143e+03,2.593022e+02
2.668036e+03,2.522290e+02
2.670928e+03,2.611819e+02
2.673821e+03,2.466752e+02
2.676714e+03,2.534814e+02
2.679606e+03,2.517815e+02
2.682499e+03,2.469787e+02
2.685392e+03,2.431467e+02
2.688284e+03,2.604142e+02
2.691177e+03,2.578837e+02
2.694070e+03,2.613342e+02
2.696963e+03,2.534373e+02
2.699855e+03,2.550339e+02
2.702748e+03,2.523890e+02
2.705641e+03,2.490524e+02
2.708533e+03,2.541779e+02
2.711426e+03,2.519854e+02
2.714319e+03,2.483940e+02
2.717211e+03,2.608691e+02
2.720104e+03,2.601491e+02
2.722997e+03,2.537260e+02
2.725890e+03,2.378718e+02
2.728782e+03,2.581641e+02
2.731675e+03,2.437572e+02
2.734568e+03,2.610244e+02
2.737460e+03,2.455501e+02
2.740353e+03,2.371006e+02
2.743246e+03,2.527326e+02
2.746138e+03,2.408383e+02
2.749031e+03,2.518593e+02
2.751924e+03,2.362614e+02
2.754817e+03,2.424087e+02
2.757709e+03,2.475644e+02
2.760602e+03,2.492323e+02
2.763495e+03,2.456879e+02
2.766387e+03,2.450478e+02
2.769280e+03,2.403219e+02
2.772173e+03,2.469741e+02
2.775065e+03,2.429930e+02
2.777958e+03,2.478877e+02
2.780851e+03,2.421361e+02
2.783744e+03,2.429433e+02
2.786636e+03,2.342973e+02
2.789529e+03,2.438495e+02
2.792422e+03,2.487749e+02
2.795314e+03,2.430383e+02
2.798207e+03,2.417592e+02
2.801100e+03,2.520361e+02
2.803992e+03,2.437555e+02
2.806885e+03,2.394582e+02
2.809778e+03,2.452455e+02
2.812671e+03,2.511860e+02
2.815563e+03,2.313527e+02
2.818456e+03,2.382819e+02
2.821349e+03,2.380030e+02
2.824241e+03,2.331823e+02
2.827134e+03,2.492803e+02
2.830027e+03,2.411691e+02
2.832919e+03,2.298021e+02
2.835812e+03,2.496514e+02
2.838705e+03,2.533609e+02
2.841598e+03,2.511794e+02
2.844490e+03,2.366563e+02
2.847383e+03,2.498105e+02
2.850276e+03,2.559037e+02
2.853168e+03,2.582047e+02
2.856061e+03,2.491745e+02
2.858954e+03,2.415066e+02
2.861846e+03,2.559046e+02
2.864739e+03,2.569807e+02
2.867632e+03,2.637523e+02
2.870525e+03,2.671745e+02
2.873417e+03,2.671689e+02
2.876310e+03,2.716009e+02
2.879203e+03,2.773154e+02
2.882095e+03,2.806754e+02
2.884988e+03,2.797531e+02
2.887881e+03,2.649133e+02
2.890773e+03,2.813871e+02
2.893666e+03,2.747548e+02
2.896559e+03,2.803148e+02
2.899452e+03,2.807061e+02
2.902344e+03,2.680151e+02
2.905237e+03,2.697633e+02
2.908130e+03,2.675781e+02
2.911022e+03,2.771355e+02
2.913915e+03,2.569977e+02
2.916808e+03,2.612361e+02
2.919700e+03,2.574037e+02
2.922593e+03,2.558086e+02
2.925486e+03,2.629769e+02
2.928379e+03,2.444490e+02
2.931271e+03,2.530057e+02
2.934164e+03,2.560326e+02
2.937057e+03,2.402088e+02
2.939949e+03,2.429144e+02
2.942842e+03,2.438349e+02
2.945735e+03,2.458414e+02
2.948627e+03,2.421334e+02
2.951520e+03,2.477138e+02
2.954413e+03,2.345353e+02
2.957306e+03,2.847531e+02
2.960198e+03,2.682347e+02
2.963091e+03,2.374703e+02
2.965984e+03,2.363410e+02
2.968876e+03,2.440401e+02
2.971769e+03,2.366174e+02
2.974662e+03,2.296621e+02
2.977554e+03,2.271348e+02
2.980447e+03,2.089715e+02
2.983340e+03,2.310346e+02
2.986233e+03,2.378387e+02
2.989125e+03,2.315784e+02
2.992018e+03,2.160489e+02
2.994911e+03,2.223010e+02
2.997803e+03,2.164730e+02
3.000696e+03,2.381337e+02
3.003589e+03,2.287341e+02
3.006481e+03,2.460740e+02
3.009374e+03,2.249741e+02
3.012267e+03,2.164480e+02
3.015160e+03,2.199358e+02
3.018052e+03,2.154577e+02
3.020945e+03,2.140409e+02
3.023838e+03,2.197007e+02
3.026730e+03,2.063222e+02
3.029623e+03,2.329839e+02
3.032516e+03,2.014893e+02
3.035408e+03,1.905762e+02
3.038301e+03,2.284512e+02
3.041194e+03,2.100836e+02
3.044087e+03,2.072955e+02
3.046979e+03,2.214068e+02
3.049872e+03,2.258998e+02
3.052765e+03,2.209244e+02
3.055657e+03,2.132718e+02
3.058550e+03,2.145460e+02
3.061443e+03,2.078591e+02
3.064335e+03,2.009252e+02
3.067228e+03,2.248100e+02
3.070121e+03,2.150128e+02
3.073014e+03,2.054959e+02
3.075906e+03,2.204795e+02
3.078799e+03,2.143508e+02
3.081692e+03,2.243481e+02
3.084584e+03,2.099222e+02
3.087477e+03,2.000983e+02
3.090370e+03,2.330422e+02
3.093262e+03,2.091019e+02
3.096155e+03,2.121430e+02
3.099048e+03,2.111719e+02
3.101941e+03,1.985673e+02
3.104833e+03,2.186277e+02
3.107726e+03,2.255550e+02
3.110619e+03,2.409216e+02
3.113511e+03,2.046389e+02
3.116404e+03,2.124684e+02
3.119297e+03,2.030176e+02
3.122189e+03,2.201623e+02
3.125082e+03,2.248266e+02
3.127975e+03,2.231252e+02
3.130868e+03,2.267786e+02
3.133760e+03,2.366080e+02
3.136653e+03,2.139135e+02
3.139546e+03,2.091423e+02
3.142438e+03,2.141550e+02
3.145331e+03,1.900755e+02
3.148224e+03,2.187128e+02
3.151116e+03,2.316546e+02
3.154009e+03,2.306308e+02
3.156902e+03,2.266592e+02
3.159795e+03,2.057532e+02
3.162687e+03,2.107175e+02
3.165580e+03,2.303235e+02
3.168473e+03,2.362582e+02
3.171365e+03,2.305910e+02
3.174258e+03,2.349562e+02
3.177151e+03,2.244272e+02
3.180043e+03,2.373593e+02
3.182936e+03,2.262707e+02
3.185829e+03,2.261384e+02
3.188722e+03,2.241887e+02
3.191614e+03,2.432162e+02
3.194507e+03,2.483143e+02
3.197400e+03,1.935656e+02
3.200292e+03,2.379792e+02
3.203185e+03,0.000000e+00
3.206078e+03,0.000000e+00
3.208970e+03,0.000000e+00
3.211863e+03,0.000000e+00
3.214756e+03,0.000000e+00
3.217649e+03,0.000000e+00
3.220541e+03,0.000000e+00
3.223434e+03,0.000000e+00
3.226327e+03,0.000000e+00
3.229219e+03,0.000000e+00
3.232112e+03,0.000000e+00
3.235005e+03,0.000000e+00
3.237897e+03,0.000000e+00
3.240790e+03,0.000000e+00
3.243683e+03,0.000000e+00
3.246576e+03,0.000000e+00
3.249468e+03,0.000000e+00
3.252361e+03,0.000000e+00
3.255254e+03,0.000000e+00
3.258146e+03,0.000000e+00
3.261039e+03,0.000000e+00
3.263932e+03,0.000000e+00
3.266824e+03,0.000000e+00
3.269717e+03,0.000000e+00
3.272610e+03,0.000000e+00
3.275503e+03,0.000000e+00
3.278395e+03,0.000000e+00
3.281288e+03,0.000000e+00
3.284181e+03,0.000000e+00
3.287073e+03,0.000000e+00
3.289966e+03,0.000000e+00
3.292859e+03,0.000000e+00
3.295751e+03,0.000000e+00
3.298644e+03,0.000000e+00
3.301537e+03,0.000000e+00
3.304430e+03,0.000000e+00
3.307322e+03,0.000000e+00
3.310215e+03,0.000000e+00
3.313108e+03,0.000000e+00
3.316000e+03,0.000000e+00
3.318893e+03,0.000000e+00
3.321786e+03,0.000000e+00
3.324678e+03,0.000000e+00
3.327571e+03,0.000000e+00
3.330464e+03,0.000000e+00
3.333357e+03,0.000000e+00
3.336249e+03,0.000000e+00
3.339142e+03,0.000000e+00
3.342035e+03,0.000000e+00
3.344927e+03,0.000000e+00
3.347820e+03,0.000000e+00
3.350713e+03,0.000000e+00
3.353605e+03,0.000000e+00
3.356498e+03,0.000000e+00
3.359391e+03,0.000000e+00
3.362284e+03,0.000000e+00
3.365176e+03,0.000000e+00
3.368069e+03,0.000000e+00
3.370962e+03,0.000000e+00
3.373854e+03,0.000000e+00
3.376747e+03,0.000000e+00
3.379640e+03,0.000000e+00
3.382532e+03,0.000000e+00
3.385425e+03,0.000000e+00
3.388318e+03,0.000000e+00
3.391211e+03,0.000000e+00
3.394103e+03,0.000000e+00
3.396996e+03,0.000000e+00
3.399889e+03,0.000000e+00
3.402781e+03,0.000000e+00
3.405674e+03,0.000000e+00
3.408567e+03,0.000000e+00
3.411459e+03,0.000000e+00
3.414352e+03,0.000000e+00
3.417245e+03,0.000000e+00
3.420138e+03,0.000000e+00
3.423030e+03,0.000000e+00
3.425923e+03,0.000000e+00
3.428816e+03,0.000000e+00
3.431708e+03,0.000000e+00
3.434601e+03,0.000000e+00
3.437494e+03,0.000000e+00
3.440386e+03,0.000000e+00
3.443279e+03,0.000000e+00
3.446172e+03,0.000000e+00
3.449065e+03,0.000000e+00
3.451957e+03,0.000000e+00
3.454850e+03,0.000000e+00
3.457743e+03,0.000000e+00
3.460635e+03,0.000000e+00
3.463528e+03,0.000000e+00
3.466421e+03,0.000000e+00
3.469313e+03,0.000000e+00
3.472206e+03,0.000000e+00
3.475099e+03,0.000000e+00
3.477992e+03,0.000000e+00
3.480884e+03,0.000000e+00
3.483777e+03,0.000000e+00
3.486670e+03,0.000000e+00
3.489563e+03,0.000000e+00
3.492455e+03,0.000000e+00
3.495348e+03,0.000000e+00
3.498240e+03,0.000000e+00
3.500169e+03,0.000000e+00