File: RAMAN_data/13042023_r2/blue fibre5.CSV
9.931763e+01,0.000000e+00
1.022103e+02,0.000000e+00
1.051030e+02,0.000000e+00
1.079957e+02,0.000000e+00
1.108884e+02,0.000000e+00
1.137811e+02,0.000000e+00
1.166738e+02,0.000000e+00
1.195665e+02,0.000000e+00
1.224592e+02,0.000000e+00
1.253519e+02,0.000000e+00
1.282446e+02,0.000000e+00
1.311373e+02,0.000000e+00
1.340300e+02,0.000000e+00
1.369227e+02,0.000000e+00
1.398154e+02,0.000000e+00
1.427081e+02,0.000000e+00
1.456008e+02,0.000000e+00
1.484935e+02,0.000000e+00
1.513862e+02,0.000000e+00
1.542789e+02,0.000000e+00
1.571716e+02,0.000000e+00
1.600643e+02,0.000000e+00
1.629570e+02,0.000000e+00
1.658497e+02,0.000000e+00
1.687424e+02,0.000000e+00
1.716351e+02,0.000000e+00
1.745278e+02,0.000000e+00
1.774205e+02,0.000000e+00
1.803132e+02,0.000000e+00
1.832059e+02,0.000000e+00
1.860986e+02,0.000000e+00
1.889913e+02,0.000000e+00
1.918840e+02,0.000000e+00
1.947767e+02,0.000000e+00
1.976694e+02,0.000000e+00
2.005621e+02,4.389790e+03
2.034548e+02,4.382197e+03
2.063475e+02,4.375275e+03
2.092402e+02,4.377126e+03
2.121329e+02,4.358059e+03
2.150256e+02,4.375511e+03
2.179183e+02,4.358976e+03
2.208110e+02,4.359728e+03
2.237037e+02,4.369448e+03
2.265964e+02,4.340154e+03
2.294892e+02,4.330228e+03
2.323819e+02,4.351752e+03
2.352746e+02,4.353461e+03
2.381673e+02,4.342616e+03
2.410600e+02,4.322262e+03
2.439527e+02,4.312554e+03
2.468454e+02,4.342326e+03
2.497381e+02,4.329109e+03
2.526308e+02,4.331998e+03
2.555235e+02,4.298464e+03
2.584161e+02,4.286193e+03
2.613088e+02,4.286252e+03
2.642015e+02,4.292693e+03
2.670942e+02,4.299588e+03
2.699869e+02,4.290409e+03
2.728796e+02,4.263752e+03
2.757723e+02,4.259198e+03
2.786650e+02,4.274811e+03
2.815577e+02,4.262893e+03
2.844504e+02,4.233339e+03
2.873431e+02,4.235922e+03
2.902358e+02,4.210751e+03
2.931285e+02,4.204501e+03
2.960212e+02,4.209659e+03
2.989139e+02,4.201613e+03
3.018066e+02,4.207856e+03
3.046993e+02,4.200380e+03
3.075920e+02,4.200716e+03
3.104847e+02,4.165652e+03
3.133774e+02,4.174563e+03
3.162701e+02,4.164557e+03
3.191628e+02,4.166188e+03
3.220555e+02,4.152397e+03
3.249482e+02,4.164423e+03
3.278409e+02,4.150591e+03
3.307336e+02,4.142177e+03
3.336263e+02,4.140138e+03
3.365190e+02,4.126551e+03
3.394117e+02,4.091738e+03
3.423044e+02,4.111348e+03
3.451971e+02,4.114802e+03
3.480898e+02,4.094373e+03
3.509825e+02,4.084917e+03
3.538752e+02,4.094370e+03
3.567680e+02,4.091595e+03
3.596607e+02,4.073543e+03
3.625534e+02,4.066499e+03
3.654461e+02,4.043155e+03
3.683388e+02,4.048776e+03
3.712315e+02,4.048516e+03
3.741242e+02,4.053730e+03
3.770169e+02,4.053198e+03
3.799096e+02,4.025958e+03
3.828023e+02,4.008187e+03
3.856950e+02,3.996621e+03
3.885877e+02,3.989512e+03
3.914804e+02,3.997765e+03
3.943731e+02,3.998201e+03
3.972658e+02,3.968051e+03
4.001585e+02,3.947313e+03
4.030512e+02,3.957444e+03
4.059439e+02,3.953095e+03
4.088366e+02,3.941204e+03
4.117293e+02,3.934438e+03
4.146220e+02,3.928830e+03
4.175147e+02,3.936207e+03
4.204074e+02,3.915003e+03
4.233001e+02,3.900855e+03
4.261928e+02,3.902908e+03
4.290855e+02,3.894344e+03
4.319782e+02,3.886343e+03
4.348709e+02,3.890010e+03
4.377636e+02,3.900737e+03
4.406563e+02,3.873885e+03
4.435490e+02,3.860588e+03
4.464417e+02,3.839077e+03
4.493344e+02,3.859188e+03
4.522271e+02,3.847049e+03
4.551198e+02,3.840355e+03
4.580125e+02,3.849685e+03
4.609052e+02,3.827164e+03
4.637979e+02,3.799445e+03
4.666906e+02,3.805938e+03
4.695833e+02,3.825644e+03
4.724760e+02,3.795882e+03
4.753687e+02,3.794334e+03
4.782614e+02,3.780847e+03
4.811541e+02,3.782190e+03
4.840468e+02,3.783595e+03
4.869395e+02,3.743895e+03
4.898322e+02,3.754699e+03
4.927249e+02,3.758711e+03
4.956176e+02,3.761099e+03
4.985103e+02,3.756785e+03
5.014030e+02,3.727048e+03
5.042957e+02,3.722116e+03
5.071884e+02,3.711901e+03
5.100811e+02,3.692036e+03
5.129738e+02,3.711657e+03
5.158665e+02,3.717839e+03
5.187592e+02,3.720630e+03
5.216519e+02,3.682216e+03
5.245446e+02,3.672380e+03
5.274373e+02,3.670599e+03
5.303300e+02,3.679216e+03
5.332227e+02,3.676676e+03
5.361154e+02,3.667094e+03
5.390081e+02,3.657146e+03
5.419008e+02,3.644821e+03
5.447935e+02,3.660165e+03
5.476862e+02,3.646806e+03
5.505789e+02,3.608175e+03
5.534716e+02,3.615203e+03
5.563643e+02,3.616216e+03
5.592570e+02,3.582202e+03
5.621497e+02,3.603533e+03
5.650424e+02,3.579137e+03
5.679351e+02,3.565413e+03
5.708278e+02,3.568270e+03
5.737205e+02,3.576172e+03
5.766132e+02,3.552207e+03
5.795059e+02,3.563695e+03
5.823986e+02,3.546028e+03
5.852913e+02,3.544480e+03
5.881840e+02,3.539367e+03
5.910767e+02,3.529399e+03
5.939694e+02,3.542529e+03
5.968621e+02,3.541200e+03
5.997548e+02,3.517474e+03
6.026475e+02,3.510992e+03
6.055402e+02,3.498786e+03
6.084329e+02,3.498660e+03
6.113256e+02,3.470719e+03
6.142183e+02,3.495645e+03
6.171110e+02,3.476892e+03
6.200037e+02,3.470699e+03
6.228964e+02,3.480575e+03
6.257891e+02,3.470814e+03
6.286818e+02,3.461958e+03
6.315745e+02,3.452046e+03
6.344672e+02,3.431994e+03
6.373599e+02,3.430886e+03
6.402526e+02,3.445699e+03
6.431453e+02,3.412727e+03
6.460380e+02,3.390816e+03
6.489307e+02,3.405325e+03
6.518234e+02,3.410116e+03
6.547161e+02,3.399890e+03
6.576088e+02,3.393803e+03
6.605015e+02,3.366021e+03
6.633942e+02,3.374560e+03
6.662869e+02,3.376445e+03
6.691796e+02,3.378229e+03
6.720723e+02,3.371821e+03
6.749650e+02,3.354635e+03
6.778577e+02,3.348357e+03
6.807504e+02,3.361023e+03
6.836431e+02,3.343652e+03
6.865358e+02,3.333184e+03
6.894285e+02,3.315974e+03
6.923212e+02,3.325868e+03
6.952139e+02,3.316435e+03
6.981066e+02,3.311259e+03
7.009993e+02,3.303830e+03
7.038920e+02,3.280090e+03
7.067847e+02,3.284192e+03
7.096774e+02,3.288963e+03
7.125701e+02,3.275972e+03
7.154628e+02,3.271282e+03
7.183555e+02,3.267619e+03
7.212482e+02,3.264955e+03
7.241409e+02,3.244368e+03
7.270336e+02,3.241149e+03
7.299263e+02,3.225760e+03
7.328190e+02,3.241593e+03
7.357117e+02,3.229502e+03
7.386044e+02,3.233723e+03
7.414971e+02,3.198790e+03
7.443898e+02,3.192245e+03
7.472825e+02,3.204193e+03
7.501752e+02,3.198386e+03
7.530679e+02,3.187508e+03
7.559606e+02,3.176184e+03
7.588533e+02,3.181334e+03
7.617460e+02,3.175110e+03
7.646387e+02,3.163106e+03
7.675314e+02,3.177680e+03
7.704241e+02,3.149087e+03
7.733168e+02,3.143418e+03
7.762095e+02,3.157561e+03
7.791022e+02,3.150183e+03
7.819949e+02,3.126540e+03
7.848876e+02,3.114333e+03
7.877803e+02,3.112184e+03
7.906730e+02,3.110761e+03
7.935657e+02,3.105955e+03
7.964584e+02,3.098794e+03
7.993511e+02,3.095327e+03
8.022438e+02,3.104352e+03
8.051365e+02,3.099266e+03
8.080292e+02,3.088643e+03
8.109219e+02,3.091058e+03
8.138146e+02,3.055043e+03
8.167073e+02,3.078505e+03
8.196000e+02,3.061230e+03
8.224927e+02,3.064431e+03
8.253854e+02,3.066899e+03
8.282781e+02,3.040036e+03
8.311708e+02,3.023222e+03
8.340635e+02,3.010070e+03
8.369562e+02,3.032301e+03
8.398489e+02,3.028087e+03
8.427416e+02,3.033851e+03
8.456343e+02,3.010506e+03
8.485270e+02,3.011631e+03
8.514197e+02,2.991956e+03
8.543124e+02,2.996048e+03
8.572051e+02,2.996872e+03
8.600978e+02,2.973407e+03
8.629905e+02,2.977594e+03
8.658832e+02,2.975237e+03
8.687759e+02,2.981472e+03
8.716686e+02,2.975192e+03
8.745613e+02,2.957232e+03
8.774540e+02,2.963625e+03
8.803467e+02,2.960358e+03
8.832394e+02,2.951944e+03
8.861321e+02,2.943849e+03
8.890248e+02,2.936301e+03
8.919175e+02,2.941368e+03
8.948102e+02,2.925555e+03
8.977029e+02,2.920062e+03
9.005956e+02,2.907011e+03
9.034883e+02,2.911612e+03
9.063810e+02,2.892301e+03
9.092737e+02,2.898989e+03
9.121664e+02,2.909429e+03
9.150591e+02,2.894635e+03
9.179518e+02,2.861596e+03
9.208445e+02,2.861761e+03
9.237372e+02,2.865023e+03
9.266299e+02,2.854321e+03
9.295226e+02,2.845339e+03
9.324153e+02,2.826031e+03
9.353080e+02,2.845980e+03
9.382007e+02,2.825884e+03
9.410934e+02,2.826198e+03
9.439861e+02,2.822446e+03
9.468788e+02,2.827823e+03
9.497715e+02,2.814201e+03
9.526642e+02,2.805392e+03
9.555569e+02,2.800288e+03
9.584496e+02,2.781961e+03
9.613423e+02,2.812860e+03
9.642350e+02,2.773473e+03
9.671277e+02,2.778424e+03
9.700204e+02,2.791694e+03
9.729131e+02,2.759855e+03
9.758058e+02,2.762390e+03
9.786985e+02,2.753313e+03
9.815912e+02,2.749858e+03
9.844839e+02,2.756019e+03
9.873766e+02,2.751628e+03
9.902693e+02,2.727105e+03
9.931620e+02,2.739042e+03
9.960547e+02,2.748757e+03
9.989474e+02,2.729286e+03
1.001840e+03,2.708121e+03
1.004733e+03,2.711265e+03
1.007626e+03,2.716384e+03
1.010518e+03,2.720470e+03
1.013411e+03,2.695697e+03
1.016304e+03,2.712658e+03
1.019196e+03,2.690794e+03
1.022089e+03,2.675489e+03
1.024982e+03,2.684022e+03
1.027875e+03,2.691050e+03
1.030767e+03,2.671982e+03
1.033660e+03,2.663311e+03
1.036552e+03,2.680326e+03
1.039445e+03,2.661178e+03
1.042338e+03,2.648437e+03
1.045231e+03,2.649085e+03
1.048123e+03,2.638898e+03
1.051016e+03,2.649930e+03
1.053909e+03,2.658989e+03
1.056802e+03,2.637316e+03
1.059694e+03,2.628148e+03
1.062587e+03,2.637513e+03
1.065479e+03,2.613208e+03
1.068372e+03,2.617420e+03
1.071265e+03,2.623324e+03
1.074158e+03,2.631359e+03
1.077050e+03,2.615553e+03
1.079943e+03,2.610703e+03
1.082836e+03,2.611706e+03
1.085729e+03,2.619204e+03
1.088621e+03,2.620780e+03
1.091514e+03,2.610126e+03
1.094406e+03,2.611781e+03
1.097299e+03,2.609203e+03
1.100192e+03,2.592076e+03
1.103085e+03,2.584246e+03
1.105977e+03,2.572805e+03
1.108870e+03,2.552324e+03
1.111763e+03,2.576532e+03
1.114656e+03,2.562839e+03
1.117548e+03,2.563420e+03
1.120441e+03,2.548631e+03
1.123334e+03,2.555743e+03
1.126226e+03,2.532388e+03
1.129119e+03,2.526200e+03
1.132012e+03,2.529956e+03
1.134904e+03,2.530020e+03
1.137797e+03,2.501781e+03
1.140690e+03,2.500899e+03
1.143583e+03,2.508953e+03
1.146475e+03,2.492882e+03
1.149368e+03,2.499441e+03
1.152261e+03,2.511791e+03
1.155153e+03,2.500866e+03
1.158046e+03,2.474714e+03
1.160939e+03,2.483888e+03
1.163831e+03,2.477071e+03
1.166724e+03,2.468143e+03
1.169617e+03,2.470637e+03
1.172510e+03,2.448841e+03
1.175402e+03,2.442335e+03
1.178295e+03,2.449599e+03
1.181188e+03,2.448379e+03
1.184080e+03,2.445217e+03
1.186973e+03,2.419774e+03
1.189866e+03,2.411059e+03
1.192758e+03,2.406788e+03
1.195651e+03,2.425951e+03
1.198544e+03,2.416206e+03
1.201437e+03,2.409625e+03
1.204329e+03,2.417119e+03
1.207222e+03,2.411816e+03
1.210115e+03,2.402956e+03
1.213007e+03,2.392497e+03
1.215900e+03,2.396322e+03
1.218793e+03,2.399554e+03
1.221685e+03,2.398124e+03
1.224578e+03,2.387957e+03
1.227471e+03,2.380890e+03
1.230364e+03,2.381418e+03
1.233256e+03,2.387839e+03
1.236149e+03,2.362225e+03
1.239042e+03,2.371715e+03
1.241934e+03,2.367573e+03
1.244827e+03,2.367637e+03
1.247720e+03,2.360011e+03
1.250612e+03,2.349030e+03
1.253505e+03,2.345820e+03
1.256398e+03,2.343791e+03
1.259291e+03,2.340119e+03
1.262183e+03,2.341575e+03
1.265076e+03,2.312472e+03
1.267969e+03,2.331029e+03
1.270861e+03,2.330602e+03
1.273754e+03,2.328927e+03
1.276647e+03,2.317935e+03
1.279539e+03,2.310362e+03
1.282432e+03,2.294932e+03
1.285325e+03,2.306246e+03
1.288218e+03,2.298543e+03
1.291110e+03,2.296369e+03
1.294003e+03,2.285957e+03
1.296896e+03,2.278144e+03
1.299788e+03,2.290071e+03
1.302681e+03,2.275734e+03
1.305574e+03,2.291192e+03
1.308466e+03,2.283021e+03
1.311359e+03,2.276444e+03
1.314252e+03,2.256563e+03
1.317145e+03,2.269150e+03
1.320037e+03,2.273332e+03
1.322930e+03,2.262035e+03
1.325823e+03,2.252061e+03
1.328715e+03,2.240936e+03
1.331608e+03,2.242505e+03
1.334501e+03,2.255433e+03
1.337393e+03,2.243587e+03
1.340286e+03,2.229864e+03
1.343179e+03,2.235306e+03
1.346072e+03,2.226646e+03
1.348964e+03,2.225177e+03
1.351857e+03,2.223488e+03
1.354750e+03,2.203292e+03
1.357642e+03,2.208775e+03
1.360535e+03,2.213266e+03
1.363428e+03,2.212654e+03
1.366320e+03,2.211185e+03
1.369213e+03,2.199756e+03
1.372106e+03,2.196909e+03
1.374999e+03,2.196369e+03
1.377891e+03,2.192492e+03
1.380784e+03,2.186770e+03
1.383677e+03,2.178425e+03
1.386569e+03,2.178005e+03
1.389462e+03,2.157584e+03
1.392355e+03,2.159193e+03
1.395247e+03,2.143320e+03
1.398140e+03,2.157499e+03
1.401033e+03,2.144421e+03
1.403926e+03,2.146679e+03
1.406818e+03,2.137913e+03
1.409711e+03,2.136874e+03
1.412604e+03,2.143482e+03
1.415496e+03,2.105843e+03
1.418389e+03,2.119076e+03
1.421282e+03,2.111211e+03
1.424174e+03,2.112087e+03
1.427067e+03,2.121944e+03
1.429960e+03,2.106896e+03
1.432853e+03,2.118788e+03
1.435745e+03,2.083902e+03
1.438638e+03,2.085163e+03
1.441531e+03,2.084829e+03
1.444423e+03,2.099978e+03
1.447316e+03,2.081601e+03
1.450209e+03,2.079263e+03
1.453101e+03,2.081666e+03
1.455994e+03,2.077970e+03
1.458887e+03,2.074061e+03
1.461780e+03,2.069500e+03
1.464672e+03,2.060406e+03
1.467565e+03,2.047812e+03
1.470458e+03,2.054537e+03
1.473350e+03,2.041151e+03
1.476243e+03,2.055888e+03
1.479136e+03,2.049136e+03
1.482028e+03,2.041602e+03
1.484921e+03,2.029036e+03
1.487814e+03,2.029489e+03
1.490707e+03,2.023409e+03
1.493599e+03,2.014261e+03
1.496492e+03,2.014637e+03
1.499385e+03,2.012958e+03
1.502277e+03,1.995087e+03
1.505170e+03,2.011780e+03
1.508063e+03,1.990666e+03
1.510955e+03,1.986518e+03
1.513848e+03,1.986660e+03
1.516741e+03,1.974462e+03
1.519634e+03,1.995006e+03
1.522526e+03,1.980471e+03
1.525419e+03,1.991166e+03
1.528312e+03,1.969245e+03
1.531204e+03,1.969602e+03
1.534097e+03,1.964701e+03
1.536990e+03,1.954208e+03
1.539882e+03,1.960406e+03
1.542775e+03,1.963586e+03
1.545668e+03,1.951323e+03
1.548561e+03,1.964363e+03
1.551453e+03,1.960194e+03
1.554346e+03,1.948717e+03
1.557239e+03,1.940307e+03
1.560131e+03,1.946621e+03
1.563024e+03,1.953733e+03
1.565917e+03,1.970945e+03
1.568809e+03,1.989287e+03
1.571702e+03,2.003561e+03
1.574595e+03,1.989311e+03
1.577488e+03,1.968415e+03
1.580380e+03,1.964748e+03
1.583273e+03,1.971351e+03
1.586166e+03,1.940071e+03
1.589058e+03,1.919891e+03
1.591951e+03,1.897335e+03
1.594844e+03,1.906217e+03
1.597736e+03,1.896103e+03
1.600629e+03,1.898606e+03
1.603522e+03,1.897135e+03
1.606415e+03,1.881133e+03
1.609307e+03,1.884891e+03
1.612200e+03,1.863715e+03
1.615093e+03,1.872993e+03
1.617985e+03,1.860926e+03
1.620878e+03,1.868128e+03
1.623771e+03,1.860596e+03
1.626663e+03,1.848151e+03
1.629556e+03,1.860611e+03
1.632449e+03,1.851609e+03
1.635342e+03,1.844034e+03
1.638234e+03,1.836499e+03
1.641127e+03,1.831728e+03
1.644020e+03,1.815563e+03
1.646912e+03,1.814633e+03
1.649805e+03,1.814105e+03
1.652698e+03,1.816539e+03
1.655590e+03,1.810372e+03
1.658483e+03,1.802837e+03
1.661376e+03,1.798408e+03
1.664269e+03,1.796362e+03
1.667161e+03,1.803857e+03
1.670054e+03,1.796891e+03
1.672947e+03,1.804429e+03
1.675839e+03,1.778790e+03
1.678732e+03,1.777150e+03
1.681625e+03,1.775800e+03
1.684517e+03,1.764441e+03
1.687410e+03,1.767793e+03
1.690303e+03,1.772544e+03
1.693196e+03,1.747101e+03
1.696088e+03,1.741786e+03
1.698981e+03,1.754246e+03
1.701874e+03,1.749729e+03
1.704766e+03,1.739176e+03
1.707659e+03,1.739284e+03
1.710552e+03,1.739551e+03
1.713444e+03,1.732993e+03
1.716337e+03,1.726698e+03
1.719230e+03,1.722496e+03
1.722123e+03,1.724338e+03
1.725015e+03,1.700109e+03
1.727908e+03,1.708424e+03
1.730801e+03,1.696137e+03
1.733693e+03,1.706277e+03
1.736586e+03,1.700756e+03
1.739479e+03,1.700392e+03
1.742371e+03,1.691755e+03
1.745264e+03,1.677768e+03
1.748157e+03,1.677703e+03
1.751050e+03,1.678129e+03
1.753942e+03,1.693083e+03
1.756835e+03,1.678376e+03
1.759728e+03,1.666696e+03
1.762620e+03,1.659300e+03
1.765513e+03,1.651121e+03
1.768406e+03,1.653247e+03
1.771298e+03,1.652658e+03
1.774191e+03,1.658747e+03
1.777084e+03,1.637942e+03
1.779977e+03,1.631285e+03
1.782869e+03,1.651422e+03
1.785762e+03,1.630873e+03
1.788655e+03,1.633357e+03
1.791547e+03,1.637123e+03
1.794440e+03,1.622938e+03
1.797333e+03,1.632195e+03
1.800225e+03,1.622021e+03
1.803118e+03,1.608908e+03
1.806011e+03,1.602366e+03
1.808904e+03,1.602510e+03
1.811796e+03,1.598287e+03
1.814689e+03,1.586388e+03
1.817582e+03,1.591990e+03
1.820474e+03,1.590946e+03
1.823367e+03,1.586599e+03
1.826260e+03,1.586377e+03
1.829152e+03,1.579255e+03
1.832045e+03,1.578120e+03
1.834938e+03,1.574855e+03
1.837831e+03,1.561244e+03
1.840723e+03,1.554526e+03
1.843616e+03,1.574934e+03
1.846509e+03,1.555294e+03
1.849401e+03,1.550091e+03
1.852294e+03,1.544623e+03
1.855187e+03,1.543548e+03
1.858079e+03,1.538876e+03
1.860972e+03,1.539203e+03
1.863865e+03,1.545832e+03
1.866758e+03,1.516739e+03
1.869650e+03,1.516946e+03
1.872543e+03,1.525866e+03
1.875436e+03,1.534669e+03
1.878328e+03,1.514615e+03
1.881221e+03,1.497046e+03
1.884114e+03,1.511553e+03
1.887006e+03,1.493716e+03
1.889899e+03,1.499999e+03
1.892792e+03,1.497777e+03
1.895685e+03,1.499213e+03
1.898577e+03,1.484914e+03
1.901470e+03,1.487915e+03
1.904363e+03,1.472695e+03
1.907255e+03,1.477469e+03
1.910148e+03,1.462736e+03
1.913041e+03,1.463198e+03
1.915933e+03,1.464179e+03
1.918826e+03,1.462626e+03
1.921719e+03,1.467321e+03
1.924612e+03,1.459744e+03
1.927504e+03,1.466486e+03
1.930397e+03,1.433871e+03
1.933290e+03,1.438046e+03
1.936182e+03,1.447914e+03
1.939075e+03,1.436947e+03
1.941968e+03,1.428931e+03
1.944860e+03,1.409114e+03
1.947753e+03,1.421129e+03
1.950646e+03,1.441128e+03
1.953539e+03,1.427736e+03
1.956431e+03,1.412500e+03
1.959324e+03,1.397010e+03
1.962217e+03,1.413010e+03
1.965109e+03,1.384535e+03
1.968002e+03,1.406950e+03
1.970895e+03,1.409420e+03
1.973787e+03,1.386957e+03
1.976680e+03,1.398040e+03
1.979573e+03,1.389274e+03
1.982466e+03,1.377731e+03
1.985358e+03,1.384208e+03
1.988251e+03,1.373343e+03
1.991144e+03,1.373475e+03
1.994036e+03,1.367775e+03
1.996929e+03,1.367019e+03
1.999822e+03,1.351329e+03
2.002714e+03,1.352011e+03
2.005607e+03,1.358933e+03
2.008500e+03,1.338167e+03
2.011393e+03,1.343281e+03
2.014285e+03,1.334543e+03
2.017178e+03,1.337125e+03
2.020071e+03,1.333132e+03
2.022963e+03,1.337784e+03
2.025856e+03,1.322944e+03
2.028749e+03,1.327485e+03
2.031641e+03,1.320237e+03
2.034534e+03,1.315440e+03
2.037427e+03,1.306767e+03
2.040320e+03,1.316885e+03
2.043212e+03,1.287184e+03
2.046105e+03,1.293103e+03
2.048998e+03,1.297250e+03
2.051890e+03,1.277064e+03
2.054783e+03,1.278877e+03
2.057676e+03,1.278609e+03
2.060568e+03,1.267351e+03
2.063461e+03,1.277284e+03
2.066354e+03,1.263818e+03
2.069247e+03,1.268091e+03
2.072139e+03,1.260777e+03
2.075032e+03,1.249563e+03
2.077925e+03,1.252473e+03
2.080817e+03,1.251362e+03
2.083710e+03,1.242621e+03
2.086603e+03,1.237987e+03
2.089496e+03,1.233461e+03
2.092388e+03,1.253961e+03
2.095281e+03,1.225166e+03
2.098174e+03,1.231549e+03
2.101066e+03,1.211103e+03
2.103959e+03,1.210555e+03
2.106852e+03,1.209143e+03
2.109744e+03,1.228204e+03
2.112637e+03,1.200963e+03
2.115530e+03,1.186501e+03
2.118422e+03,1.199670e+03
2.121315e+03,1.215613e+03
2.124208e+03,1.189250e+03
2.127101e+03,1.195160e+03
2.129993e+03,1.198430e+03
2.132886e+03,1.194988e+03
2.135779e+03,1.187542e+03
2.138671e+03,1.173034e+03
2.141564e+03,1.177117e+03
2.144457e+03,1.158570e+03
2.147350e+03,1.152603e+03
2.150242e+03,1.154931e+03
2.153135e+03,1.175028e+03
2.156028e+03,1.154999e+03
2.158920e+03,1.139109e+03
2.161813e+03,1.166697e+03
2.164706e+03,1.161892e+03
2.167598e+03,1.156960e+03
2.170491e+03,1.123447e+03
2.173384e+03,1.148378e+03
2.176277e+03,1.129077e+03
2.179169e+03,1.125354e+03
2.182062e+03,1.132113e+03
2.184955e+03,1.144139e+03
2.187847e+03,1.135060e+03
2.190740e+03,1.116308e+03
2.193633e+03,1.112261e+03
2.196525e+03,1.108112e+03
2.199418e+03,1.104323e+03
2.202311e+03,1.110202e+03
2.205204e+03,1.108113e+03
2.208096e+03,1.103228e+03
2.210989e+03,1.076355e+03
2.213882e+03,1.086481e+03
2.216774e+03,1.086349e+03
2.219667e+03,1.087509e+03
2.222560e+03,1.079245e+03
2.225452e+03,1.077247e+03
2.228345e+03,1.069538e+03
2.231238e+03,1.069234e+03
2.234131e+03,1.071968e+03
2.237023e+03,1.065739e+03
2.239916e+03,1.042703e+03
2.242809e+03,1.053824e+03
2.245701e+03,1.043245e+03
2.248594e+03,1.047903e+03
2.251487e+03,1.044076e+03
2.254379e+03,1.048561e+03
2.257272e+03,1.032693e+03
2.260165e+03,1.029085e+03
2.263058e+03,1.033861e+03
2.265950e+03,1.036334e+03
2.268843e+03,1.034004e+03
2.271736e+03,1.030217e+03
2.274628e+03,1.023459e+03
2.277521e+03,1.028737e+03
2.280414e+03,1.026844e+03
2.283306e+03,1.016936e+03
2.286199e+03,1.015675e+03
2.289092e+03,9.859498e+02
2.291985e+03,9.924584e+02
2.294877e+03,1.005307e+03
2.297770e+03,9.994958e+02
2.300663e+03,1.002160e+03
2.303555e+03,9.967776e+02
2.306448e+03,9.765383e+02
2.309341e+03,9.862129e+02
2.312233e+03,9.870297e+02
2.315126e+03,9.755131e+02
2.318019e+03,9.748640e+02
2.320912e+03,9.796455e+02
2.323804e+03,9.815828e+02
2.326697e+03,9.788500e+02
2.329590e+03,9.730072e+02
2.332482e+03,9.727352e+02
2.335375e+03,9.564057e+02
2.338268e+03,9.473436e+02
2.341160e+03,9.516621e+02
2.344053e+03,9.426487e+02
2.346946e+03,9.535732e+02
2.349839e+03,9.435271e+02
2.352731e+03,9.429236e+02
2.355624e+03,9.369153e+02
2.358517e+03,9.463460e+02
2.361409e+03,9.437250e+02
2.364302e+03,9.365740e+02
2.367195e+03,9.306852e+02
2.370087e+03,9.199797e+02
2.372980e+03,9.385950e+02
2.375873e+03,9.359433e+02
2.378766e+03,9.257578e+02
2.381658e+03,9.056497e+02
2.384551e+03,9.157980e+02
2.387444e+03,9.212589e+02
2.390336e+03,9.255995e+02
2.393229e+03,9.018121e+02
2.396122e+03,9.070560e+02
2.399014e+03,9.018234e+02
2.401907e+03,9.021773e+02
2.404800e+03,8.932950e+02
2.407693e+03,8.867643e+02
2.410585e+03,8.875777e+02
2.413478e+03,8.808185e+02
2.416371e+03,8.764226e+02
2.419263e+03,8.809783e+02
2.422156e+03,8.939329e+02
2.425049e+03,8.765850e+02
2.427941e+03,8.743433e+02
2.430834e+03,8.800342e+02
2.433727e+03,8.625657e+02
2.436620e+03,8.649075e+02
2.439512e+03,8.599623e+02
2.442405e+03,8.489129e+02
2.445298e+03,8.633946e+02
2.448190e+03,8.462817e+02
2.451083e+03,8.575778e+02
2.453976e+03,8.488966e+02
2.456868e+03,8.443064e+02
2.459761e+03,8.471388e+02
2.462654e+03,8.469813e+02
2.465547e+03,8.245410e+02
2.468439e+03,8.373831e+02
2.471332e+03,8.445540e+02
2.474225e+03,8.269647e+02
2.477117e+03,8.430152e+02
2.480010e+03,8.399809e+02
2.482903e+03,8.396953e+02
2.485795e+03,8.259637e+02
2.488688e+03,8.278513e+02
2.491581e+03,8.233186e+02
2.494474e+03,8.139384e+02
2.497366e+03,8.342199e+02
2.500259e+03,8.184308e+02
2.503152e+03,8.252571e+02
2.506044e+03,8.233060e+02
2.508937e+03,8.123564e+02
2.511830e+03,8.051672e+02
2.514722e+03,8.108718e+02
2.517615e+03,8.071454e+02
2.520508e+03,8.061981e+02
2.523401e+03,7.819092e+02
2.526293e+03,7.998684e+02
2.529186e+03,8.015598e+02
2.532079e+03,8.002963e+02
2.534971e+03,8.020346e+02
2.537864e+03,7.797831e+02
2.540757e+03,7.818011e+02
2.543649e+03,7.837950e+02
2.546542e+03,8.022123e+02
2.549435e+03,7.908458e+02
2.552328e+03,7.981125e+02
2.555220e+03,7.836175e+02
2.558113e+03,7.923325e+02
2.561006e+03,7.857840e+02
2.563898e+03,7.824865e+02
2.566791e+03,7.697324e+02
2.569684e+03,7.701457e+02
2.572576e+03,7.857977e+02
2.575469e+03,7.773620e+02
2.578362e+03,7.666971e+02
2.581255e+03,7.584941e+02
2.584147e+03,7.668954e+02
2.587040e+03,7.619160e+02
2.589933e+03,7.528870e+02
2.592825e+03,7.445461e+02
2.595718e+03,7.584786e+02
2.598611e+03,7.482532e+02
2.601503e+03,7.457345e+02
2.604396e+03,7.377003e+02
2.607289e+03,7.448006e+02
2.610182e+03,7.293871e+02
2.613074e+03,7.363532e+02
2.615967e+03,7.365784e+02
2.618860e+03,7.424214e+02
2.621752e+03,7.271271e+02
2.624645e+03,7.418259e+02
2.627538e+03,7.399073e+02
2.630430e+03,7.077303e+02
2.633323e+03,7.333190e+02
2.636216e+03,7.239420e+02
2.639109e+03,7.250598e+02
2.642001e+03,7.214180e+02
2.644894e+03,7.079474e+02
2.647787e+03,7.028281e+02
2.650679e+03,7.276996e+02
2.653572e+03,7.270394e+02
2.656465e+03,7.288537e+02
2.659357e+03,7.167081e+02
2.662250e+03,7.030780e+02
2.665143e+03,7.186246e+02
2.668036e+03,7.107142e+02
2.670928e+03,7.107148e+02
2.673821e+03,7.065787e+02
2.676714e+03,6.973848e+02
2.679606e+03,6.987171e+02
2.682499e+03,7.159620e+02
2.685392e+03,6.821111e+02
2.688284e+03,7.192736e+02
2.691177e+03,6.928643e+02
2.694070e+03,6.907983e+02
2.696963e+03,6.944344e+02
2.699855e+03,7.061036e+02
2.702748e+03,6.924662e+02
2.705641e+03,6.958719e+02
2.708533e+03,6.825382e+02
2.711426e+03,6.887584e+02
2.714319e+03,6.779266e+02
2.717211e+03,6.873125e+02
2.720104e+03,6.828314e+02
2.722997e+03,6.901115e+02
2.725890e+03,6.759372e+02
2.728782e+03,6.794863e+02
2.731675e+03,6.757161e+02
2.734568e+03,6.941234e+02
2.737460e+03,6.743123e+02
2.740353e+03,6.707363e+02
2.743246e+03,6.710280e+02
2.746138e+03,6.707550e+02
2.749031e+03,6.858027e+02
2.751924e+03,6.604756e+02
2.754817e+03,6.682977e+02
2.757709e+03,6.580881e+02
2.760602e+03,6.581158e+02
2.763495e+03,6.588611e+02
2.766387e+03,6.647097e+02
2.769280e+03,6.525110e+02
2.772173e+03,6.691896e+02
2.775065e+03,6.596025e+02
2.777958e+03,6.641388e+02
2.780851e+03,6.627215e+02
2.783744e+03,6.575037e+02
2.786636e+03,6.454324e+02
2.789529e+03,6.553032e+02
2.792422e+03,6.553613e+02
2.795314e+03,6.462364e+02
2.798207e+03,6.531199e+02
2.801100e+03,6.442538e+02
2.803992e+03,6.518489e+02
2.806885e+03,6.467386e+02
2.809778e+03,6.573050e+02
2.812671e+03,6.612368e+02
2.815563e+03,6.405629e+02
2.818456e+03,6.271285e+02
2.821349e+03,6.500807e+02
2.824241e+03,6.432751e+02
2.827134e+03,6.509333e+02
2.830027e+03,6.264236e+02
2.832919e+03,6.334088e+02
2.835812e+03,6.208503e+02
2.838705e+03,6.260654e+02
2.841598e+03,6.407771e+02
2.844490e+03,6.469554e+02
2.847383e+03,6.519865e+02
2.850276e+03,6.458257e+02
2.853168e+03,6.323152e+02
2.856061e+03,6.492045e+02
2.858954e+03,6.373564e+02
2.861846e+03,6.346398e+02
2.864739e+03,6.413652e+02
2.867632e+03,6.650977e+02
2.870525e+03,6.481915e+02
2.873417e+03,6.346973e+02
2.876310e+03,6.493828e+02
2.879203e+03,6.279311e+02
2.882095e+03,6.370919e+02
2.884988e+03,6.415693e+02
2.887881e+03,6.489719e+02
2.890773e+03,6.364407e+02
2.893666e+03,6.528260e+02
2.896559e+03,6.610563e+02
2.899452e+03,6.404238e+02
2.902344e+03,6.405195e+02
2.905237e+03,6.489885e+02
2.908130e+03,6.362316e+02
2.911022e+03,6.471613e+02
2.913915e+03,6.296862e+02
2.916808e+03,6.210925e+02
2.919700e+03,6.366188e+02
2.922593e+03,6.019428e+02
2.925486e+03,6.447986e+02
2.928379e+03,6.160653e+02
2.931271e+03,6.237791e+02
2.934164e+03,6.383982e+02
2.937057e+03,6.115052e+02
2.939949e+03,6.137216e+02
2.942842e+03,6.026622e+02
2.945735e+03,6.112125e+02
2.948627e+03,5.877061e+02
2.951520e+03,6.086253e+02
2.954413e+03,6.049359e+02
2.957306e+03,6.200070e+02
2.960198e+03,6.233812e+02
2.963091e+03,5.962258e+02
2.965984e+03,5.985049e+02
2.968876e+03,6.009186e+02
2.971769e+03,5.882658e+02
2.974662e+03,5.770035e+02
2.977554e+03,5.544352e+02
2.980447e+03,5.993015e+02
2.983340e+03,5.879575e+02
2.986233e+03,5.558717e+02
2.989125e+03,5.523583e+02
2.992018e+03,5.808552e+02
2.994911e+03,5.633466e+02
2.997803e+03,5.733396e+02
3.000696e+03,5.732725e+02
3.003589e+03,5.818641e+02
3.006481e+03,5.868105e+02
3.009374e+03,5.653015e+02
3.012267e+03,5.824308e+02
3.015160e+03,5.639600e+02
3.018052e+03,5.694479e+02
3.020945e+03,5.725118e+02
3.023838e+03,5.868627e+02
3.026730e+03,5.443820e+02
3.029623e+03,5.545457e+02
3.032516e+03,5.551490e+02
3.035408e+03,5.462566e+02
3.038301e+03,5.624042e+02
3.041194e+03,5.376373e+02
3.044087e+03,5.169221e+02
3.046979e+03,5.376542e+02
3.049872e+03,5.695992e+02
3.052765e+03,5.492199e+02
3.055657e+03,5.435592e+02
3.058550e+03,5.648251e+02
3.061443e+03,5.579197e+02
3.064335e+03,5.643875e+02
3.067228e+03,5.648425e+02
3.070121e+03,5.600983e+02
3.073014e+03,5.373233e+02
3.075906e+03,5.520043e+02
3.078799e+03,5.577020e+02
3.081692e+03,5.748852e+02
3.084584e+03,5.195330e+02
3.087477e+03,5.442270e+02
3.090370e+03,5.438939e+02
3.093262e+03,5.481227e+02
3.096155e+03,5.432098e+02
3.099048e+03,5.393320e+02
3.101941e+03,5.662380e+02
3.104833e+03,5.511884e+02
3.107726e+03,5.551020e+02
3.110619e+03,5.495377e+02
3.113511e+03,5.673083e+02
3.116404e+03,5.258060e+02
3.119297e+03,5.384657e+02
3.122189e+03,5.613271e+02
3.125082e+03,5.469053e+02
3.127975e+03,5.625141e+02
3.130868e+03,5.407861e+02
3.133760e+03,5.626526e+02
3.136653e+03,5.434790e+02
3.139546e+03,5.395095e+02
3.142438e+03,5.433856e+02
3.145331e+03,5.500698e+02
3.148224e+03,5.522131e+02
3.151116e+03,5.542979e+02
3.154009e+03,5.750966e+02
3.156902e+03,6.087581e+02
3.159795e+03,5.497731e+02
3.162687e+03,5.645587e+02
3.165580e+03,5.810312e+02
3.168473e+03,5.561035e+02
3.171365e+03,5.569440e+02
3.174258e+03,5.774537e+02
3.177151e+03,5.529094e+02
3.180043e+03,5.275584e+02
3.182936e+03,5.701827e+02
3.185829e+03,5.510866e+02
3.188722e+03,5.734935e+02
3.191614e+03,5.481547e+02
3.194507e+03,5.561290e+02
3.197400e+03,5.321083e+02
3.200292e+03,5.781817e+02
3.203185e+03,0.000000e+00
3.206078e+03,0.000000e+00
3.208970e+03,0.000000e+00
3.211863e+03,0.000000e+00
3.214756e+03,0.000000e+00
3.217649e+03,0.000000e+00
3.220541e+03,0.000000e+00
3.223434e+03,0.000000e+00
3.226327e+03,0.000000e+00
3.229219e+03,0.000000e+00
3.232112e+03,0.000000e+00
3.235005e+03,0.000000e+00
3.237897e+03,0.000000e+00
3.240790e+03,0.000000e+00
3.243683e+03,0.000000e+00
3.246576e+03,0.000000e+00
3.249468e+03,0.000000e+00
3.252361e+03,0.000000e+00
3.255254e+03,0.000000e+00
3.258146e+03,0.000000e+00
3.261039e+03,0.000000e+00
3.263932e+03,0.000000e+00
3.266824e+03,0.000000e+00
3.269717e+03,0.000000e+00
3.272610e+03,0.000000e+00
3.275503e+03,0.000000e+00
3.278395e+03,0.000000e+00
3.281288e+03,0.000000e+00
3.284181e+03,0.000000e+00
3.287073e+03,0.000000e+00
3.289966e+03,0.000000e+00
3.292859e+03,0.000000e+00
3.295751e+03,0.000000e+00
3.298644e+03,0.000000e+00
3.301537e+03,0.000000e+00
3.304430e+03,0.000000e+00
3.307322e+03,0.000000e+00
3.310215e+03,0.000000e+00
3.313108e+03,0.000000e+00
3.316000e+03,0.000000e+00
3.318893e+03,0.000000e+00
3.321786e+03,0.000000e+00
3.324678e+03,0.000000e+00
3.327571e+03,0.000000e+00
3.330464e+03,0.000000e+00
3.333357e+03,0.000000e+00
3.336249e+03,0.000000e+00
3.339142e+03,0.000000e+00
3.342035e+03,0.000000e+00
3.344927e+03,0.000000e+00
3.347820e+03,0.000000e+00
3.350713e+03,0.000000e+00
3.353605e+03,0.000000e+00
3.356498e+03,0.000000e+00
3.359391e+03,0.000000e+00
3.362284e+03,0.000000e+00
3.365176e+03,0.000000e+00
3.368069e+03,0.000000e+00
3.370962e+03,0.000000e+00
3.373854e+03,0.000000e+00
3.376747e+03,0.000000e+00
3.379640e+03,0.000000e+00
3.382532e+03,0.000000e+00
3.385425e+03,0.000000e+00
3.388318e+03,0.000000e+00
3.391211e+03,0.000000e+00
3.394103e+03,0.000000e+00
3.396996e+03,0.000000e+00
3.399889e+03,0.000000e+00
3.402781e+03,0.000000e+00
3.405674e+03,0.000000e+00
3.408567e+03,0.000000e+00
3.411459e+03,0.000000e+00
3.414352e+03,0.000000e+00
3.417245e+03,0.000000e+00
3.420138e+03,0.000000e+00
3.423030e+03,0.000000e+00
3.425923e+03,0.000000e+00
3.428816e+03,0.000000e+00
3.431708e+03,0.000000e+00
3.434601e+03,0.000000e+00
3.437494e+03,0.000000e+00
3.440386e+03,0.000000e+00
3.443279e+03,0.000000e+00
3.446172e+03,0.000000e+00
3.449065e+03,0.000000e+00
3.451957e+03,0.000000e+00
3.454850e+03,0.000000e+00
3.457743e+03,0.000000e+00
3.460635e+03,0.000000e+00
3.463528e+03,0.000000e+00
3.466421e+03,0.000000e+00
3.469313e+03,0.000000e+00
3.472206e+03,0.000000e+00
3.475099e+03,0.000000e+00
3.477992e+03,0.000000e+00
3.480884e+03,0.000000e+00
3.483777e+03,0.000000e+00
3.486670e+03,0.000000e+00
3.489563e+03,0.000000e+00
3.492455e+03,0.000000e+00
3.495348e+03,0.000000e+00
3.498240e+03,0.000000e+00
3.500169e+03,0.000000e+00