File: RAMAN_data/13042023_r2/blue fibre1.CSV
9.931763e+01,0.000000e+00
1.022103e+02,0.000000e+00
1.051030e+02,0.000000e+00
1.079957e+02,0.000000e+00
1.108884e+02,0.000000e+00
1.137811e+02,0.000000e+00
1.166738e+02,0.000000e+00
1.195665e+02,0.000000e+00
1.224592e+02,0.000000e+00
1.253519e+02,0.000000e+00
1.282446e+02,0.000000e+00
1.311373e+02,0.000000e+00
1.340300e+02,0.000000e+00
1.369227e+02,0.000000e+00
1.398154e+02,0.000000e+00
1.427081e+02,0.000000e+00
1.456008e+02,0.000000e+00
1.484935e+02,0.000000e+00
1.513862e+02,0.000000e+00
1.542789e+02,0.000000e+00
1.571716e+02,0.000000e+00
1.600643e+02,0.000000e+00
1.629570e+02,0.000000e+00
1.658497e+02,0.000000e+00
1.687424e+02,0.000000e+00
1.716351e+02,0.000000e+00
1.745278e+02,0.000000e+00
1.774205e+02,0.000000e+00
1.803132e+02,0.000000e+00
1.832059e+02,0.000000e+00
1.860986e+02,0.000000e+00
1.889913e+02,0.000000e+00
1.918840e+02,0.000000e+00
1.947767e+02,0.000000e+00
1.976694e+02,0.000000e+00
2.005621e+02,6.394521e+03
2.034548e+02,6.386338e+03
2.063475e+02,6.380392e+03
2.092402e+02,6.345781e+03
2.121329e+02,6.328551e+03
2.150256e+02,6.333903e+03
2.179183e+02,6.299826e+03
2.208110e+02,6.309700e+03
2.237037e+02,6.292889e+03
2.265964e+02,6.235193e+03
2.294892e+02,6.233595e+03
2.323819e+02,6.229244e+03
2.352746e+02,6.202439e+03
2.381673e+02,6.199428e+03
2.410600e+02,6.170408e+03
2.439527e+02,6.152411e+03
2.468454e+02,6.156483e+03
2.497381e+02,6.149649e+03
2.526308e+02,6.135370e+03
2.555235e+02,6.113397e+03
2.584161e+02,6.086627e+03
2.613088e+02,6.069714e+03
2.642015e+02,6.046021e+03
2.670942e+02,6.032852e+03
2.699869e+02,6.033106e+03
2.728796e+02,5.992877e+03
2.757723e+02,5.983130e+03
2.786650e+02,5.980676e+03
2.815577e+02,5.961181e+03
2.844504e+02,5.950780e+03
2.873431e+02,5.917772e+03
2.902358e+02,5.898946e+03
2.931285e+02,5.874675e+03
2.960212e+02,5.865405e+03
2.989139e+02,5.851295e+03
3.018066e+02,5.823867e+03
3.046993e+02,5.780973e+03
3.075920e+02,5.769447e+03
3.104847e+02,5.775056e+03
3.133774e+02,5.766086e+03
3.162701e+02,5.733883e+03
3.191628e+02,5.721375e+03
3.220555e+02,5.709481e+03
3.249482e+02,5.692191e+03
3.278409e+02,5.710675e+03
3.307336e+02,5.686564e+03
3.336263e+02,5.636630e+03
3.365190e+02,5.602589e+03
3.394117e+02,5.593304e+03
3.423044e+02,5.600608e+03
3.451971e+02,5.569083e+03
3.480898e+02,5.564949e+03
3.509825e+02,5.529412e+03
3.538752e+02,5.536148e+03
3.567680e+02,5.504603e+03
3.596607e+02,5.499924e+03
3.625534e+02,5.505235e+03
3.654461e+02,5.450771e+03
3.683388e+02,5.426992e+03
3.712315e+02,5.449552e+03
3.741242e+02,5.418400e+03
3.770169e+02,5.423681e+03
3.799096e+02,5.408662e+03
3.828023e+02,5.342884e+03
3.856950e+02,5.330086e+03
3.885877e+02,5.321490e+03
3.914804e+02,5.332781e+03
3.943731e+02,5.291515e+03
3.972658e+02,5.257269e+03
4.001585e+02,5.236430e+03
4.030512e+02,5.250834e+03
4.059439e+02,5.243775e+03
4.088366e+02,5.218763e+03
4.117293e+02,5.178822e+03
4.146220e+02,5.174560e+03
4.175147e+02,5.157888e+03
4.204074e+02,5.169326e+03
4.233001e+02,5.151580e+03
4.261928e+02,5.127095e+03
4.290855e+02,5.098446e+03
4.319782e+02,5.109972e+03
4.348709e+02,5.090479e+03
4.377636e+02,5.091371e+03
4.406563e+02,5.066286e+03
4.435490e+02,5.036952e+03
4.464417e+02,5.007203e+03
4.493344e+02,5.000730e+03
4.522271e+02,4.996891e+03
4.551198e+02,5.007306e+03
4.580125e+02,4.965015e+03
4.609052e+02,4.936509e+03
4.637979e+02,4.944361e+03
4.666906e+02,4.934508e+03
4.695833e+02,4.895922e+03
4.724760e+02,4.892843e+03
4.753687e+02,4.885808e+03
4.782614e+02,4.863852e+03
4.811541e+02,4.860227e+03
4.840468e+02,4.859640e+03
4.869395e+02,4.864470e+03
4.898322e+02,4.859436e+03
4.927249e+02,4.821635e+03
4.956176e+02,4.804655e+03
4.985103e+02,4.801107e+03
5.014030e+02,4.785102e+03
5.042957e+02,4.748280e+03
5.071884e+02,4.762284e+03
5.100811e+02,4.760711e+03
5.129738e+02,4.735425e+03
5.158665e+02,4.728989e+03
5.187592e+02,4.718400e+03
5.216519e+02,4.671092e+03
5.245446e+02,4.676321e+03
5.274373e+02,4.657919e+03
5.303300e+02,4.665830e+03
5.332227e+02,4.639495e+03
5.361154e+02,4.643837e+03
5.390081e+02,4.600740e+03
5.419008e+02,4.598000e+03
5.447935e+02,4.602865e+03
5.476862e+02,4.587553e+03
5.505789e+02,4.585372e+03
5.534716e+02,4.559935e+03
5.563643e+02,4.572022e+03
5.592570e+02,4.521469e+03
5.621497e+02,4.554641e+03
5.650424e+02,4.523225e+03
5.679351e+02,4.501253e+03
5.708278e+02,4.480975e+03
5.737205e+02,4.477743e+03
5.766132e+02,4.487311e+03
5.795059e+02,4.497597e+03
5.823986e+02,4.467877e+03
5.852913e+02,4.439820e+03
5.881840e+02,4.425207e+03
5.910767e+02,4.424938e+03
5.939694e+02,4.418329e+03
5.968621e+02,4.387947e+03
5.997548e+02,4.387462e+03
6.026475e+02,4.380900e+03
6.055402e+02,4.375850e+03
6.084329e+02,4.371541e+03
6.113256e+02,4.345688e+03
6.142183e+02,4.331827e+03
6.171110e+02,4.325756e+03
6.200037e+02,4.321283e+03
6.228964e+02,4.316302e+03
6.257891e+02,4.302446e+03
6.286818e+02,4.298026e+03
6.315745e+02,4.284840e+03
6.344672e+02,4.285581e+03
6.373599e+02,4.271214e+03
6.402526e+02,4.261561e+03
6.431453e+02,4.260966e+03
6.460380e+02,4.243218e+03
6.489307e+02,4.250351e+03
6.518234e+02,4.233243e+03
6.547161e+02,4.208338e+03
6.576088e+02,4.212540e+03
6.605015e+02,4.183634e+03
6.633942e+02,4.173094e+03
6.662869e+02,4.188211e+03
6.691796e+02,4.184220e+03
6.720723e+02,4.159681e+03
6.749650e+02,4.139597e+03
6.778577e+02,4.138589e+03
6.807504e+02,4.135871e+03
6.836431e+02,4.129975e+03
6.865358e+02,4.115617e+03
6.894285e+02,4.097662e+03
6.923212e+02,4.103734e+03
6.952139e+02,4.092176e+03
6.981066e+02,4.100252e+03
7.009993e+02,4.083972e+03
7.038920e+02,4.064871e+03
7.067847e+02,4.047176e+03
7.096774e+02,4.068036e+03
7.125701e+02,4.052504e+03
7.154628e+02,4.063826e+03
7.183555e+02,4.040875e+03
7.212482e+02,4.023649e+03
7.241409e+02,4.022272e+03
7.270336e+02,4.018417e+03
7.299263e+02,4.007602e+03
7.328190e+02,3.989270e+03
7.357117e+02,3.976287e+03
7.386044e+02,3.972018e+03
7.414971e+02,3.965075e+03
7.443898e+02,3.977616e+03
7.472825e+02,3.959743e+03
7.501752e+02,3.943554e+03
7.530679e+02,3.927557e+03
7.559606e+02,3.920066e+03
7.588533e+02,3.912922e+03
7.617460e+02,3.916923e+03
7.646387e+02,3.900965e+03
7.675314e+02,3.901498e+03
7.704241e+02,3.867653e+03
7.733168e+02,3.879709e+03
7.762095e+02,3.882477e+03
7.791022e+02,3.862885e+03
7.819949e+02,3.876935e+03
7.848876e+02,3.845237e+03
7.877803e+02,3.857925e+03
7.906730e+02,3.850987e+03
7.935657e+02,3.844548e+03
7.964584e+02,3.843110e+03
7.993511e+02,3.829824e+03
8.022438e+02,3.808229e+03
8.051365e+02,3.803330e+03
8.080292e+02,3.798924e+03
8.109219e+02,3.779717e+03
8.138146e+02,3.799010e+03
8.167073e+02,3.762477e+03
8.196000e+02,3.768509e+03
8.224927e+02,3.780116e+03
8.253854e+02,3.758835e+03
8.282781e+02,3.746990e+03
8.311708e+02,3.747325e+03
8.340635e+02,3.745276e+03
8.369562e+02,3.732677e+03
8.398489e+02,3.713349e+03
8.427416e+02,3.741415e+03
8.456343e+02,3.707208e+03
8.485270e+02,3.697139e+03
8.514197e+02,3.681195e+03
8.543124e+02,3.692697e+03
8.572051e+02,3.691671e+03
8.600978e+02,3.673446e+03
8.629905e+02,3.664869e+03
8.658832e+02,3.652445e+03
8.687759e+02,3.650399e+03
8.716686e+02,3.658097e+03
8.745613e+02,3.627268e+03
8.774540e+02,3.635718e+03
8.803467e+02,3.620955e+03
8.832394e+02,3.641584e+03
8.861321e+02,3.628761e+03
8.890248e+02,3.613240e+03
8.919175e+02,3.623221e+03
8.948102e+02,3.595805e+03
8.977029e+02,3.616810e+03
9.005956e+02,3.599110e+03
9.034883e+02,3.595780e+03
9.063810e+02,3.574046e+03
9.092737e+02,3.561240e+03
9.121664e+02,3.560108e+03
9.150591e+02,3.551206e+03
9.179518e+02,3.542356e+03
9.208445e+02,3.541831e+03
9.237372e+02,3.526299e+03
9.266299e+02,3.529796e+03
9.295226e+02,3.534577e+03
9.324153e+02,3.515596e+03
9.353080e+02,3.518458e+03
9.382007e+02,3.510500e+03
9.410934e+02,3.499986e+03
9.439861e+02,3.480036e+03
9.468788e+02,3.486891e+03
9.497715e+02,3.479897e+03
9.526642e+02,3.471034e+03
9.555569e+02,3.460422e+03
9.584496e+02,3.479577e+03
9.613423e+02,3.460970e+03
9.642350e+02,3.457520e+03
9.671277e+02,3.438198e+03
9.700204e+02,3.428318e+03
9.729131e+02,3.442571e+03
9.758058e+02,3.425810e+03
9.786985e+02,3.431868e+03
9.815912e+02,3.416896e+03
9.844839e+02,3.394110e+03
9.873766e+02,3.395195e+03
9.902693e+02,3.386986e+03
9.931620e+02,3.393771e+03
9.960547e+02,3.400171e+03
9.989474e+02,3.387268e+03
1.001840e+03,3.379598e+03
1.004733e+03,3.356875e+03
1.007626e+03,3.367160e+03
1.010518e+03,3.337190e+03
1.013411e+03,3.341555e+03
1.016304e+03,3.337249e+03
1.019196e+03,3.335077e+03
1.022089e+03,3.330114e+03
1.024982e+03,3.323630e+03
1.027875e+03,3.333259e+03
1.030767e+03,3.303853e+03
1.033660e+03,3.303510e+03
1.036552e+03,3.310285e+03
1.039445e+03,3.315979e+03
1.042338e+03,3.304193e+03
1.045231e+03,3.286866e+03
1.048123e+03,3.278016e+03
1.051016e+03,3.279016e+03
1.053909e+03,3.278009e+03
1.056802e+03,3.275388e+03
1.059694e+03,3.263062e+03
1.062587e+03,3.261703e+03
1.065479e+03,3.250281e+03
1.068372e+03,3.251515e+03
1.071265e+03,3.248181e+03
1.074158e+03,3.239734e+03
1.077050e+03,3.234177e+03
1.079943e+03,3.232288e+03
1.082836e+03,3.233600e+03
1.085729e+03,3.256551e+03
1.088621e+03,3.254067e+03
1.091514e+03,3.232296e+03
1.094406e+03,3.225406e+03
1.097299e+03,3.227686e+03
1.100192e+03,3.223608e+03
1.103085e+03,3.197855e+03
1.105977e+03,3.201633e+03
1.108870e+03,3.174920e+03
1.111763e+03,3.186960e+03
1.114656e+03,3.193932e+03
1.117548e+03,3.200006e+03
1.120441e+03,3.184664e+03
1.123334e+03,3.180109e+03
1.126226e+03,3.166359e+03
1.129119e+03,3.152698e+03
1.132012e+03,3.150567e+03
1.134904e+03,3.146185e+03
1.137797e+03,3.135078e+03
1.140690e+03,3.127552e+03
1.143583e+03,3.123788e+03
1.146475e+03,3.144099e+03
1.149368e+03,3.119535e+03
1.152261e+03,3.125985e+03
1.155153e+03,3.102890e+03
1.158046e+03,3.105311e+03
1.160939e+03,3.089553e+03
1.163831e+03,3.087481e+03
1.166724e+03,3.088563e+03
1.169617e+03,3.084400e+03
1.172510e+03,3.060806e+03
1.175402e+03,3.072847e+03
1.178295e+03,3.074094e+03
1.181188e+03,3.049169e+03
1.184080e+03,3.053744e+03
1.186973e+03,3.042673e+03
1.189866e+03,3.038312e+03
1.192758e+03,3.034808e+03
1.195651e+03,3.033146e+03
1.198544e+03,3.037773e+03
1.201437e+03,3.020322e+03
1.204329e+03,3.009032e+03
1.207222e+03,3.015822e+03
1.210115e+03,3.021594e+03
1.213007e+03,3.001630e+03
1.215900e+03,3.002299e+03
1.218793e+03,2.990310e+03
1.221685e+03,2.992932e+03
1.224578e+03,2.999001e+03
1.227471e+03,2.995657e+03
1.230364e+03,2.986330e+03
1.233256e+03,2.972735e+03
1.236149e+03,2.957930e+03
1.239042e+03,2.975067e+03
1.241934e+03,2.964388e+03
1.244827e+03,2.976904e+03
1.247720e+03,2.949557e+03
1.250612e+03,2.935412e+03
1.253505e+03,2.942591e+03
1.256398e+03,2.944520e+03
1.259291e+03,2.929954e+03
1.262183e+03,2.938930e+03
1.265076e+03,2.929271e+03
1.267969e+03,2.926445e+03
1.270861e+03,2.915138e+03
1.273754e+03,2.925141e+03
1.276647e+03,2.914737e+03
1.279539e+03,2.927167e+03
1.282432e+03,2.926720e+03
1.285325e+03,2.911535e+03
1.288218e+03,2.916734e+03
1.291110e+03,2.914247e+03
1.294003e+03,2.885215e+03
1.296896e+03,2.884554e+03
1.299788e+03,2.890346e+03
1.302681e+03,2.878717e+03
1.305574e+03,2.878210e+03
1.308466e+03,2.875890e+03
1.311359e+03,2.856833e+03
1.314252e+03,2.859555e+03
1.317145e+03,2.854088e+03
1.320037e+03,2.861969e+03
1.322930e+03,2.865794e+03
1.325823e+03,2.860882e+03
1.328715e+03,2.860974e+03
1.331608e+03,2.849949e+03
1.334501e+03,2.844490e+03
1.337393e+03,2.853592e+03
1.340286e+03,2.835676e+03
1.343179e+03,2.825134e+03
1.346072e+03,2.829131e+03
1.348964e+03,2.814991e+03
1.351857e+03,2.818242e+03
1.354750e+03,2.817181e+03
1.357642e+03,2.797540e+03
1.360535e+03,2.790046e+03
1.363428e+03,2.793922e+03
1.366320e+03,2.795762e+03
1.369213e+03,2.781340e+03
1.372106e+03,2.804872e+03
1.374999e+03,2.782694e+03
1.377891e+03,2.770794e+03
1.380784e+03,2.762710e+03
1.383677e+03,2.765117e+03
1.386569e+03,2.749103e+03
1.389462e+03,2.737959e+03
1.392355e+03,2.721490e+03
1.395247e+03,2.725328e+03
1.398140e+03,2.727976e+03
1.401033e+03,2.727774e+03
1.403926e+03,2.709453e+03
1.406818e+03,2.700315e+03
1.409711e+03,2.706146e+03
1.412604e+03,2.698529e+03
1.415496e+03,2.696982e+03
1.418389e+03,2.694839e+03
1.421282e+03,2.686246e+03
1.424174e+03,2.673827e+03
1.427067e+03,2.682316e+03
1.429960e+03,2.672849e+03
1.432853e+03,2.663800e+03
1.435745e+03,2.642737e+03
1.438638e+03,2.650481e+03
1.441531e+03,2.651002e+03
1.444423e+03,2.639631e+03
1.447316e+03,2.640873e+03
1.450209e+03,2.627674e+03
1.453101e+03,2.620476e+03
1.455994e+03,2.628707e+03
1.458887e+03,2.626893e+03
1.461780e+03,2.627780e+03
1.464672e+03,2.608662e+03
1.467565e+03,2.614439e+03
1.470458e+03,2.609102e+03
1.473350e+03,2.595986e+03
1.476243e+03,2.601048e+03
1.479136e+03,2.586500e+03
1.482028e+03,2.578012e+03
1.484921e+03,2.576352e+03
1.487814e+03,2.567213e+03
1.490707e+03,2.554406e+03
1.493599e+03,2.568092e+03
1.496492e+03,2.563350e+03
1.499385e+03,2.555495e+03
1.502277e+03,2.552027e+03
1.505170e+03,2.551120e+03
1.508063e+03,2.549835e+03
1.510955e+03,2.529023e+03
1.513848e+03,2.525715e+03
1.516741e+03,2.520644e+03
1.519634e+03,2.522899e+03
1.522526e+03,2.527321e+03
1.525419e+03,2.521528e+03
1.528312e+03,2.514072e+03
1.531204e+03,2.505173e+03
1.534097e+03,2.498046e+03
1.536990e+03,2.505019e+03
1.539882e+03,2.498629e+03
1.542775e+03,2.498541e+03
1.545668e+03,2.485641e+03
1.548561e+03,2.487745e+03
1.551453e+03,2.482327e+03
1.554346e+03,2.494750e+03
1.557239e+03,2.483774e+03
1.560131e+03,2.475078e+03
1.563024e+03,2.470864e+03
1.565917e+03,2.460574e+03
1.568809e+03,2.485378e+03
1.571702e+03,2.464318e+03
1.574595e+03,2.460601e+03
1.577488e+03,2.465643e+03
1.580380e+03,2.462335e+03
1.583273e+03,2.462885e+03
1.586166e+03,2.466939e+03
1.589058e+03,2.452744e+03
1.591951e+03,2.456427e+03
1.594844e+03,2.429975e+03
1.597736e+03,2.438381e+03
1.600629e+03,2.428885e+03
1.603522e+03,2.418420e+03
1.606415e+03,2.406397e+03
1.609307e+03,2.405519e+03
1.612200e+03,2.405394e+03
1.615093e+03,2.415763e+03
1.617985e+03,2.399782e+03
1.620878e+03,2.385923e+03
1.623771e+03,2.357766e+03
1.626663e+03,2.375664e+03
1.629556e+03,2.382215e+03
1.632449e+03,2.367567e+03
1.635342e+03,2.370059e+03
1.638234e+03,2.333773e+03
1.641127e+03,2.340500e+03
1.644020e+03,2.351336e+03
1.646912e+03,2.336194e+03
1.649805e+03,2.323806e+03
1.652698e+03,2.309852e+03
1.655590e+03,2.305749e+03
1.658483e+03,2.306938e+03
1.661376e+03,2.295726e+03
1.664269e+03,2.292669e+03
1.667161e+03,2.291589e+03
1.670054e+03,2.297333e+03
1.672947e+03,2.278285e+03
1.675839e+03,2.295099e+03
1.678732e+03,2.275459e+03
1.681625e+03,2.275514e+03
1.684517e+03,2.247488e+03
1.687410e+03,2.251516e+03
1.690303e+03,2.254595e+03
1.693196e+03,2.262180e+03
1.696088e+03,2.246935e+03
1.698981e+03,2.242852e+03
1.701874e+03,2.250081e+03
1.704766e+03,2.231156e+03
1.707659e+03,2.232795e+03
1.710552e+03,2.221160e+03
1.713444e+03,2.227512e+03
1.716337e+03,2.200856e+03
1.719230e+03,2.222465e+03
1.722123e+03,2.206413e+03
1.725015e+03,2.192000e+03
1.727908e+03,2.181195e+03
1.730801e+03,2.195531e+03
1.733693e+03,2.188847e+03
1.736586e+03,2.194225e+03
1.739479e+03,2.182382e+03
1.742371e+03,2.189133e+03
1.745264e+03,2.164945e+03
1.748157e+03,2.155725e+03
1.751050e+03,2.167240e+03
1.753942e+03,2.178343e+03
1.756835e+03,2.170667e+03
1.759728e+03,2.137510e+03
1.762620e+03,2.150805e+03
1.765513e+03,2.130170e+03
1.768406e+03,2.127315e+03
1.771298e+03,2.145191e+03
1.774191e+03,2.115653e+03
1.777084e+03,2.107377e+03
1.779977e+03,2.119877e+03
1.782869e+03,2.106099e+03
1.785762e+03,2.112465e+03
1.788655e+03,2.112765e+03
1.791547e+03,2.083094e+03
1.794440e+03,2.100064e+03
1.797333e+03,2.085094e+03
1.800225e+03,2.098593e+03
1.803118e+03,2.073013e+03
1.806011e+03,2.078083e+03
1.808904e+03,2.066383e+03
1.811796e+03,2.099891e+03
1.814689e+03,2.072998e+03
1.817582e+03,2.057141e+03
1.820474e+03,2.059865e+03
1.823367e+03,2.046510e+03
1.826260e+03,2.041168e+03
1.829152e+03,2.043453e+03
1.832045e+03,2.041020e+03
1.834938e+03,2.018228e+03
1.837831e+03,2.028580e+03
1.840723e+03,2.041410e+03
1.843616e+03,2.019689e+03
1.846509e+03,2.012838e+03
1.849401e+03,2.010046e+03
1.852294e+03,2.008046e+03
1.855187e+03,1.981585e+03
1.858079e+03,2.001885e+03
1.860972e+03,1.972079e+03
1.863865e+03,1.999263e+03
1.866758e+03,1.968737e+03
1.869650e+03,1.975374e+03
1.872543e+03,1.963370e+03
1.875436e+03,1.981538e+03
1.878328e+03,1.975939e+03
1.881221e+03,1.958528e+03
1.884114e+03,1.955035e+03
1.887006e+03,1.954120e+03
1.889899e+03,1.962359e+03
1.892792e+03,1.941684e+03
1.895685e+03,1.941743e+03
1.898577e+03,1.942004e+03
1.901470e+03,1.928857e+03
1.904363e+03,1.917578e+03
1.907255e+03,1.933132e+03
1.910148e+03,1.915354e+03
1.913041e+03,1.908250e+03
1.915933e+03,1.903829e+03
1.918826e+03,1.891034e+03
1.921719e+03,1.898658e+03
1.924612e+03,1.900006e+03
1.927504e+03,1.895135e+03
1.930397e+03,1.894956e+03
1.933290e+03,1.875121e+03
1.936182e+03,1.881162e+03
1.939075e+03,1.885454e+03
1.941968e+03,1.856113e+03
1.944860e+03,1.865724e+03
1.947753e+03,1.867891e+03
1.950646e+03,1.856302e+03
1.953539e+03,1.855674e+03
1.956431e+03,1.851707e+03
1.959324e+03,1.827763e+03
1.962217e+03,1.835588e+03
1.965109e+03,1.830445e+03
1.968002e+03,1.836671e+03
1.970895e+03,1.841516e+03
1.973787e+03,1.812732e+03
1.976680e+03,1.814192e+03
1.979573e+03,1.833015e+03
1.982466e+03,1.800713e+03
1.985358e+03,1.823137e+03
1.988251e+03,1.794689e+03
1.991144e+03,1.796167e+03
1.994036e+03,1.789612e+03
1.996929e+03,1.793193e+03
1.999822e+03,1.795510e+03
2.002714e+03,1.791793e+03
2.005607e+03,1.766245e+03
2.008500e+03,1.764937e+03
2.011393e+03,1.759713e+03
2.014285e+03,1.764773e+03
2.017178e+03,1.778907e+03
2.020071e+03,1.768266e+03
2.022963e+03,1.757645e+03
2.025856e+03,1.737188e+03
2.028749e+03,1.748546e+03
2.031641e+03,1.744178e+03
2.034534e+03,1.715551e+03
2.037427e+03,1.746343e+03
2.040320e+03,1.709055e+03
2.043212e+03,1.721883e+03
2.046105e+03,1.721657e+03
2.048998e+03,1.715737e+03
2.051890e+03,1.703454e+03
2.054783e+03,1.695174e+03
2.057676e+03,1.699903e+03
2.060568e+03,1.688558e+03
2.063461e+03,1.690612e+03
2.066354e+03,1.673533e+03
2.069247e+03,1.695952e+03
2.072139e+03,1.673496e+03
2.075032e+03,1.680497e+03
2.077925e+03,1.681177e+03
2.080817e+03,1.663021e+03
2.083710e+03,1.650824e+03
2.086603e+03,1.642207e+03
2.089496e+03,1.629724e+03
2.092388e+03,1.644873e+03
2.095281e+03,1.639825e+03
2.098174e+03,1.642759e+03
2.101066e+03,1.631255e+03
2.103959e+03,1.626170e+03
2.106852e+03,1.624423e+03
2.109744e+03,1.629837e+03
2.112637e+03,1.611249e+03
2.115530e+03,1.588167e+03
2.118422e+03,1.592271e+03
2.121315e+03,1.618984e+03
2.124208e+03,1.628250e+03
2.127101e+03,1.584938e+03
2.129993e+03,1.581887e+03
2.132886e+03,1.569394e+03
2.135779e+03,1.600047e+03
2.138671e+03,1.588463e+03
2.141564e+03,1.574828e+03
2.144457e+03,1.578081e+03
2.147350e+03,1.547910e+03
2.150242e+03,1.558606e+03
2.153135e+03,1.563066e+03
2.156028e+03,1.551237e+03
2.158920e+03,1.537664e+03
2.161813e+03,1.553934e+03
2.164706e+03,1.537306e+03
2.167598e+03,1.557099e+03
2.170491e+03,1.542111e+03
2.173384e+03,1.532516e+03
2.176277e+03,1.529922e+03
2.179169e+03,1.513097e+03
2.182062e+03,1.514486e+03
2.184955e+03,1.520518e+03
2.187847e+03,1.515104e+03
2.190740e+03,1.503476e+03
2.193633e+03,1.511076e+03
2.196525e+03,1.485391e+03
2.199418e+03,1.496827e+03
2.202311e+03,1.488402e+03
2.205204e+03,1.493932e+03
2.208096e+03,1.474862e+03
2.210989e+03,1.460825e+03
2.213882e+03,1.477128e+03
2.216774e+03,1.476078e+03
2.219667e+03,1.476564e+03
2.222560e+03,1.448761e+03
2.225452e+03,1.452670e+03
2.228345e+03,1.447492e+03
2.231238e+03,1.471017e+03
2.234131e+03,1.427592e+03
2.237023e+03,1.456930e+03
2.239916e+03,1.446426e+03
2.242809e+03,1.435937e+03
2.245701e+03,1.418727e+03
2.248594e+03,1.425240e+03
2.251487e+03,1.419993e+03
2.254379e+03,1.429901e+03
2.257272e+03,1.411606e+03
2.260165e+03,1.399689e+03
2.263058e+03,1.412969e+03
2.265950e+03,1.411486e+03
2.268843e+03,1.402287e+03
2.271736e+03,1.377094e+03
2.274628e+03,1.395679e+03
2.277521e+03,1.398382e+03
2.280414e+03,1.382909e+03
2.283306e+03,1.398984e+03
2.286199e+03,1.378926e+03
2.289092e+03,1.368618e+03
2.291985e+03,1.355995e+03
2.294877e+03,1.374969e+03
2.297770e+03,1.372071e+03
2.300663e+03,1.354590e+03
2.303555e+03,1.351345e+03
2.306448e+03,1.356780e+03
2.309341e+03,1.353216e+03
2.312233e+03,1.348305e+03
2.315126e+03,1.349639e+03
2.318019e+03,1.316430e+03
2.320912e+03,1.337141e+03
2.323804e+03,1.329077e+03
2.326697e+03,1.328881e+03
2.329590e+03,1.337699e+03
2.332482e+03,1.321156e+03
2.335375e+03,1.314078e+03
2.338268e+03,1.303452e+03
2.341160e+03,1.299973e+03
2.344053e+03,1.308127e+03
2.346946e+03,1.320442e+03
2.349839e+03,1.288061e+03
2.352731e+03,1.297845e+03
2.355624e+03,1.286041e+03
2.358517e+03,1.284193e+03
2.361409e+03,1.295985e+03
2.364302e+03,1.277553e+03
2.367195e+03,1.286637e+03
2.370087e+03,1.275093e+03
2.372980e+03,1.276531e+03
2.375873e+03,1.274241e+03
2.378766e+03,1.263483e+03
2.381658e+03,1.241311e+03
2.384551e+03,1.261304e+03
2.387444e+03,1.255672e+03
2.390336e+03,1.252871e+03
2.393229e+03,1.242226e+03
2.396122e+03,1.233238e+03
2.399014e+03,1.237006e+03
2.401907e+03,1.246547e+03
2.404800e+03,1.219299e+03
2.407693e+03,1.222590e+03
2.410585e+03,1.221993e+03
2.413478e+03,1.220172e+03
2.416371e+03,1.228645e+03
2.419263e+03,1.222785e+03
2.422156e+03,1.223339e+03
2.425049e+03,1.201756e+03
2.427941e+03,1.192601e+03
2.430834e+03,1.196319e+03
2.433727e+03,1.203390e+03
2.436620e+03,1.198527e+03
2.439512e+03,1.196081e+03
2.442405e+03,1.189827e+03
2.445298e+03,1.183159e+03
2.448190e+03,1.180412e+03
2.451083e+03,1.193214e+03
2.453976e+03,1.184612e+03
2.456868e+03,1.184632e+03
2.459761e+03,1.183577e+03
2.462654e+03,1.186545e+03
2.465547e+03,1.160011e+03
2.468439e+03,1.177726e+03
2.471332e+03,1.166260e+03
2.474225e+03,1.156276e+03
2.477117e+03,1.171758e+03
2.480010e+03,1.168727e+03
2.482903e+03,1.157740e+03
2.485795e+03,1.171380e+03
2.488688e+03,1.149173e+03
2.491581e+03,1.157093e+03
2.494474e+03,1.141312e+03
2.497366e+03,1.141763e+03
2.500259e+03,1.139811e+03
2.503152e+03,1.142633e+03
2.506044e+03,1.143712e+03
2.508937e+03,1.121054e+03
2.511830e+03,1.146622e+03
2.514722e+03,1.138770e+03
2.517615e+03,1.133613e+03
2.520508e+03,1.126975e+03
2.523401e+03,1.130877e+03
2.526293e+03,1.115484e+03
2.529186e+03,1.115194e+03
2.532079e+03,1.112180e+03
2.534971e+03,1.109161e+03
2.537864e+03,1.104038e+03
2.540757e+03,1.111222e+03
2.543649e+03,1.117208e+03
2.546542e+03,1.117689e+03
2.549435e+03,1.116648e+03
2.552328e+03,1.101444e+03
2.555220e+03,1.106264e+03
2.558113e+03,1.100398e+03
2.561006e+03,1.085883e+03
2.563898e+03,1.083447e+03
2.566791e+03,1.083828e+03
2.569684e+03,1.091072e+03
2.572576e+03,1.100117e+03
2.575469e+03,1.080111e+03
2.578362e+03,1.097785e+03
2.581255e+03,1.087279e+03
2.584147e+03,1.085132e+03
2.587040e+03,1.064152e+03
2.589933e+03,1.071642e+03
2.592825e+03,1.055172e+03
2.595718e+03,1.065875e+03
2.598611e+03,1.065381e+03
2.601503e+03,1.061235e+03
2.604396e+03,1.062968e+03
2.607289e+03,1.066999e+03
2.610182e+03,1.037433e+03
2.613074e+03,1.052297e+03
2.615967e+03,1.039360e+03
2.618860e+03,1.048271e+03
2.621752e+03,1.052372e+03
2.624645e+03,1.049617e+03
2.627538e+03,1.052190e+03
2.630430e+03,1.030476e+03
2.633323e+03,1.053221e+03
2.636216e+03,1.020335e+03
2.639109e+03,1.016014e+03
2.642001e+03,1.050883e+03
2.644894e+03,1.036206e+03
2.647787e+03,1.035389e+03
2.650679e+03,1.031812e+03
2.653572e+03,1.040338e+03
2.656465e+03,1.008836e+03
2.659357e+03,1.017886e+03
2.662250e+03,1.014902e+03
2.665143e+03,1.022421e+03
2.668036e+03,1.003400e+03
2.670928e+03,1.021172e+03
2.673821e+03,1.007452e+03
2.676714e+03,1.003587e+03
2.679606e+03,1.006067e+03
2.682499e+03,1.008932e+03
2.685392e+03,1.024696e+03
2.688284e+03,1.001518e+03
2.691177e+03,9.849628e+02
2.694070e+03,1.007998e+03
2.696963e+03,9.898345e+02
2.699855e+03,9.958475e+02
2.702748e+03,1.004426e+03
2.705641e+03,9.902828e+02
2.708533e+03,1.000130e+03
2.711426e+03,9.906321e+02
2.714319e+03,9.896942e+02
2.717211e+03,9.943695e+02
2.720104e+03,9.741799e+02
2.722997e+03,9.833424e+02
2.725890e+03,9.777012e+02
2.728782e+03,9.819258e+02
2.731675e+03,9.894709e+02
2.734568e+03,9.803611e+02
2.737460e+03,9.537667e+02
2.740353e+03,9.777358e+02
2.743246e+03,9.710739e+02
2.746138e+03,9.659209e+02
2.749031e+03,9.701725e+02
2.751924e+03,9.655839e+02
2.754817e+03,9.746236e+02
2.757709e+03,9.461689e+02
2.760602e+03,9.696605e+02
2.763495e+03,9.392570e+02
2.766387e+03,9.536158e+02
2.769280e+03,9.429267e+02
2.772173e+03,9.474841e+02
2.775065e+03,9.523227e+02
2.777958e+03,9.512809e+02
2.780851e+03,9.399984e+02
2.783744e+03,9.540195e+02
2.786636e+03,9.351569e+02
2.789529e+03,9.642242e+02
2.792422e+03,9.377638e+02
2.795314e+03,9.515148e+02
2.798207e+03,9.354590e+02
2.801100e+03,9.394678e+02
2.803992e+03,9.242757e+02
2.806885e+03,9.301086e+02
2.809778e+03,9.234195e+02
2.812671e+03,9.532195e+02
2.815563e+03,9.087939e+02
2.818456e+03,9.202777e+02
2.821349e+03,9.323937e+02
2.824241e+03,9.389011e+02
2.827134e+03,9.395085e+02
2.830027e+03,9.232733e+02
2.832919e+03,9.198524e+02
2.835812e+03,9.247512e+02
2.838705e+03,9.359214e+02
2.841598e+03,9.297561e+02
2.844490e+03,9.228578e+02
2.847383e+03,9.339100e+02
2.850276e+03,9.519813e+02
2.853168e+03,9.254835e+02
2.856061e+03,9.289174e+02
2.858954e+03,9.117074e+02
2.861846e+03,9.283077e+02
2.864739e+03,9.380148e+02
2.867632e+03,9.338962e+02
2.870525e+03,9.391028e+02
2.873417e+03,9.270743e+02
2.876310e+03,9.390728e+02
2.879203e+03,9.386212e+02
2.882095e+03,9.502781e+02
2.884988e+03,9.484201e+02
2.887881e+03,9.349673e+02
2.890773e+03,9.466602e+02
2.893666e+03,9.175793e+02
2.896559e+03,9.461055e+02
2.899452e+03,9.457844e+02
2.902344e+03,9.216447e+02
2.905237e+03,9.245135e+02
2.908130e+03,8.959042e+02
2.911022e+03,9.263383e+02
2.913915e+03,8.945103e+02
2.916808e+03,9.071564e+02
2.919700e+03,9.166757e+02
2.922593e+03,9.092186e+02
2.925486e+03,9.100532e+02
2.928379e+03,8.971564e+02
2.931271e+03,8.949539e+02
2.934164e+03,9.094661e+02
2.937057e+03,8.901509e+02
2.939949e+03,9.297979e+02
2.942842e+03,8.891652e+02
2.945735e+03,9.011464e+02
2.948627e+03,8.977647e+02
2.951520e+03,8.758925e+02
2.954413e+03,8.773473e+02
2.957306e+03,9.305533e+02
2.960198e+03,9.237990e+02
2.963091e+03,8.761976e+02
2.965984e+03,8.780472e+02
2.968876e+03,8.639057e+02
2.971769e+03,8.464089e+02
2.974662e+03,8.395494e+02
2.977554e+03,8.644108e+02
2.980447e+03,8.522907e+02
2.983340e+03,8.759001e+02
2.986233e+03,8.515477e+02
2.989125e+03,8.596039e+02
2.992018e+03,8.581187e+02
2.994911e+03,8.337625e+02
2.997803e+03,8.358982e+02
3.000696e+03,8.501111e+02
3.003589e+03,8.422258e+02
3.006481e+03,8.729809e+02
3.009374e+03,8.380753e+02
3.012267e+03,8.505789e+02
3.015160e+03,8.498904e+02
3.018052e+03,8.263520e+02
3.020945e+03,8.434851e+02
3.023838e+03,8.139908e+02
3.026730e+03,8.141403e+02
3.029623e+03,8.358720e+02
3.032516e+03,8.482538e+02
3.035408e+03,8.377551e+02
3.038301e+03,8.108004e+02
3.041194e+03,8.437209e+02
3.044087e+03,8.152597e+02
3.046979e+03,8.263138e+02
3.049872e+03,8.569951e+02
3.052765e+03,8.179552e+02
3.055657e+03,8.511883e+02
3.058550e+03,8.375696e+02
3.061443e+03,8.518201e+02
3.064335e+03,8.040472e+02
3.067228e+03,8.778428e+02
3.070121e+03,8.576744e+02
3.073014e+03,8.165031e+02
3.075906e+03,8.413603e+02
3.078799e+03,8.369417e+02
3.081692e+03,8.454265e+02
3.084584e+03,8.156690e+02
3.087477e+03,8.540883e+02
3.090370e+03,8.212966e+02
3.093262e+03,8.218137e+02
3.096155e+03,8.244665e+02
3.099048e+03,8.083391e+02
3.101941e+03,7.848475e+02
3.104833e+03,8.183649e+02
3.107726e+03,8.440602e+02
3.110619e+03,8.110117e+02
3.113511e+03,8.077914e+02
3.116404e+03,8.203768e+02
3.119297e+03,8.214400e+02
3.122189e+03,8.047259e+02
3.125082e+03,8.324114e+02
3.127975e+03,7.950977e+02
3.130868e+03,8.145511e+02
3.133760e+03,8.143295e+02
3.136653e+03,8.216078e+02
3.139546e+03,7.927952e+02
3.142438e+03,8.426407e+02
3.145331e+03,7.784792e+02
3.148224e+03,8.376072e+02
3.151116e+03,8.255043e+02
3.154009e+03,8.357205e+02
3.156902e+03,8.303007e+02
3.159795e+03,8.078850e+02
3.162687e+03,8.521472e+02
3.165580e+03,8.112297e+02
3.168473e+03,8.263671e+02
3.171365e+03,7.995325e+02
3.174258e+03,8.460400e+02
3.177151e+03,7.661877e+02
3.180043e+03,8.445195e+02
3.182936e+03,8.258397e+02
3.185829e+03,8.364604e+02
3.188722e+03,8.167574e+02
3.191614e+03,8.234117e+02
3.194507e+03,8.199052e+02
3.197400e+03,8.438148e+02
3.200292e+03,8.389302e+02
3.203185e+03,0.000000e+00
3.206078e+03,0.000000e+00
3.208970e+03,0.000000e+00
3.211863e+03,0.000000e+00
3.214756e+03,0.000000e+00
3.217649e+03,0.000000e+00
3.220541e+03,0.000000e+00
3.223434e+03,0.000000e+00
3.226327e+03,0.000000e+00
3.229219e+03,0.000000e+00
3.232112e+03,0.000000e+00
3.235005e+03,0.000000e+00
3.237897e+03,0.000000e+00
3.240790e+03,0.000000e+00
3.243683e+03,0.000000e+00
3.246576e+03,0.000000e+00
3.249468e+03,0.000000e+00
3.252361e+03,0.000000e+00
3.255254e+03,0.000000e+00
3.258146e+03,0.000000e+00
3.261039e+03,0.000000e+00
3.263932e+03,0.000000e+00
3.266824e+03,0.000000e+00
3.269717e+03,0.000000e+00
3.272610e+03,0.000000e+00
3.275503e+03,0.000000e+00
3.278395e+03,0.000000e+00
3.281288e+03,0.000000e+00
3.284181e+03,0.000000e+00
3.287073e+03,0.000000e+00
3.289966e+03,0.000000e+00
3.292859e+03,0.000000e+00
3.295751e+03,0.000000e+00
3.298644e+03,0.000000e+00
3.301537e+03,0.000000e+00
3.304430e+03,0.000000e+00
3.307322e+03,0.000000e+00
3.310215e+03,0.000000e+00
3.313108e+03,0.000000e+00
3.316000e+03,0.000000e+00
3.318893e+03,0.000000e+00
3.321786e+03,0.000000e+00
3.324678e+03,0.000000e+00
3.327571e+03,0.000000e+00
3.330464e+03,0.000000e+00
3.333357e+03,0.000000e+00
3.336249e+03,0.000000e+00
3.339142e+03,0.000000e+00
3.342035e+03,0.000000e+00
3.344927e+03,0.000000e+00
3.347820e+03,0.000000e+00
3.350713e+03,0.000000e+00
3.353605e+03,0.000000e+00
3.356498e+03,0.000000e+00
3.359391e+03,0.000000e+00
3.362284e+03,0.000000e+00
3.365176e+03,0.000000e+00
3.368069e+03,0.000000e+00
3.370962e+03,0.000000e+00
3.373854e+03,0.000000e+00
3.376747e+03,0.000000e+00
3.379640e+03,0.000000e+00
3.382532e+03,0.000000e+00
3.385425e+03,0.000000e+00
3.388318e+03,0.000000e+00
3.391211e+03,0.000000e+00
3.394103e+03,0.000000e+00
3.396996e+03,0.000000e+00
3.399889e+03,0.000000e+00
3.402781e+03,0.000000e+00
3.405674e+03,0.000000e+00
3.408567e+03,0.000000e+00
3.411459e+03,0.000000e+00
3.414352e+03,0.000000e+00
3.417245e+03,0.000000e+00
3.420138e+03,0.000000e+00
3.423030e+03,0.000000e+00
3.425923e+03,0.000000e+00
3.428816e+03,0.000000e+00
3.431708e+03,0.000000e+00
3.434601e+03,0.000000e+00
3.437494e+03,0.000000e+00
3.440386e+03,0.000000e+00
3.443279e+03,0.000000e+00
3.446172e+03,0.000000e+00
3.449065e+03,0.000000e+00
3.451957e+03,0.000000e+00
3.454850e+03,0.000000e+00
3.457743e+03,0.000000e+00
3.460635e+03,0.000000e+00
3.463528e+03,0.000000e+00
3.466421e+03,0.000000e+00
3.469313e+03,0.000000e+00
3.472206e+03,0.000000e+00
3.475099e+03,0.000000e+00
3.477992e+03,0.000000e+00
3.480884e+03,0.000000e+00
3.483777e+03,0.000000e+00
3.486670e+03,0.000000e+00
3.489563e+03,0.000000e+00
3.492455e+03,0.000000e+00
3.495348e+03,0.000000e+00
3.498240e+03,0.000000e+00
3.500169e+03,0.000000e+00