File: RAMAN_data/13042023_r2/blue fibre7.CSV
9.931763e+01,0.000000e+00
1.022103e+02,0.000000e+00
1.051030e+02,0.000000e+00
1.079957e+02,0.000000e+00
1.108884e+02,0.000000e+00
1.137811e+02,0.000000e+00
1.166738e+02,0.000000e+00
1.195665e+02,0.000000e+00
1.224592e+02,0.000000e+00
1.253519e+02,0.000000e+00
1.282446e+02,0.000000e+00
1.311373e+02,0.000000e+00
1.340300e+02,0.000000e+00
1.369227e+02,0.000000e+00
1.398154e+02,0.000000e+00
1.427081e+02,0.000000e+00
1.456008e+02,0.000000e+00
1.484935e+02,0.000000e+00
1.513862e+02,0.000000e+00
1.542789e+02,0.000000e+00
1.571716e+02,0.000000e+00
1.600643e+02,0.000000e+00
1.629570e+02,0.000000e+00
1.658497e+02,0.000000e+00
1.687424e+02,0.000000e+00
1.716351e+02,0.000000e+00
1.745278e+02,0.000000e+00
1.774205e+02,0.000000e+00
1.803132e+02,0.000000e+00
1.832059e+02,0.000000e+00
1.860986e+02,0.000000e+00
1.889913e+02,0.000000e+00
1.918840e+02,0.000000e+00
1.947767e+02,0.000000e+00
1.976694e+02,0.000000e+00
2.005621e+02,9.959730e+03
2.034548e+02,9.977842e+03
2.063475e+02,9.984353e+03
2.092402e+02,9.972873e+03
2.121329e+02,9.947460e+03
2.150256e+02,9.942644e+03
2.179183e+02,9.966405e+03
2.208110e+02,9.981749e+03
2.237037e+02,9.973866e+03
2.265964e+02,9.962134e+03
2.294892e+02,9.960718e+03
2.323819e+02,9.969129e+03
2.352746e+02,9.962243e+03
2.381673e+02,9.976521e+03
2.410600e+02,9.956991e+03
2.439527e+02,9.923531e+03
2.468454e+02,9.988814e+03
2.497381e+02,9.973240e+03
2.526308e+02,9.984007e+03
2.555235e+02,9.956137e+03
2.584161e+02,9.939826e+03
2.613088e+02,9.973253e+03
2.642015e+02,9.985108e+03
2.670942e+02,1.001158e+04
2.699869e+02,9.991331e+03
2.728796e+02,9.979361e+03
2.757723e+02,9.968946e+03
2.786650e+02,1.001489e+04
2.815577e+02,9.961907e+03
2.844504e+02,1.002187e+04
2.873431e+02,9.963225e+03
2.902358e+02,9.989196e+03
2.931285e+02,9.949443e+03
2.960212e+02,9.902706e+03
2.989139e+02,9.909463e+03
3.018066e+02,9.826021e+03
3.046993e+02,9.838564e+03
3.075920e+02,9.887370e+03
3.104847e+02,9.842670e+03
3.133774e+02,9.835752e+03
3.162701e+02,9.839964e+03
3.191628e+02,9.773873e+03
3.220555e+02,9.759537e+03
3.249482e+02,9.747874e+03
3.278409e+02,9.737147e+03
3.307336e+02,9.711689e+03
3.336263e+02,9.712799e+03
3.365190e+02,9.685448e+03
3.394117e+02,9.671525e+03
3.423044e+02,9.634610e+03
3.451971e+02,9.635543e+03
3.480898e+02,9.622332e+03
3.509825e+02,9.577091e+03
3.538752e+02,9.567223e+03
3.567680e+02,9.535373e+03
3.596607e+02,9.550309e+03
3.625534e+02,9.530703e+03
3.654461e+02,9.476752e+03
3.683388e+02,9.422121e+03
3.712315e+02,9.473793e+03
3.741242e+02,9.436188e+03
3.770169e+02,9.438152e+03
3.799096e+02,9.395948e+03
3.828023e+02,9.351280e+03
3.856950e+02,9.355986e+03
3.885877e+02,9.358021e+03
3.914804e+02,9.321756e+03
3.943731e+02,9.276691e+03
3.972658e+02,9.242767e+03
4.001585e+02,9.253739e+03
4.030512e+02,9.229416e+03
4.059439e+02,9.239478e+03
4.088366e+02,9.217565e+03
4.117293e+02,9.164972e+03
4.146220e+02,9.135659e+03
4.175147e+02,9.128698e+03
4.204074e+02,9.102160e+03
4.233001e+02,9.094205e+03
4.261928e+02,9.062599e+03
4.290855e+02,9.045140e+03
4.319782e+02,9.009444e+03
4.348709e+02,9.014349e+03
4.377636e+02,8.991831e+03
4.406563e+02,8.964354e+03
4.435490e+02,8.959652e+03
4.464417e+02,8.910753e+03
4.493344e+02,8.916376e+03
4.522271e+02,8.921063e+03
4.551198e+02,8.880683e+03
4.580125e+02,8.839083e+03
4.609052e+02,8.840845e+03
4.637979e+02,8.804774e+03
4.666906e+02,8.818142e+03
4.695833e+02,8.780797e+03
4.724760e+02,8.763408e+03
4.753687e+02,8.705729e+03
4.782614e+02,8.721088e+03
4.811541e+02,8.691340e+03
4.840468e+02,8.667803e+03
4.869395e+02,8.689629e+03
4.898322e+02,8.642979e+03
4.927249e+02,8.641021e+03
4.956176e+02,8.645899e+03
4.985103e+02,8.624252e+03
5.014030e+02,8.594903e+03
5.042957e+02,8.562407e+03
5.071884e+02,8.553386e+03
5.100811e+02,8.519386e+03
5.129738e+02,8.533223e+03
5.158665e+02,8.520032e+03
5.187592e+02,8.497448e+03
5.216519e+02,8.446498e+03
5.245446e+02,8.474252e+03
5.274373e+02,8.455334e+03
5.303300e+02,8.430923e+03
5.332227e+02,8.414104e+03
5.361154e+02,8.395182e+03
5.390081e+02,8.387101e+03
5.419008e+02,8.353259e+03
5.447935e+02,8.362546e+03
5.476862e+02,8.385226e+03
5.505789e+02,8.305688e+03
5.534716e+02,8.270938e+03
5.563643e+02,8.259105e+03
5.592570e+02,8.275128e+03
5.621497e+02,8.290965e+03
5.650424e+02,8.246768e+03
5.679351e+02,8.212501e+03
5.708278e+02,8.174292e+03
5.737205e+02,8.188898e+03
5.766132e+02,8.128765e+03
5.795059e+02,8.148438e+03
5.823986e+02,8.097017e+03
5.852913e+02,8.084100e+03
5.881840e+02,8.071646e+03
5.910767e+02,8.065305e+03
5.939694e+02,8.092123e+03
5.968621e+02,8.078086e+03
5.997548e+02,8.037739e+03
6.026475e+02,8.012679e+03
6.055402e+02,8.023612e+03
6.084329e+02,8.017961e+03
6.113256e+02,7.964382e+03
6.142183e+02,7.945767e+03
6.171110e+02,7.932583e+03
6.200037e+02,7.903571e+03
6.228964e+02,7.903365e+03
6.257891e+02,7.899715e+03
6.286818e+02,7.877216e+03
6.315745e+02,7.839179e+03
6.344672e+02,7.834121e+03
6.373599e+02,7.859985e+03
6.402526e+02,7.830479e+03
6.431453e+02,7.790202e+03
6.460380e+02,7.760313e+03
6.489307e+02,7.737404e+03
6.518234e+02,7.773795e+03
6.547161e+02,7.769880e+03
6.576088e+02,7.698544e+03
6.605015e+02,7.708896e+03
6.633942e+02,7.659973e+03
6.662869e+02,7.684872e+03
6.691796e+02,7.694196e+03
6.720723e+02,7.659011e+03
6.749650e+02,7.653694e+03
6.778577e+02,7.623134e+03
6.807504e+02,7.608819e+03
6.836431e+02,7.602354e+03
6.865358e+02,7.572440e+03
6.894285e+02,7.548286e+03
6.923212e+02,7.556682e+03
6.952139e+02,7.531872e+03
6.981066e+02,7.535257e+03
7.009993e+02,7.524403e+03
7.038920e+02,7.487472e+03
7.067847e+02,7.472484e+03
7.096774e+02,7.442168e+03
7.125701e+02,7.472575e+03
7.154628e+02,7.469607e+03
7.183555e+02,7.430716e+03
7.212482e+02,7.414989e+03
7.241409e+02,7.417063e+03
7.270336e+02,7.399269e+03
7.299263e+02,7.350835e+03
7.328190e+02,7.371993e+03
7.357117e+02,7.356499e+03
7.386044e+02,7.342337e+03
7.414971e+02,7.311812e+03
7.443898e+02,7.326275e+03
7.472825e+02,7.295033e+03
7.501752e+02,7.270585e+03
7.530679e+02,7.260798e+03
7.559606e+02,7.260349e+03
7.588533e+02,7.226279e+03
7.617460e+02,7.250685e+03
7.646387e+02,7.223322e+03
7.675314e+02,7.205350e+03
7.704241e+02,7.158502e+03
7.733168e+02,7.155052e+03
7.762095e+02,7.176925e+03
7.791022e+02,7.159885e+03
7.819949e+02,7.123245e+03
7.848876e+02,7.130622e+03
7.877803e+02,7.113680e+03
7.906730e+02,7.091743e+03
7.935657e+02,7.095492e+03
7.964584e+02,7.055991e+03
7.993511e+02,7.054655e+03
8.022438e+02,7.040516e+03
8.051365e+02,7.043962e+03
8.080292e+02,7.032583e+03
8.109219e+02,7.015375e+03
8.138146e+02,6.987970e+03
8.167073e+02,6.993624e+03
8.196000e+02,6.951775e+03
8.224927e+02,6.947930e+03
8.253854e+02,6.932208e+03
8.282781e+02,6.922107e+03
8.311708e+02,6.920636e+03
8.340635e+02,6.899900e+03
8.369562e+02,6.909681e+03
8.398489e+02,6.891640e+03
8.427416e+02,6.873800e+03
8.456343e+02,6.828380e+03
8.485270e+02,6.803660e+03
8.514197e+02,6.835292e+03
8.543124e+02,6.823093e+03
8.572051e+02,6.821861e+03
8.600978e+02,6.787172e+03
8.629905e+02,6.779864e+03
8.658832e+02,6.764459e+03
8.687759e+02,6.775512e+03
8.716686e+02,6.762833e+03
8.745613e+02,6.722375e+03
8.774540e+02,6.707935e+03
8.803467e+02,6.697694e+03
8.832394e+02,6.694413e+03
8.861321e+02,6.684675e+03
8.890248e+02,6.678810e+03
8.919175e+02,6.667826e+03
8.948102e+02,6.652946e+03
8.977029e+02,6.650936e+03
9.005956e+02,6.644319e+03
9.034883e+02,6.635389e+03
9.063810e+02,6.590318e+03
9.092737e+02,6.576434e+03
9.121664e+02,6.564189e+03
9.150591e+02,6.548696e+03
9.179518e+02,6.543709e+03
9.208445e+02,6.543453e+03
9.237372e+02,6.507159e+03
9.266299e+02,6.518007e+03
9.295226e+02,6.512717e+03
9.324153e+02,6.480398e+03
9.353080e+02,6.463748e+03
9.382007e+02,6.434088e+03
9.410934e+02,6.425372e+03
9.439861e+02,6.406029e+03
9.468788e+02,6.414039e+03
9.497715e+02,6.406240e+03
9.526642e+02,6.391153e+03
9.555569e+02,6.355976e+03
9.584496e+02,6.336940e+03
9.613423e+02,6.338584e+03
9.642350e+02,6.331243e+03
9.671277e+02,6.308927e+03
9.700204e+02,6.296997e+03
9.729131e+02,6.276300e+03
9.758058e+02,6.282144e+03
9.786985e+02,6.274730e+03
9.815912e+02,6.231222e+03
9.844839e+02,6.236687e+03
9.873766e+02,6.203926e+03
9.902693e+02,6.210750e+03
9.931620e+02,6.230164e+03
9.960547e+02,6.208345e+03
9.989474e+02,6.195764e+03
1.001840e+03,6.166752e+03
1.004733e+03,6.131611e+03
1.007626e+03,6.130290e+03
1.010518e+03,6.139753e+03
1.013411e+03,6.113281e+03
1.016304e+03,6.104644e+03
1.019196e+03,6.072583e+03
1.022089e+03,6.053906e+03
1.024982e+03,6.079076e+03
1.027875e+03,6.052856e+03
1.030767e+03,6.039912e+03
1.033660e+03,6.023050e+03
1.036552e+03,6.034482e+03
1.039445e+03,6.022206e+03
1.042338e+03,6.003626e+03
1.045231e+03,5.992924e+03
1.048123e+03,5.954075e+03
1.051016e+03,5.961970e+03
1.053909e+03,5.987596e+03
1.056802e+03,5.958307e+03
1.059694e+03,5.925032e+03
1.062587e+03,5.906752e+03
1.065479e+03,5.917024e+03
1.068372e+03,5.891835e+03
1.071265e+03,5.903865e+03
1.074158e+03,5.908494e+03
1.077050e+03,5.849235e+03
1.079943e+03,5.861108e+03
1.082836e+03,5.853092e+03
1.085729e+03,5.848138e+03
1.088621e+03,5.865508e+03
1.091514e+03,5.844702e+03
1.094406e+03,5.817379e+03
1.097299e+03,5.809823e+03
1.100192e+03,5.790919e+03
1.103085e+03,5.763299e+03
1.105977e+03,5.740853e+03
1.108870e+03,5.764018e+03
1.111763e+03,5.738922e+03
1.114656e+03,5.719872e+03
1.117548e+03,5.731811e+03
1.120441e+03,5.714292e+03
1.123334e+03,5.689870e+03
1.126226e+03,5.664523e+03
1.129119e+03,5.653124e+03
1.132012e+03,5.654417e+03
1.134904e+03,5.636063e+03
1.137797e+03,5.606901e+03
1.140690e+03,5.585347e+03
1.143583e+03,5.596318e+03
1.146475e+03,5.586762e+03
1.149368e+03,5.566589e+03
1.152261e+03,5.568153e+03
1.155153e+03,5.536232e+03
1.158046e+03,5.526194e+03
1.160939e+03,5.515722e+03
1.163831e+03,5.524723e+03
1.166724e+03,5.509685e+03
1.169617e+03,5.475659e+03
1.172510e+03,5.460879e+03
1.175402e+03,5.451957e+03
1.178295e+03,5.450144e+03
1.181188e+03,5.446365e+03
1.184080e+03,5.416721e+03
1.186973e+03,5.429450e+03
1.189866e+03,5.391941e+03
1.192758e+03,5.407704e+03
1.195651e+03,5.412652e+03
1.198544e+03,5.388614e+03
1.201437e+03,5.366250e+03
1.204329e+03,5.339819e+03
1.207222e+03,5.355065e+03
1.210115e+03,5.358245e+03
1.213007e+03,5.325964e+03
1.215900e+03,5.316620e+03
1.218793e+03,5.312421e+03
1.221685e+03,5.303989e+03
1.224578e+03,5.322777e+03
1.227471e+03,5.316542e+03
1.230364e+03,5.289234e+03
1.233256e+03,5.258236e+03
1.236149e+03,5.252712e+03
1.239042e+03,5.219625e+03
1.241934e+03,5.231161e+03
1.244827e+03,5.224488e+03
1.247720e+03,5.210710e+03
1.250612e+03,5.187592e+03
1.253505e+03,5.185679e+03
1.256398e+03,5.170346e+03
1.259291e+03,5.172462e+03
1.262183e+03,5.134928e+03
1.265076e+03,5.144315e+03
1.267969e+03,5.137709e+03
1.270861e+03,5.147468e+03
1.273754e+03,5.121859e+03
1.276647e+03,5.097038e+03
1.279539e+03,5.102362e+03
1.282432e+03,5.062047e+03
1.285325e+03,5.069626e+03
1.288218e+03,5.084964e+03
1.291110e+03,5.052227e+03
1.294003e+03,5.031042e+03
1.296896e+03,5.018636e+03
1.299788e+03,5.027668e+03
1.302681e+03,5.019308e+03
1.305574e+03,5.028958e+03
1.308466e+03,5.004066e+03
1.311359e+03,4.991083e+03
1.314252e+03,4.977271e+03
1.317145e+03,4.973099e+03
1.320037e+03,4.983859e+03
1.322930e+03,4.962278e+03
1.325823e+03,4.923892e+03
1.328715e+03,4.935687e+03
1.331608e+03,4.905960e+03
1.334501e+03,4.928249e+03
1.337393e+03,4.928205e+03
1.340286e+03,4.901561e+03
1.343179e+03,4.875354e+03
1.346072e+03,4.873921e+03
1.348964e+03,4.876067e+03
1.351857e+03,4.873701e+03
1.354750e+03,4.850398e+03
1.357642e+03,4.845899e+03
1.360535e+03,4.817724e+03
1.363428e+03,4.830502e+03
1.366320e+03,4.841835e+03
1.369213e+03,4.812131e+03
1.372106e+03,4.802279e+03
1.374999e+03,4.790035e+03
1.377891e+03,4.774992e+03
1.380784e+03,4.752088e+03
1.383677e+03,4.751466e+03
1.386569e+03,4.724076e+03
1.389462e+03,4.721146e+03
1.392355e+03,4.710971e+03
1.395247e+03,4.680203e+03
1.398140e+03,4.711641e+03
1.401033e+03,4.691771e+03
1.403926e+03,4.680575e+03
1.406818e+03,4.651844e+03
1.409711e+03,4.648048e+03
1.412604e+03,4.645119e+03
1.415496e+03,4.656178e+03
1.418389e+03,4.634534e+03
1.421282e+03,4.618414e+03
1.424174e+03,4.618416e+03
1.427067e+03,4.603194e+03
1.429960e+03,4.602056e+03
1.432853e+03,4.562670e+03
1.435745e+03,4.568009e+03
1.438638e+03,4.563945e+03
1.441531e+03,4.562067e+03
1.444423e+03,4.531549e+03
1.447316e+03,4.528284e+03
1.450209e+03,4.508902e+03
1.453101e+03,4.502282e+03
1.455994e+03,4.524169e+03
1.458887e+03,4.534419e+03
1.461780e+03,4.527079e+03
1.464672e+03,4.484238e+03
1.467565e+03,4.483808e+03
1.470458e+03,4.465913e+03
1.473350e+03,4.445447e+03
1.476243e+03,4.451487e+03
1.479136e+03,4.427294e+03
1.482028e+03,4.429994e+03
1.484921e+03,4.410540e+03
1.487814e+03,4.398955e+03
1.490707e+03,4.406938e+03
1.493599e+03,4.381764e+03
1.496492e+03,4.368356e+03
1.499385e+03,4.381693e+03
1.502277e+03,4.369392e+03
1.505170e+03,4.365166e+03
1.508063e+03,4.341822e+03
1.510955e+03,4.315317e+03
1.513848e+03,4.318267e+03
1.516741e+03,4.308140e+03
1.519634e+03,4.303183e+03
1.522526e+03,4.296770e+03
1.525419e+03,4.288275e+03
1.528312e+03,4.289261e+03
1.531204e+03,4.252163e+03
1.534097e+03,4.267545e+03
1.536990e+03,4.255809e+03
1.539882e+03,4.243122e+03
1.542775e+03,4.221721e+03
1.545668e+03,4.217091e+03
1.548561e+03,4.217594e+03
1.551453e+03,4.228529e+03
1.554346e+03,4.199766e+03
1.557239e+03,4.204696e+03
1.560131e+03,4.203531e+03
1.563024e+03,4.192882e+03
1.565917e+03,4.204242e+03
1.568809e+03,4.241390e+03
1.571702e+03,4.237564e+03
1.574595e+03,4.230210e+03
1.577488e+03,4.179390e+03
1.580380e+03,4.183473e+03
1.583273e+03,4.187758e+03
1.586166e+03,4.161198e+03
1.589058e+03,4.115732e+03
1.591951e+03,4.090091e+03
1.594844e+03,4.080948e+03
1.597736e+03,4.082188e+03
1.600629e+03,4.072331e+03
1.603522e+03,4.065380e+03
1.606415e+03,4.047643e+03
1.609307e+03,4.033993e+03
1.612200e+03,4.032238e+03
1.615093e+03,4.023585e+03
1.617985e+03,4.014365e+03
1.620878e+03,4.004041e+03
1.623771e+03,3.987025e+03
1.626663e+03,3.980703e+03
1.629556e+03,3.979129e+03
1.632449e+03,3.966084e+03
1.635342e+03,3.948025e+03
1.638234e+03,3.930915e+03
1.641127e+03,3.947593e+03
1.644020e+03,3.926537e+03
1.646912e+03,3.915914e+03
1.649805e+03,3.898313e+03
1.652698e+03,3.904863e+03
1.655590e+03,3.879618e+03
1.658483e+03,3.855243e+03
1.661376e+03,3.862394e+03
1.664269e+03,3.842231e+03
1.667161e+03,3.851286e+03
1.670054e+03,3.840177e+03
1.672947e+03,3.821393e+03
1.675839e+03,3.822633e+03
1.678732e+03,3.813651e+03
1.681625e+03,3.800414e+03
1.684517e+03,3.769862e+03
1.687410e+03,3.799829e+03
1.690303e+03,3.780548e+03
1.693196e+03,3.765667e+03
1.696088e+03,3.751886e+03
1.698981e+03,3.741563e+03
1.701874e+03,3.725799e+03
1.704766e+03,3.752734e+03
1.707659e+03,3.736580e+03
1.710552e+03,3.707810e+03
1.713444e+03,3.703914e+03
1.716337e+03,3.688182e+03
1.719230e+03,3.687738e+03
1.722123e+03,3.680815e+03
1.725015e+03,3.671712e+03
1.727908e+03,3.655005e+03
1.730801e+03,3.637684e+03
1.733693e+03,3.644133e+03
1.736586e+03,3.641660e+03
1.739479e+03,3.638044e+03
1.742371e+03,3.618705e+03
1.745264e+03,3.601359e+03
1.748157e+03,3.576875e+03
1.751050e+03,3.615135e+03
1.753942e+03,3.570083e+03
1.756835e+03,3.569052e+03
1.759728e+03,3.533301e+03
1.762620e+03,3.555051e+03
1.765513e+03,3.543967e+03
1.768406e+03,3.545797e+03
1.771298e+03,3.539826e+03
1.774191e+03,3.514363e+03
1.777084e+03,3.498600e+03
1.779977e+03,3.506552e+03
1.782869e+03,3.535637e+03
1.785762e+03,3.499175e+03
1.788655e+03,3.463385e+03
1.791547e+03,3.455608e+03
1.794440e+03,3.465116e+03
1.797333e+03,3.467310e+03
1.800225e+03,3.466646e+03
1.803118e+03,3.434602e+03
1.806011e+03,3.406824e+03
1.808904e+03,3.406901e+03
1.811796e+03,3.406385e+03
1.814689e+03,3.397337e+03
1.817582e+03,3.386846e+03
1.820474e+03,3.367449e+03
1.823367e+03,3.378845e+03
1.826260e+03,3.357026e+03
1.829152e+03,3.349569e+03
1.832045e+03,3.333660e+03
1.834938e+03,3.335519e+03
1.837831e+03,3.327262e+03
1.840723e+03,3.320573e+03
1.843616e+03,3.314205e+03
1.846509e+03,3.292451e+03
1.849401e+03,3.302809e+03
1.852294e+03,3.279196e+03
1.855187e+03,3.254112e+03
1.858079e+03,3.279325e+03
1.860972e+03,3.251723e+03
1.863865e+03,3.264410e+03
1.866758e+03,3.245026e+03
1.869650e+03,3.235386e+03
1.872543e+03,3.219388e+03
1.875436e+03,3.240767e+03
1.878328e+03,3.202179e+03
1.881221e+03,3.185905e+03
1.884114e+03,3.189706e+03
1.887006e+03,3.173979e+03
1.889899e+03,3.162429e+03
1.892792e+03,3.160078e+03
1.895685e+03,3.164019e+03
1.898577e+03,3.145411e+03
1.901470e+03,3.141936e+03
1.904363e+03,3.154690e+03
1.907255e+03,3.127558e+03
1.910148e+03,3.132844e+03
1.913041e+03,3.102063e+03
1.915933e+03,3.109561e+03
1.918826e+03,3.085776e+03
1.921719e+03,3.078449e+03
1.924612e+03,3.079282e+03
1.927504e+03,3.081687e+03
1.930397e+03,3.065448e+03
1.933290e+03,3.052255e+03
1.936182e+03,3.040447e+03
1.939075e+03,3.049112e+03
1.941968e+03,3.034850e+03
1.944860e+03,3.011346e+03
1.947753e+03,3.017188e+03
1.950646e+03,2.990345e+03
1.953539e+03,2.998490e+03
1.956431e+03,2.976270e+03
1.959324e+03,2.969113e+03
1.962217e+03,2.994856e+03
1.965109e+03,2.939794e+03
1.968002e+03,2.965025e+03
1.970895e+03,2.943439e+03
1.973787e+03,2.956750e+03
1.976680e+03,2.943623e+03
1.979573e+03,2.915430e+03
1.982466e+03,2.937320e+03
1.985358e+03,2.902991e+03
1.988251e+03,2.888476e+03
1.991144e+03,2.892058e+03
1.994036e+03,2.879231e+03
1.996929e+03,2.879120e+03
1.999822e+03,2.867865e+03
2.002714e+03,2.871254e+03
2.005607e+03,2.836319e+03
2.008500e+03,2.832303e+03
2.011393e+03,2.814321e+03
2.014285e+03,2.815739e+03
2.017178e+03,2.840673e+03
2.020071e+03,2.810461e+03
2.022963e+03,2.799228e+03
2.025856e+03,2.798517e+03
2.028749e+03,2.763825e+03
2.031641e+03,2.777810e+03
2.034534e+03,2.761986e+03
2.037427e+03,2.765292e+03
2.040320e+03,2.748233e+03
2.043212e+03,2.727721e+03
2.046105e+03,2.751984e+03
2.048998e+03,2.736628e+03
2.051890e+03,2.727999e+03
2.054783e+03,2.712452e+03
2.057676e+03,2.707051e+03
2.060568e+03,2.688534e+03
2.063461e+03,2.692122e+03
2.066354e+03,2.655155e+03
2.069247e+03,2.665607e+03
2.072139e+03,2.651330e+03
2.075032e+03,2.662249e+03
2.077925e+03,2.647243e+03
2.080817e+03,2.650173e+03
2.083710e+03,2.635865e+03
2.086603e+03,2.639770e+03
2.089496e+03,2.626536e+03
2.092388e+03,2.602817e+03
2.095281e+03,2.607921e+03
2.098174e+03,2.581185e+03
2.101066e+03,2.580019e+03
2.103959e+03,2.559479e+03
2.106852e+03,2.559930e+03
2.109744e+03,2.564167e+03
2.112637e+03,2.544392e+03
2.115530e+03,2.536409e+03
2.118422e+03,2.541868e+03
2.121315e+03,2.545001e+03
2.124208e+03,2.550313e+03
2.127101e+03,2.529149e+03
2.129993e+03,2.503731e+03
2.132886e+03,2.487885e+03
2.135779e+03,2.511418e+03
2.138671e+03,2.482753e+03
2.141564e+03,2.471641e+03
2.144457e+03,2.465862e+03
2.147350e+03,2.431065e+03
2.150242e+03,2.458255e+03
2.153135e+03,2.447535e+03
2.156028e+03,2.439872e+03
2.158920e+03,2.425784e+03
2.161813e+03,2.415275e+03
2.164706e+03,2.407392e+03
2.167598e+03,2.390874e+03
2.170491e+03,2.401319e+03
2.173384e+03,2.405305e+03
2.176277e+03,2.387103e+03
2.179169e+03,2.383910e+03
2.182062e+03,2.372708e+03
2.184955e+03,2.363167e+03
2.187847e+03,2.371836e+03
2.190740e+03,2.351115e+03
2.193633e+03,2.317389e+03
2.196525e+03,2.337686e+03
2.199418e+03,2.326985e+03
2.202311e+03,2.323105e+03
2.205204e+03,2.338825e+03
2.208096e+03,2.321431e+03
2.210989e+03,2.263390e+03
2.213882e+03,2.296652e+03
2.216774e+03,2.309503e+03
2.219667e+03,2.275401e+03
2.222560e+03,2.267799e+03
2.225452e+03,2.236843e+03
2.228345e+03,2.248366e+03
2.231238e+03,2.251056e+03
2.234131e+03,2.252905e+03
2.237023e+03,2.238470e+03
2.239916e+03,2.235062e+03
2.242809e+03,2.224270e+03
2.245701e+03,2.203201e+03
2.248594e+03,2.212868e+03
2.251487e+03,2.191688e+03
2.254379e+03,2.185452e+03
2.257272e+03,2.190958e+03
2.260165e+03,2.165089e+03
2.263058e+03,2.167028e+03
2.265950e+03,2.164132e+03
2.268843e+03,2.166386e+03
2.271736e+03,2.146399e+03
2.274628e+03,2.121416e+03
2.277521e+03,2.131478e+03
2.280414e+03,2.127919e+03
2.283306e+03,2.119512e+03
2.286199e+03,2.100926e+03
2.289092e+03,2.101582e+03
2.291985e+03,2.101525e+03
2.294877e+03,2.113067e+03
2.297770e+03,2.091795e+03
2.300663e+03,2.092485e+03
2.303555e+03,2.066888e+03
2.306448e+03,2.057367e+03
2.309341e+03,2.062339e+03
2.312233e+03,2.053088e+03
2.315126e+03,2.063246e+03
2.318019e+03,2.047893e+03
2.320912e+03,2.047274e+03
2.323804e+03,2.025540e+03
2.326697e+03,2.017985e+03
2.329590e+03,2.035628e+03
2.332482e+03,2.018203e+03
2.335375e+03,1.990516e+03
2.338268e+03,1.976579e+03
2.341160e+03,1.999497e+03
2.344053e+03,2.000544e+03
2.346946e+03,1.975482e+03
2.349839e+03,1.961989e+03
2.352731e+03,1.979395e+03
2.355624e+03,1.970936e+03
2.358517e+03,1.957140e+03
2.361409e+03,1.956564e+03
2.364302e+03,1.953989e+03
2.367195e+03,1.934910e+03
2.370087e+03,1.925434e+03
2.372980e+03,1.933266e+03
2.375873e+03,1.920474e+03
2.378766e+03,1.897538e+03
2.381658e+03,1.895347e+03
2.384551e+03,1.893747e+03
2.387444e+03,1.893067e+03
2.390336e+03,1.912845e+03
2.393229e+03,1.898709e+03
2.396122e+03,1.876812e+03
2.399014e+03,1.864228e+03
2.401907e+03,1.862332e+03
2.404800e+03,1.873441e+03
2.407693e+03,1.852469e+03
2.410585e+03,1.855229e+03
2.413478e+03,1.831821e+03
2.416371e+03,1.819397e+03
2.419263e+03,1.838868e+03
2.422156e+03,1.815383e+03
2.425049e+03,1.813456e+03
2.427941e+03,1.801000e+03
2.430834e+03,1.816922e+03
2.433727e+03,1.799937e+03
2.436620e+03,1.814141e+03
2.439512e+03,1.796335e+03
2.442405e+03,1.785673e+03
2.445298e+03,1.791397e+03
2.448190e+03,1.789862e+03
2.451083e+03,1.776177e+03
2.453976e+03,1.751011e+03
2.456868e+03,1.764349e+03
2.459761e+03,1.754562e+03
2.462654e+03,1.760579e+03
2.465547e+03,1.746961e+03
2.468439e+03,1.732676e+03
2.471332e+03,1.731215e+03
2.474225e+03,1.738914e+03
2.477117e+03,1.732629e+03
2.480010e+03,1.728437e+03
2.482903e+03,1.719463e+03
2.485795e+03,1.727197e+03
2.488688e+03,1.719606e+03
2.491581e+03,1.691803e+03
2.494474e+03,1.687758e+03
2.497366e+03,1.688510e+03
2.500259e+03,1.691875e+03
2.503152e+03,1.662236e+03
2.506044e+03,1.677825e+03
2.508937e+03,1.669594e+03
2.511830e+03,1.667576e+03
2.514722e+03,1.686384e+03
2.517615e+03,1.657962e+03
2.520508e+03,1.658774e+03
2.523401e+03,1.638951e+03
2.526293e+03,1.639748e+03
2.529186e+03,1.640139e+03
2.532079e+03,1.642907e+03
2.534971e+03,1.633845e+03
2.537864e+03,1.637351e+03
2.540757e+03,1.621456e+03
2.543649e+03,1.631723e+03
2.546542e+03,1.642230e+03
2.549435e+03,1.622741e+03
2.552328e+03,1.622340e+03
2.555220e+03,1.612360e+03
2.558113e+03,1.603319e+03
2.561006e+03,1.594839e+03
2.563898e+03,1.586359e+03
2.566791e+03,1.573305e+03
2.569684e+03,1.573890e+03
2.572576e+03,1.588311e+03
2.575469e+03,1.571204e+03
2.578362e+03,1.590165e+03
2.581255e+03,1.587745e+03
2.584147e+03,1.549878e+03
2.587040e+03,1.560475e+03
2.589933e+03,1.558152e+03
2.592825e+03,1.564336e+03
2.595718e+03,1.549376e+03
2.598611e+03,1.558782e+03
2.601503e+03,1.543591e+03
2.604396e+03,1.525146e+03
2.607289e+03,1.519099e+03
2.610182e+03,1.545107e+03
2.613074e+03,1.528905e+03
2.615967e+03,1.534192e+03
2.618860e+03,1.506816e+03
2.621752e+03,1.508254e+03
2.624645e+03,1.520287e+03
2.627538e+03,1.504582e+03
2.630430e+03,1.492531e+03
2.633323e+03,1.495833e+03
2.636216e+03,1.482339e+03
2.639109e+03,1.505619e+03
2.642001e+03,1.489389e+03
2.644894e+03,1.478600e+03
2.647787e+03,1.467839e+03
2.650679e+03,1.482297e+03
2.653572e+03,1.483965e+03
2.656465e+03,1.483999e+03
2.659357e+03,1.454844e+03
2.662250e+03,1.468924e+03
2.665143e+03,1.454556e+03
2.668036e+03,1.460072e+03
2.670928e+03,1.465246e+03
2.673821e+03,1.449560e+03
2.676714e+03,1.422684e+03
2.679606e+03,1.439498e+03
2.682499e+03,1.445738e+03
2.685392e+03,1.428744e+03
2.688284e+03,1.445099e+03
2.691177e+03,1.447600e+03
2.694070e+03,1.415597e+03
2.696963e+03,1.403120e+03
2.699855e+03,1.416833e+03
2.702748e+03,1.410708e+03
2.705641e+03,1.414618e+03
2.708533e+03,1.427037e+03
2.711426e+03,1.407748e+03
2.714319e+03,1.399509e+03
2.717211e+03,1.390635e+03
2.720104e+03,1.389907e+03
2.722997e+03,1.402370e+03
2.725890e+03,1.378571e+03
2.728782e+03,1.377817e+03
2.731675e+03,1.377369e+03
2.734568e+03,1.373719e+03
2.737460e+03,1.371654e+03
2.740353e+03,1.363919e+03
2.743246e+03,1.368320e+03
2.746138e+03,1.373662e+03
2.749031e+03,1.378394e+03
2.751924e+03,1.342477e+03
2.754817e+03,1.353486e+03
2.757709e+03,1.368958e+03
2.760602e+03,1.353113e+03
2.763495e+03,1.363805e+03
2.766387e+03,1.347270e+03
2.769280e+03,1.321848e+03
2.772173e+03,1.344342e+03
2.775065e+03,1.328310e+03
2.777958e+03,1.343651e+03
2.780851e+03,1.342424e+03
2.783744e+03,1.323549e+03
2.786636e+03,1.344472e+03
2.789529e+03,1.327242e+03
2.792422e+03,1.351401e+03
2.795314e+03,1.320092e+03
2.798207e+03,1.303443e+03
2.801100e+03,1.334163e+03
2.803992e+03,1.309933e+03
2.806885e+03,1.334623e+03
2.809778e+03,1.303916e+03
2.812671e+03,1.317579e+03
2.815563e+03,1.316092e+03
2.818456e+03,1.284808e+03
2.821349e+03,1.288411e+03
2.824241e+03,1.291189e+03
2.827134e+03,1.287223e+03
2.830027e+03,1.297386e+03
2.832919e+03,1.290196e+03
2.835812e+03,1.290867e+03
2.838705e+03,1.305380e+03
2.841598e+03,1.287184e+03
2.844490e+03,1.263546e+03
2.847383e+03,1.255573e+03
2.850276e+03,1.279375e+03
2.853168e+03,1.266888e+03
2.856061e+03,1.276890e+03
2.858954e+03,1.275552e+03
2.861846e+03,1.266895e+03
2.864739e+03,1.290750e+03
2.867632e+03,1.297705e+03
2.870525e+03,1.264992e+03
2.873417e+03,1.298426e+03
2.876310e+03,1.249912e+03
2.879203e+03,1.256243e+03
2.882095e+03,1.287025e+03
2.884988e+03,1.271297e+03
2.887881e+03,1.270535e+03
2.890773e+03,1.266258e+03
2.893666e+03,1.264674e+03
2.896559e+03,1.261238e+03
2.899452e+03,1.278826e+03
2.902344e+03,1.249251e+03
2.905237e+03,1.241499e+03
2.908130e+03,1.233252e+03
2.911022e+03,1.247997e+03
2.913915e+03,1.237035e+03
2.916808e+03,1.225674e+03
2.919700e+03,1.230933e+03
2.922593e+03,1.230077e+03
2.925486e+03,1.252094e+03
2.928379e+03,1.204775e+03
2.931271e+03,1.235006e+03
2.934164e+03,1.228928e+03
2.937057e+03,1.233279e+03
2.939949e+03,1.197831e+03
2.942842e+03,1.221489e+03
2.945735e+03,1.258266e+03
2.948627e+03,1.211279e+03
2.951520e+03,1.216947e+03
2.954413e+03,1.175192e+03
2.957306e+03,1.233409e+03
2.960198e+03,1.205381e+03
2.963091e+03,1.179072e+03
2.965984e+03,1.195461e+03
2.968876e+03,1.162503e+03
2.971769e+03,1.190231e+03
2.974662e+03,1.182752e+03
2.977554e+03,1.173027e+03
2.980447e+03,1.205805e+03
2.983340e+03,1.190903e+03
2.986233e+03,1.137826e+03
2.989125e+03,1.168241e+03
2.992018e+03,1.143363e+03
2.994911e+03,1.159555e+03
2.997803e+03,1.164323e+03
3.000696e+03,1.143120e+03
3.003589e+03,1.173893e+03
3.006481e+03,1.131537e+03
3.009374e+03,1.172262e+03
3.012267e+03,1.160787e+03
3.015160e+03,1.140364e+03
3.018052e+03,1.150246e+03
3.020945e+03,1.133117e+03
3.023838e+03,1.136079e+03
3.026730e+03,1.130288e+03
3.029623e+03,1.142207e+03
3.032516e+03,1.119332e+03
3.035408e+03,1.086765e+03
3.038301e+03,1.141790e+03
3.041194e+03,1.122639e+03
3.044087e+03,1.132877e+03
3.046979e+03,1.109709e+03
3.049872e+03,1.163478e+03
3.052765e+03,1.104620e+03
3.055657e+03,1.104178e+03
3.058550e+03,1.149749e+03
3.061443e+03,1.118714e+03
3.064335e+03,1.133352e+03
3.067228e+03,1.109376e+03
3.070121e+03,1.119478e+03
3.073014e+03,1.129374e+03
3.075906e+03,1.136307e+03
3.078799e+03,1.111583e+03
3.081692e+03,1.162983e+03
3.084584e+03,1.150320e+03
3.087477e+03,1.130534e+03
3.090370e+03,1.119886e+03
3.093262e+03,1.080863e+03
3.096155e+03,1.102633e+03
3.099048e+03,1.129448e+03
3.101941e+03,1.117625e+03
3.104833e+03,1.082025e+03
3.107726e+03,1.077104e+03
3.110619e+03,1.093062e+03
3.113511e+03,1.134680e+03
3.116404e+03,1.112765e+03
3.119297e+03,1.096877e+03
3.122189e+03,1.120665e+03
3.125082e+03,1.155756e+03
3.127975e+03,1.089870e+03
3.130868e+03,1.099246e+03
3.133760e+03,1.140257e+03
3.136653e+03,1.080657e+03
3.139546e+03,1.124135e+03
3.142438e+03,1.122500e+03
3.145331e+03,1.111323e+03
3.148224e+03,1.125013e+03
3.151116e+03,1.139491e+03
3.154009e+03,1.131127e+03
3.156902e+03,1.135730e+03
3.159795e+03,1.075644e+03
3.162687e+03,1.122757e+03
3.165580e+03,1.107191e+03
3.168473e+03,1.126771e+03
3.171365e+03,1.148168e+03
3.174258e+03,1.109992e+03
3.177151e+03,1.107056e+03
3.180043e+03,1.137238e+03
3.182936e+03,1.146071e+03
3.185829e+03,1.071019e+03
3.188722e+03,1.120540e+03
3.191614e+03,1.115301e+03
3.194507e+03,1.138031e+03
3.197400e+03,1.104274e+03
3.200292e+03,1.149425e+03
3.203185e+03,0.000000e+00
3.206078e+03,0.000000e+00
3.208970e+03,0.000000e+00
3.211863e+03,0.000000e+00
3.214756e+03,0.000000e+00
3.217649e+03,0.000000e+00
3.220541e+03,0.000000e+00
3.223434e+03,0.000000e+00
3.226327e+03,0.000000e+00
3.229219e+03,0.000000e+00
3.232112e+03,0.000000e+00
3.235005e+03,0.000000e+00
3.237897e+03,0.000000e+00
3.240790e+03,0.000000e+00
3.243683e+03,0.000000e+00
3.246576e+03,0.000000e+00
3.249468e+03,0.000000e+00
3.252361e+03,0.000000e+00
3.255254e+03,0.000000e+00
3.258146e+03,0.000000e+00
3.261039e+03,0.000000e+00
3.263932e+03,0.000000e+00
3.266824e+03,0.000000e+00
3.269717e+03,0.000000e+00
3.272610e+03,0.000000e+00
3.275503e+03,0.000000e+00
3.278395e+03,0.000000e+00
3.281288e+03,0.000000e+00
3.284181e+03,0.000000e+00
3.287073e+03,0.000000e+00
3.289966e+03,0.000000e+00
3.292859e+03,0.000000e+00
3.295751e+03,0.000000e+00
3.298644e+03,0.000000e+00
3.301537e+03,0.000000e+00
3.304430e+03,0.000000e+00
3.307322e+03,0.000000e+00
3.310215e+03,0.000000e+00
3.313108e+03,0.000000e+00
3.316000e+03,0.000000e+00
3.318893e+03,0.000000e+00
3.321786e+03,0.000000e+00
3.324678e+03,0.000000e+00
3.327571e+03,0.000000e+00
3.330464e+03,0.000000e+00
3.333357e+03,0.000000e+00
3.336249e+03,0.000000e+00
3.339142e+03,0.000000e+00
3.342035e+03,0.000000e+00
3.344927e+03,0.000000e+00
3.347820e+03,0.000000e+00
3.350713e+03,0.000000e+00
3.353605e+03,0.000000e+00
3.356498e+03,0.000000e+00
3.359391e+03,0.000000e+00
3.362284e+03,0.000000e+00
3.365176e+03,0.000000e+00
3.368069e+03,0.000000e+00
3.370962e+03,0.000000e+00
3.373854e+03,0.000000e+00
3.376747e+03,0.000000e+00
3.379640e+03,0.000000e+00
3.382532e+03,0.000000e+00
3.385425e+03,0.000000e+00
3.388318e+03,0.000000e+00
3.391211e+03,0.000000e+00
3.394103e+03,0.000000e+00
3.396996e+03,0.000000e+00
3.399889e+03,0.000000e+00
3.402781e+03,0.000000e+00
3.405674e+03,0.000000e+00
3.408567e+03,0.000000e+00
3.411459e+03,0.000000e+00
3.414352e+03,0.000000e+00
3.417245e+03,0.000000e+00
3.420138e+03,0.000000e+00
3.423030e+03,0.000000e+00
3.425923e+03,0.000000e+00
3.428816e+03,0.000000e+00
3.431708e+03,0.000000e+00
3.434601e+03,0.000000e+00
3.437494e+03,0.000000e+00
3.440386e+03,0.000000e+00
3.443279e+03,0.000000e+00
3.446172e+03,0.000000e+00
3.449065e+03,0.000000e+00
3.451957e+03,0.000000e+00
3.454850e+03,0.000000e+00
3.457743e+03,0.000000e+00
3.460635e+03,0.000000e+00
3.463528e+03,0.000000e+00
3.466421e+03,0.000000e+00
3.469313e+03,0.000000e+00
3.472206e+03,0.000000e+00
3.475099e+03,0.000000e+00
3.477992e+03,0.000000e+00
3.480884e+03,0.000000e+00
3.483777e+03,0.000000e+00
3.486670e+03,0.000000e+00
3.489563e+03,0.000000e+00
3.492455e+03,0.000000e+00
3.495348e+03,0.000000e+00
3.498240e+03,0.000000e+00
3.500169e+03,0.000000e+00