File: RAMAN_data/13042023_r2/blue fibre2.CSV
9.931763e+01,0.000000e+00
1.022103e+02,0.000000e+00
1.051030e+02,0.000000e+00
1.079957e+02,0.000000e+00
1.108884e+02,0.000000e+00
1.137811e+02,0.000000e+00
1.166738e+02,0.000000e+00
1.195665e+02,0.000000e+00
1.224592e+02,0.000000e+00
1.253519e+02,0.000000e+00
1.282446e+02,0.000000e+00
1.311373e+02,0.000000e+00
1.340300e+02,0.000000e+00
1.369227e+02,0.000000e+00
1.398154e+02,0.000000e+00
1.427081e+02,0.000000e+00
1.456008e+02,0.000000e+00
1.484935e+02,0.000000e+00
1.513862e+02,0.000000e+00
1.542789e+02,0.000000e+00
1.571716e+02,0.000000e+00
1.600643e+02,0.000000e+00
1.629570e+02,0.000000e+00
1.658497e+02,0.000000e+00
1.687424e+02,0.000000e+00
1.716351e+02,0.000000e+00
1.745278e+02,0.000000e+00
1.774205e+02,0.000000e+00
1.803132e+02,0.000000e+00
1.832059e+02,0.000000e+00
1.860986e+02,0.000000e+00
1.889913e+02,0.000000e+00
1.918840e+02,0.000000e+00
1.947767e+02,0.000000e+00
1.976694e+02,0.000000e+00
2.005621e+02,3.867747e+03
2.034548e+02,3.857372e+03
2.063475e+02,3.863082e+03
2.092402e+02,3.838753e+03
2.121329e+02,3.824771e+03
2.150256e+02,3.828599e+03
2.179183e+02,3.838427e+03
2.208110e+02,3.835438e+03
2.237037e+02,3.832847e+03
2.265964e+02,3.816948e+03
2.294892e+02,3.810535e+03
2.323819e+02,3.811351e+03
2.352746e+02,3.802798e+03
2.381673e+02,3.799034e+03
2.410600e+02,3.798616e+03
2.439527e+02,3.772728e+03
2.468454e+02,3.765969e+03
2.497381e+02,3.779051e+03
2.526308e+02,3.783948e+03
2.555235e+02,3.760959e+03
2.584161e+02,3.756072e+03
2.613088e+02,3.742046e+03
2.642015e+02,3.745415e+03
2.670942e+02,3.740242e+03
2.699869e+02,3.736623e+03
2.728796e+02,3.717720e+03
2.757723e+02,3.708285e+03
2.786650e+02,3.712743e+03
2.815577e+02,3.711764e+03
2.844504e+02,3.684576e+03
2.873431e+02,3.690831e+03
2.902358e+02,3.673985e+03
2.931285e+02,3.681882e+03
2.960212e+02,3.677028e+03
2.989139e+02,3.661421e+03
3.018066e+02,3.651927e+03
3.046993e+02,3.664813e+03
3.075920e+02,3.638407e+03
3.104847e+02,3.635942e+03
3.133774e+02,3.618941e+03
3.162701e+02,3.630620e+03
3.191628e+02,3.621271e+03
3.220555e+02,3.617624e+03
3.249482e+02,3.613451e+03
3.278409e+02,3.604744e+03
3.307336e+02,3.601433e+03
3.336263e+02,3.591004e+03
3.365190e+02,3.564618e+03
3.394117e+02,3.562620e+03
3.423044e+02,3.552965e+03
3.451971e+02,3.560608e+03
3.480898e+02,3.546981e+03
3.509825e+02,3.539271e+03
3.538752e+02,3.535053e+03
3.567680e+02,3.532247e+03
3.596607e+02,3.533116e+03
3.625534e+02,3.532791e+03
3.654461e+02,3.519310e+03
3.683388e+02,3.502631e+03
3.712315e+02,3.506964e+03
3.741242e+02,3.500264e+03
3.770169e+02,3.494730e+03
3.799096e+02,3.497305e+03
3.828023e+02,3.489198e+03
3.856950e+02,3.479609e+03
3.885877e+02,3.461688e+03
3.914804e+02,3.468017e+03
3.943731e+02,3.444308e+03
3.972658e+02,3.447304e+03
4.001585e+02,3.419083e+03
4.030512e+02,3.426522e+03
4.059439e+02,3.419779e+03
4.088366e+02,3.419794e+03
4.117293e+02,3.415740e+03
4.146220e+02,3.405763e+03
4.175147e+02,3.409151e+03
4.204074e+02,3.389534e+03
4.233001e+02,3.378187e+03
4.261928e+02,3.377415e+03
4.290855e+02,3.367298e+03
4.319782e+02,3.368428e+03
4.348709e+02,3.370075e+03
4.377636e+02,3.366740e+03
4.406563e+02,3.336102e+03
4.435490e+02,3.334395e+03
4.464417e+02,3.331513e+03
4.493344e+02,3.329064e+03
4.522271e+02,3.335243e+03
4.551198e+02,3.329820e+03
4.580125e+02,3.306462e+03
4.609052e+02,3.311671e+03
4.637979e+02,3.298749e+03
4.666906e+02,3.293812e+03
4.695833e+02,3.283156e+03
4.724760e+02,3.274997e+03
4.753687e+02,3.267805e+03
4.782614e+02,3.271162e+03
4.811541e+02,3.268758e+03
4.840468e+02,3.267446e+03
4.869395e+02,3.267281e+03
4.898322e+02,3.260242e+03
4.927249e+02,3.258285e+03
4.956176e+02,3.238458e+03
4.985103e+02,3.242562e+03
5.014030e+02,3.228616e+03
5.042957e+02,3.213547e+03
5.071884e+02,3.210735e+03
5.100811e+02,3.211144e+03
5.129738e+02,3.201475e+03
5.158665e+02,3.204191e+03
5.187592e+02,3.196472e+03
5.216519e+02,3.184435e+03
5.245446e+02,3.186917e+03
5.274373e+02,3.182499e+03
5.303300e+02,3.173294e+03
5.332227e+02,3.158145e+03
5.361154e+02,3.152631e+03
5.390081e+02,3.135302e+03
5.419008e+02,3.156677e+03
5.447935e+02,3.146119e+03
5.476862e+02,3.128505e+03
5.505789e+02,3.119873e+03
5.534716e+02,3.115460e+03
5.563643e+02,3.087551e+03
5.592570e+02,3.104182e+03
5.621497e+02,3.117337e+03
5.650424e+02,3.109520e+03
5.679351e+02,3.076305e+03
5.708278e+02,3.073063e+03
5.737205e+02,3.091434e+03
5.766132e+02,3.087314e+03
5.795059e+02,3.092109e+03
5.823986e+02,3.069978e+03
5.852913e+02,3.072621e+03
5.881840e+02,3.062269e+03
5.910767e+02,3.072324e+03
5.939694e+02,3.057351e+03
5.968621e+02,3.048970e+03
5.997548e+02,3.041269e+03
6.026475e+02,3.024515e+03
6.055402e+02,3.034200e+03
6.084329e+02,3.028222e+03
6.113256e+02,3.017158e+03
6.142183e+02,3.012924e+03
6.171110e+02,2.997412e+03
6.200037e+02,3.008023e+03
6.228964e+02,3.007995e+03
6.257891e+02,3.005281e+03
6.286818e+02,2.990063e+03
6.315745e+02,2.990909e+03
6.344672e+02,2.983508e+03
6.373599e+02,2.977874e+03
6.402526e+02,2.971810e+03
6.431453e+02,2.962207e+03
6.460380e+02,2.951198e+03
6.489307e+02,2.951473e+03
6.518234e+02,2.957220e+03
6.547161e+02,2.937957e+03
6.576088e+02,2.952391e+03
6.605015e+02,2.919978e+03
6.633942e+02,2.940417e+03
6.662869e+02,2.944055e+03
6.691796e+02,2.927885e+03
6.720723e+02,2.923081e+03
6.749650e+02,2.924616e+03
6.778577e+02,2.904923e+03
6.807504e+02,2.915081e+03
6.836431e+02,2.913969e+03
6.865358e+02,2.899977e+03
6.894285e+02,2.892496e+03
6.923212e+02,2.885547e+03
6.952139e+02,2.866170e+03
6.981066e+02,2.897441e+03
7.009993e+02,2.877388e+03
7.038920e+02,2.872919e+03
7.067847e+02,2.862639e+03
7.096774e+02,2.850020e+03
7.125701e+02,2.848996e+03
7.154628e+02,2.864641e+03
7.183555e+02,2.854278e+03
7.212482e+02,2.838924e+03
7.241409e+02,2.839008e+03
7.270336e+02,2.844215e+03
7.299263e+02,2.833091e+03
7.328190e+02,2.826690e+03
7.357117e+02,2.819744e+03
7.386044e+02,2.810503e+03
7.414971e+02,2.806676e+03
7.443898e+02,2.795083e+03
7.472825e+02,2.805817e+03
7.501752e+02,2.805289e+03
7.530679e+02,2.808399e+03
7.559606e+02,2.800522e+03
7.588533e+02,2.780294e+03
7.617460e+02,2.770893e+03
7.646387e+02,2.785552e+03
7.675314e+02,2.761667e+03
7.704241e+02,2.760129e+03
7.733168e+02,2.763993e+03
7.762095e+02,2.766831e+03
7.791022e+02,2.759318e+03
7.819949e+02,2.765257e+03
7.848876e+02,2.755608e+03
7.877803e+02,2.751327e+03
7.906730e+02,2.746938e+03
7.935657e+02,2.740448e+03
7.964584e+02,2.735045e+03
7.993511e+02,2.731784e+03
8.022438e+02,2.728813e+03
8.051365e+02,2.719093e+03
8.080292e+02,2.728702e+03
8.109219e+02,2.703095e+03
8.138146e+02,2.692338e+03
8.167073e+02,2.690779e+03
8.196000e+02,2.690079e+03
8.224927e+02,2.679786e+03
8.253854e+02,2.683126e+03
8.282781e+02,2.700499e+03
8.311708e+02,2.675536e+03
8.340635e+02,2.676693e+03
8.369562e+02,2.684433e+03
8.398489e+02,2.654192e+03
8.427416e+02,2.673421e+03
8.456343e+02,2.645769e+03
8.485270e+02,2.640510e+03
8.514197e+02,2.656665e+03
8.543124e+02,2.650626e+03
8.572051e+02,2.644011e+03
8.600978e+02,2.656454e+03
8.629905e+02,2.641315e+03
8.658832e+02,2.636924e+03
8.687759e+02,2.640523e+03
8.716686e+02,2.615036e+03
8.745613e+02,2.598865e+03
8.774540e+02,2.615227e+03
8.803467e+02,2.616926e+03
8.832394e+02,2.612449e+03
8.861321e+02,2.632877e+03
8.890248e+02,2.595535e+03
8.919175e+02,2.596645e+03
8.948102e+02,2.588349e+03
8.977029e+02,2.584953e+03
9.005956e+02,2.591355e+03
9.034883e+02,2.577014e+03
9.063810e+02,2.569906e+03
9.092737e+02,2.565191e+03
9.121664e+02,2.572319e+03
9.150591e+02,2.557374e+03
9.179518e+02,2.551520e+03
9.208445e+02,2.553574e+03
9.237372e+02,2.538661e+03
9.266299e+02,2.543715e+03
9.295226e+02,2.545690e+03
9.324153e+02,2.523613e+03
9.353080e+02,2.545984e+03
9.382007e+02,2.527672e+03
9.410934e+02,2.540149e+03
9.439861e+02,2.513867e+03
9.468788e+02,2.504753e+03
9.497715e+02,2.503579e+03
9.526642e+02,2.505393e+03
9.555569e+02,2.492605e+03
9.584496e+02,2.496322e+03
9.613423e+02,2.504908e+03
9.642350e+02,2.495870e+03
9.671277e+02,2.491911e+03
9.700204e+02,2.484591e+03
9.729131e+02,2.473952e+03
9.758058e+02,2.479757e+03
9.786985e+02,2.475357e+03
9.815912e+02,2.473084e+03
9.844839e+02,2.455380e+03
9.873766e+02,2.474765e+03
9.902693e+02,2.450380e+03
9.931620e+02,2.445119e+03
9.960547e+02,2.458540e+03
9.989474e+02,2.449262e+03
1.001840e+03,2.432601e+03
1.004733e+03,2.439642e+03
1.007626e+03,2.439781e+03
1.010518e+03,2.429038e+03
1.013411e+03,2.428984e+03
1.016304e+03,2.417310e+03
1.019196e+03,2.418596e+03
1.022089e+03,2.407791e+03
1.024982e+03,2.413980e+03
1.027875e+03,2.419184e+03
1.030767e+03,2.408980e+03
1.033660e+03,2.403571e+03
1.036552e+03,2.406136e+03
1.039445e+03,2.408350e+03
1.042338e+03,2.397982e+03
1.045231e+03,2.384972e+03
1.048123e+03,2.376729e+03
1.051016e+03,2.373280e+03
1.053909e+03,2.374619e+03
1.056802e+03,2.373262e+03
1.059694e+03,2.374668e+03
1.062587e+03,2.356381e+03
1.065479e+03,2.373383e+03
1.068372e+03,2.367829e+03
1.071265e+03,2.365511e+03
1.074158e+03,2.361215e+03
1.077050e+03,2.342103e+03
1.079943e+03,2.351515e+03
1.082836e+03,2.355795e+03
1.085729e+03,2.357454e+03
1.088621e+03,2.350138e+03
1.091514e+03,2.347873e+03
1.094406e+03,2.352628e+03
1.097299e+03,2.339430e+03
1.100192e+03,2.322417e+03
1.103085e+03,2.329562e+03
1.105977e+03,2.325747e+03
1.108870e+03,2.319628e+03
1.111763e+03,2.324950e+03
1.114656e+03,2.311147e+03
1.117548e+03,2.323032e+03
1.120441e+03,2.328110e+03
1.123334e+03,2.308173e+03
1.126226e+03,2.307296e+03
1.129119e+03,2.294948e+03
1.132012e+03,2.308523e+03
1.134904e+03,2.303706e+03
1.137797e+03,2.295383e+03
1.140690e+03,2.292161e+03
1.143583e+03,2.288169e+03
1.146475e+03,2.283199e+03
1.149368e+03,2.282521e+03
1.152261e+03,2.287815e+03
1.155153e+03,2.277195e+03
1.158046e+03,2.270022e+03
1.160939e+03,2.270944e+03
1.163831e+03,2.277678e+03
1.166724e+03,2.266123e+03
1.169617e+03,2.247911e+03
1.172510e+03,2.260621e+03
1.175402e+03,2.257482e+03
1.178295e+03,2.252224e+03
1.181188e+03,2.245894e+03
1.184080e+03,2.258130e+03
1.186973e+03,2.240394e+03
1.189866e+03,2.228914e+03
1.192758e+03,2.230343e+03
1.195651e+03,2.223965e+03
1.198544e+03,2.231001e+03
1.201437e+03,2.226109e+03
1.204329e+03,2.214549e+03
1.207222e+03,2.209272e+03
1.210115e+03,2.214118e+03
1.213007e+03,2.220791e+03
1.215900e+03,2.214613e+03
1.218793e+03,2.204943e+03
1.221685e+03,2.199801e+03
1.224578e+03,2.199515e+03
1.227471e+03,2.202313e+03
1.230364e+03,2.185254e+03
1.233256e+03,2.192772e+03
1.236149e+03,2.191258e+03
1.239042e+03,2.193195e+03
1.241934e+03,2.179963e+03
1.244827e+03,2.176255e+03
1.247720e+03,2.180271e+03
1.250612e+03,2.164401e+03
1.253505e+03,2.159750e+03
1.256398e+03,2.183470e+03
1.259291e+03,2.157104e+03
1.262183e+03,2.167663e+03
1.265076e+03,2.160868e+03
1.267969e+03,2.146376e+03
1.270861e+03,2.150461e+03
1.273754e+03,2.160253e+03
1.276647e+03,2.167883e+03
1.279539e+03,2.168265e+03
1.282432e+03,2.148640e+03
1.285325e+03,2.154611e+03
1.288218e+03,2.145913e+03
1.291110e+03,2.141538e+03
1.294003e+03,2.123514e+03
1.296896e+03,2.127527e+03
1.299788e+03,2.119377e+03
1.302681e+03,2.136157e+03
1.305574e+03,2.124315e+03
1.308466e+03,2.115175e+03
1.311359e+03,2.105839e+03
1.314252e+03,2.097461e+03
1.317145e+03,2.104328e+03
1.320037e+03,2.116368e+03
1.322930e+03,2.104794e+03
1.325823e+03,2.105935e+03
1.328715e+03,2.114219e+03
1.331608e+03,2.097489e+03
1.334501e+03,2.103424e+03
1.337393e+03,2.107505e+03
1.340286e+03,2.100519e+03
1.343179e+03,2.104594e+03
1.346072e+03,2.084461e+03
1.348964e+03,2.089163e+03
1.351857e+03,2.096015e+03
1.354750e+03,2.076131e+03
1.357642e+03,2.080049e+03
1.360535e+03,2.051378e+03
1.363428e+03,2.059726e+03
1.366320e+03,2.066087e+03
1.369213e+03,2.057847e+03
1.372106e+03,2.055495e+03
1.374999e+03,2.043613e+03
1.377891e+03,2.051005e+03
1.380784e+03,2.035001e+03
1.383677e+03,2.034512e+03
1.386569e+03,2.037885e+03
1.389462e+03,2.016246e+03
1.392355e+03,2.014325e+03
1.395247e+03,2.025164e+03
1.398140e+03,2.019919e+03
1.401033e+03,2.008374e+03
1.403926e+03,2.006627e+03
1.406818e+03,2.007362e+03
1.409711e+03,2.007853e+03
1.412604e+03,2.005242e+03
1.415496e+03,1.992933e+03
1.418389e+03,2.005079e+03
1.421282e+03,1.987258e+03
1.424174e+03,1.987222e+03
1.427067e+03,1.978198e+03
1.429960e+03,1.979004e+03
1.432853e+03,1.972614e+03
1.435745e+03,1.974691e+03
1.438638e+03,1.962519e+03
1.441531e+03,1.964170e+03
1.444423e+03,1.952360e+03
1.447316e+03,1.959023e+03
1.450209e+03,1.949246e+03
1.453101e+03,1.957653e+03
1.455994e+03,1.942006e+03
1.458887e+03,1.941269e+03
1.461780e+03,1.946041e+03
1.464672e+03,1.944978e+03
1.467565e+03,1.930737e+03
1.470458e+03,1.934104e+03
1.473350e+03,1.939429e+03
1.476243e+03,1.920831e+03
1.479136e+03,1.912169e+03
1.482028e+03,1.921898e+03
1.484921e+03,1.921276e+03
1.487814e+03,1.922504e+03
1.490707e+03,1.914192e+03
1.493599e+03,1.906566e+03
1.496492e+03,1.915420e+03
1.499385e+03,1.897451e+03
1.502277e+03,1.906670e+03
1.505170e+03,1.893713e+03
1.508063e+03,1.891756e+03
1.510955e+03,1.886335e+03
1.513848e+03,1.883692e+03
1.516741e+03,1.876225e+03
1.519634e+03,1.873190e+03
1.522526e+03,1.884766e+03
1.525419e+03,1.883238e+03
1.528312e+03,1.876716e+03
1.531204e+03,1.862669e+03
1.534097e+03,1.870446e+03
1.536990e+03,1.877821e+03
1.539882e+03,1.864303e+03
1.542775e+03,1.855930e+03
1.545668e+03,1.857345e+03
1.548561e+03,1.847420e+03
1.551453e+03,1.856477e+03
1.554346e+03,1.865406e+03
1.557239e+03,1.843794e+03
1.560131e+03,1.842098e+03
1.563024e+03,1.848440e+03
1.565917e+03,1.867202e+03
1.568809e+03,1.834382e+03
1.571702e+03,1.838651e+03
1.574595e+03,1.835558e+03
1.577488e+03,1.838094e+03
1.580380e+03,1.842694e+03
1.583273e+03,1.829362e+03
1.586166e+03,1.828283e+03
1.589058e+03,1.818162e+03
1.591951e+03,1.809621e+03
1.594844e+03,1.829223e+03
1.597736e+03,1.808988e+03
1.600629e+03,1.819786e+03
1.603522e+03,1.821086e+03
1.606415e+03,1.798493e+03
1.609307e+03,1.805643e+03
1.612200e+03,1.815510e+03
1.615093e+03,1.798446e+03
1.617985e+03,1.787736e+03
1.620878e+03,1.785474e+03
1.623771e+03,1.772809e+03
1.626663e+03,1.772491e+03
1.629556e+03,1.778035e+03
1.632449e+03,1.763519e+03
1.635342e+03,1.757111e+03
1.638234e+03,1.767072e+03
1.641127e+03,1.752101e+03
1.644020e+03,1.752073e+03
1.646912e+03,1.752914e+03
1.649805e+03,1.748045e+03
1.652698e+03,1.739824e+03
1.655590e+03,1.730640e+03
1.658483e+03,1.728834e+03
1.661376e+03,1.727918e+03
1.664269e+03,1.719728e+03
1.667161e+03,1.731956e+03
1.670054e+03,1.718378e+03
1.672947e+03,1.713374e+03
1.675839e+03,1.729928e+03
1.678732e+03,1.706805e+03
1.681625e+03,1.700580e+03
1.684517e+03,1.695349e+03
1.687410e+03,1.694171e+03
1.690303e+03,1.708804e+03
1.693196e+03,1.697703e+03
1.696088e+03,1.688909e+03
1.698981e+03,1.683575e+03
1.701874e+03,1.690228e+03
1.704766e+03,1.675052e+03
1.707659e+03,1.685847e+03
1.710552e+03,1.689013e+03
1.713444e+03,1.684532e+03
1.716337e+03,1.650388e+03
1.719230e+03,1.653758e+03
1.722123e+03,1.674699e+03
1.725015e+03,1.652459e+03
1.727908e+03,1.641197e+03
1.730801e+03,1.645267e+03
1.733693e+03,1.647015e+03
1.736586e+03,1.647235e+03
1.739479e+03,1.649007e+03
1.742371e+03,1.652289e+03
1.745264e+03,1.645545e+03
1.748157e+03,1.631644e+03
1.751050e+03,1.635074e+03
1.753942e+03,1.631443e+03
1.756835e+03,1.621810e+03
1.759728e+03,1.601526e+03
1.762620e+03,1.613673e+03
1.765513e+03,1.619201e+03
1.768406e+03,1.623787e+03
1.771298e+03,1.604090e+03
1.774191e+03,1.606190e+03
1.777084e+03,1.608824e+03
1.779977e+03,1.592734e+03
1.782869e+03,1.602035e+03
1.785762e+03,1.600774e+03
1.788655e+03,1.587031e+03
1.791547e+03,1.574773e+03
1.794440e+03,1.580213e+03
1.797333e+03,1.582734e+03
1.800225e+03,1.584043e+03
1.803118e+03,1.576988e+03
1.806011e+03,1.568579e+03
1.808904e+03,1.567007e+03
1.811796e+03,1.559699e+03
1.814689e+03,1.552726e+03
1.817582e+03,1.564307e+03
1.820474e+03,1.563100e+03
1.823367e+03,1.557032e+03
1.826260e+03,1.557522e+03
1.829152e+03,1.540260e+03
1.832045e+03,1.528449e+03
1.834938e+03,1.551819e+03
1.837831e+03,1.542420e+03
1.840723e+03,1.550176e+03
1.843616e+03,1.539445e+03
1.846509e+03,1.519206e+03
1.849401e+03,1.529772e+03
1.852294e+03,1.525473e+03
1.855187e+03,1.496044e+03
1.858079e+03,1.519790e+03
1.860972e+03,1.519855e+03
1.863865e+03,1.510115e+03
1.866758e+03,1.499474e+03
1.869650e+03,1.519340e+03
1.872543e+03,1.498340e+03
1.875436e+03,1.510585e+03
1.878328e+03,1.483778e+03
1.881221e+03,1.481155e+03
1.884114e+03,1.484206e+03
1.887006e+03,1.486945e+03
1.889899e+03,1.493996e+03
1.892792e+03,1.485156e+03
1.895685e+03,1.465724e+03
1.898577e+03,1.470586e+03
1.901470e+03,1.454589e+03
1.904363e+03,1.470489e+03
1.907255e+03,1.463419e+03
1.910148e+03,1.444388e+03
1.913041e+03,1.465548e+03
1.915933e+03,1.439733e+03
1.918826e+03,1.434253e+03
1.921719e+03,1.447619e+03
1.924612e+03,1.446653e+03
1.927504e+03,1.443714e+03
1.930397e+03,1.424253e+03
1.933290e+03,1.422660e+03
1.936182e+03,1.435420e+03
1.939075e+03,1.431051e+03
1.941968e+03,1.417470e+03
1.944860e+03,1.431775e+03
1.947753e+03,1.416846e+03
1.950646e+03,1.413429e+03
1.953539e+03,1.398953e+03
1.956431e+03,1.401663e+03
1.959324e+03,1.406742e+03
1.962217e+03,1.399701e+03
1.965109e+03,1.389410e+03
1.968002e+03,1.393278e+03
1.970895e+03,1.390667e+03
1.973787e+03,1.392641e+03
1.976680e+03,1.371002e+03
1.979573e+03,1.375641e+03
1.982466e+03,1.385970e+03
1.985358e+03,1.363352e+03
1.988251e+03,1.374838e+03
1.991144e+03,1.367945e+03
1.994036e+03,1.365490e+03
1.996929e+03,1.376023e+03
1.999822e+03,1.360625e+03
2.002714e+03,1.358303e+03
2.005607e+03,1.345070e+03
2.008500e+03,1.355037e+03
2.011393e+03,1.352494e+03
2.014285e+03,1.350191e+03
2.017178e+03,1.337146e+03
2.020071e+03,1.336711e+03
2.022963e+03,1.331641e+03
2.025856e+03,1.341916e+03
2.028749e+03,1.308417e+03
2.031641e+03,1.326697e+03
2.034534e+03,1.331493e+03
2.037427e+03,1.315389e+03
2.040320e+03,1.299422e+03
2.043212e+03,1.298319e+03
2.046105e+03,1.315246e+03
2.048998e+03,1.309382e+03
2.051890e+03,1.303790e+03
2.054783e+03,1.309511e+03
2.057676e+03,1.284728e+03
2.060568e+03,1.301946e+03
2.063461e+03,1.294167e+03
2.066354e+03,1.289823e+03
2.069247e+03,1.272821e+03
2.072139e+03,1.279457e+03
2.075032e+03,1.277784e+03
2.077925e+03,1.272846e+03
2.080817e+03,1.270260e+03
2.083710e+03,1.252461e+03
2.086603e+03,1.255945e+03
2.089496e+03,1.259105e+03
2.092388e+03,1.244352e+03
2.095281e+03,1.258997e+03
2.098174e+03,1.241744e+03
2.101066e+03,1.248881e+03
2.103959e+03,1.251803e+03
2.106852e+03,1.245256e+03
2.109744e+03,1.248989e+03
2.112637e+03,1.227310e+03
2.115530e+03,1.215408e+03
2.118422e+03,1.210356e+03
2.121315e+03,1.231286e+03
2.124208e+03,1.230602e+03
2.127101e+03,1.198062e+03
2.129993e+03,1.206204e+03
2.132886e+03,1.208256e+03
2.135779e+03,1.204531e+03
2.138671e+03,1.218715e+03
2.141564e+03,1.197886e+03
2.144457e+03,1.213839e+03
2.147350e+03,1.182272e+03
2.150242e+03,1.187506e+03
2.153135e+03,1.187003e+03
2.156028e+03,1.191750e+03
2.158920e+03,1.187464e+03
2.161813e+03,1.194258e+03
2.164706e+03,1.190774e+03
2.167598e+03,1.166167e+03
2.170491e+03,1.177037e+03
2.173384e+03,1.178979e+03
2.176277e+03,1.158944e+03
2.179169e+03,1.163842e+03
2.182062e+03,1.171449e+03
2.184955e+03,1.163186e+03
2.187847e+03,1.159301e+03
2.190740e+03,1.159593e+03
2.193633e+03,1.155314e+03
2.196525e+03,1.145859e+03
2.199418e+03,1.133120e+03
2.202311e+03,1.148918e+03
2.205204e+03,1.149859e+03
2.208096e+03,1.138766e+03
2.210989e+03,1.112671e+03
2.213882e+03,1.136953e+03
2.216774e+03,1.123201e+03
2.219667e+03,1.133791e+03
2.222560e+03,1.114974e+03
2.225452e+03,1.118228e+03
2.228345e+03,1.111721e+03
2.231238e+03,1.106835e+03
2.234131e+03,1.103643e+03
2.237023e+03,1.093088e+03
2.239916e+03,1.103960e+03
2.242809e+03,1.094625e+03
2.245701e+03,1.096542e+03
2.248594e+03,1.088525e+03
2.251487e+03,1.094807e+03
2.254379e+03,1.074218e+03
2.257272e+03,1.094867e+03
2.260165e+03,1.078219e+03
2.263058e+03,1.067220e+03
2.265950e+03,1.075460e+03
2.268843e+03,1.091886e+03
2.271736e+03,1.066659e+03
2.274628e+03,1.074232e+03
2.277521e+03,1.065494e+03
2.280414e+03,1.073504e+03
2.283306e+03,1.064092e+03
2.286199e+03,1.066752e+03
2.289092e+03,1.053388e+03
2.291985e+03,1.052367e+03
2.294877e+03,1.053292e+03
2.297770e+03,1.046502e+03
2.300663e+03,1.042228e+03
2.303555e+03,1.043208e+03
2.306448e+03,1.026057e+03
2.309341e+03,1.035778e+03
2.312233e+03,1.032089e+03
2.315126e+03,1.028603e+03
2.318019e+03,1.021001e+03
2.320912e+03,1.021565e+03
2.323804e+03,1.031729e+03
2.326697e+03,1.030877e+03
2.329590e+03,1.033594e+03
2.332482e+03,1.011242e+03
2.335375e+03,1.025399e+03
2.338268e+03,1.008316e+03
2.341160e+03,1.000301e+03
2.344053e+03,1.007361e+03
2.346946e+03,1.002328e+03
2.349839e+03,1.010021e+03
2.352731e+03,9.977199e+02
2.355624e+03,1.005201e+03
2.358517e+03,9.903362e+02
2.361409e+03,1.005514e+03
2.364302e+03,9.789238e+02
2.367195e+03,9.999649e+02
2.370087e+03,9.829032e+02
2.372980e+03,9.761629e+02
2.375873e+03,9.850588e+02
2.378766e+03,9.718564e+02
2.381658e+03,9.681197e+02
2.384551e+03,9.677406e+02
2.387444e+03,9.714447e+02
2.390336e+03,9.665140e+02
2.393229e+03,9.674081e+02
2.396122e+03,9.614742e+02
2.399014e+03,9.489875e+02
2.401907e+03,9.611969e+02
2.404800e+03,9.492172e+02
2.407693e+03,9.514655e+02
2.410585e+03,9.515948e+02
2.413478e+03,9.416033e+02
2.416371e+03,9.524575e+02
2.419263e+03,9.386380e+02
2.422156e+03,9.443354e+02
2.425049e+03,9.267058e+02
2.427941e+03,9.256915e+02
2.430834e+03,9.259299e+02
2.433727e+03,9.407936e+02
2.436620e+03,9.313636e+02
2.439512e+03,9.167750e+02
2.442405e+03,9.222419e+02
2.445298e+03,9.170422e+02
2.448190e+03,9.205818e+02
2.451083e+03,9.226721e+02
2.453976e+03,9.210762e+02
2.456868e+03,9.075270e+02
2.459761e+03,9.054402e+02
2.462654e+03,9.139861e+02
2.465547e+03,9.019976e+02
2.468439e+03,9.075891e+02
2.471332e+03,9.057957e+02
2.474225e+03,9.134469e+02
2.477117e+03,8.979423e+02
2.480010e+03,8.891113e+02
2.482903e+03,9.033824e+02
2.485795e+03,9.008868e+02
2.488688e+03,8.865021e+02
2.491581e+03,8.891605e+02
2.494474e+03,8.689941e+02
2.497366e+03,8.883257e+02
2.500259e+03,8.870417e+02
2.503152e+03,8.734536e+02
2.506044e+03,8.684379e+02
2.508937e+03,8.613112e+02
2.511830e+03,8.831292e+02
2.514722e+03,8.664294e+02
2.517615e+03,8.602375e+02
2.520508e+03,8.653307e+02
2.523401e+03,8.725111e+02
2.526293e+03,8.633348e+02
2.529186e+03,8.443287e+02
2.532079e+03,8.591796e+02
2.534971e+03,8.542354e+02
2.537864e+03,8.490306e+02
2.540757e+03,8.515012e+02
2.543649e+03,8.600282e+02
2.546542e+03,8.488068e+02
2.549435e+03,8.520046e+02
2.552328e+03,8.460018e+02
2.555220e+03,8.496420e+02
2.558113e+03,8.325374e+02
2.561006e+03,8.629982e+02
2.563898e+03,8.493411e+02
2.566791e+03,8.562938e+02
2.569684e+03,8.273784e+02
2.572576e+03,8.332511e+02
2.575469e+03,8.407939e+02
2.578362e+03,8.378309e+02
2.581255e+03,8.356316e+02
2.584147e+03,8.233686e+02
2.587040e+03,8.295470e+02
2.589933e+03,8.346624e+02
2.592825e+03,8.090018e+02
2.595718e+03,8.164306e+02
2.598611e+03,8.090228e+02
2.601503e+03,7.954575e+02
2.604396e+03,8.113732e+02
2.607289e+03,8.161117e+02
2.610182e+03,8.153186e+02
2.613074e+03,7.992250e+02
2.615967e+03,8.052461e+02
2.618860e+03,8.061273e+02
2.621752e+03,7.958443e+02
2.624645e+03,8.002520e+02
2.627538e+03,7.981664e+02
2.630430e+03,7.979030e+02
2.633323e+03,7.966150e+02
2.636216e+03,8.128825e+02
2.639109e+03,8.073635e+02
2.642001e+03,7.899369e+02
2.644894e+03,7.763577e+02
2.647787e+03,7.779924e+02
2.650679e+03,7.828019e+02
2.653572e+03,7.952813e+02
2.656465e+03,7.952751e+02
2.659357e+03,7.847615e+02
2.662250e+03,7.828358e+02
2.665143e+03,7.730313e+02
2.668036e+03,7.862326e+02
2.670928e+03,8.014413e+02
2.673821e+03,7.840944e+02
2.676714e+03,7.787049e+02
2.679606e+03,7.813543e+02
2.682499e+03,7.767800e+02
2.685392e+03,7.538990e+02
2.688284e+03,7.601705e+02
2.691177e+03,7.741292e+02
2.694070e+03,7.700291e+02
2.696963e+03,7.558934e+02
2.699855e+03,7.689470e+02
2.702748e+03,7.638244e+02
2.705641e+03,7.581443e+02
2.708533e+03,7.717144e+02
2.711426e+03,7.520255e+02
2.714319e+03,7.624995e+02
2.717211e+03,7.502236e+02
2.720104e+03,7.682271e+02
2.722997e+03,7.603198e+02
2.725890e+03,7.455838e+02
2.728782e+03,7.482791e+02
2.731675e+03,7.549056e+02
2.734568e+03,7.387562e+02
2.737460e+03,7.509879e+02
2.740353e+03,7.335926e+02
2.743246e+03,7.348111e+02
2.746138e+03,7.367901e+02
2.749031e+03,7.470817e+02
2.751924e+03,7.373329e+02
2.754817e+03,7.584764e+02
2.757709e+03,7.262834e+02
2.760602e+03,7.371736e+02
2.763495e+03,7.295178e+02
2.766387e+03,7.258546e+02
2.769280e+03,7.390298e+02
2.772173e+03,7.358754e+02
2.775065e+03,7.357989e+02
2.777958e+03,7.342765e+02
2.780851e+03,7.417533e+02
2.783744e+03,7.310132e+02
2.786636e+03,7.021934e+02
2.789529e+03,7.273113e+02
2.792422e+03,7.282935e+02
2.795314e+03,7.273766e+02
2.798207e+03,7.291174e+02
2.801100e+03,7.287526e+02
2.803992e+03,7.159222e+02
2.806885e+03,7.162460e+02
2.809778e+03,7.175784e+02
2.812671e+03,7.176445e+02
2.815563e+03,6.910102e+02
2.818456e+03,7.201596e+02
2.821349e+03,7.031224e+02
2.824241e+03,7.120583e+02
2.827134e+03,7.149167e+02
2.830027e+03,7.051444e+02
2.832919e+03,7.025370e+02
2.835812e+03,6.920145e+02
2.838705e+03,7.005834e+02
2.841598e+03,7.137661e+02
2.844490e+03,7.159034e+02
2.847383e+03,6.853791e+02
2.850276e+03,7.344486e+02
2.853168e+03,6.977718e+02
2.856061e+03,6.997704e+02
2.858954e+03,6.987455e+02
2.861846e+03,6.971897e+02
2.864739e+03,7.147117e+02
2.867632e+03,7.122714e+02
2.870525e+03,7.001232e+02
2.873417e+03,6.993049e+02
2.876310e+03,7.049041e+02
2.879203e+03,7.027747e+02
2.882095e+03,7.123894e+02
2.884988e+03,7.040948e+02
2.887881e+03,7.129005e+02
2.890773e+03,7.006788e+02
2.893666e+03,6.831752e+02
2.896559e+03,7.045127e+02
2.899452e+03,7.071705e+02
2.902344e+03,7.012437e+02
2.905237e+03,6.933936e+02
2.908130e+03,6.917120e+02
2.911022e+03,7.063788e+02
2.913915e+03,6.841217e+02
2.916808e+03,6.796855e+02
2.919700e+03,6.841354e+02
2.922593e+03,6.814101e+02
2.925486e+03,6.834901e+02
2.928379e+03,6.626685e+02
2.931271e+03,6.647001e+02
2.934164e+03,6.628718e+02
2.937057e+03,6.947240e+02
2.939949e+03,6.718237e+02
2.942842e+03,6.566581e+02
2.945735e+03,6.756193e+02
2.948627e+03,6.670677e+02
2.951520e+03,6.672858e+02
2.954413e+03,6.770778e+02
2.957306e+03,6.836563e+02
2.960198e+03,6.975615e+02
2.963091e+03,6.557979e+02
2.965984e+03,6.591496e+02
2.968876e+03,6.704992e+02
2.971769e+03,6.575715e+02
2.974662e+03,6.629699e+02
2.977554e+03,6.598026e+02
2.980447e+03,6.485322e+02
2.983340e+03,6.661204e+02
2.986233e+03,6.496348e+02
2.989125e+03,6.265479e+02
2.992018e+03,6.583412e+02
2.994911e+03,6.418510e+02
2.997803e+03,6.348511e+02
3.000696e+03,6.343041e+02
3.003589e+03,6.467904e+02
3.006481e+03,6.519850e+02
3.009374e+03,6.401635e+02
3.012267e+03,6.561222e+02
3.015160e+03,6.362660e+02
3.018052e+03,6.461228e+02
3.020945e+03,6.420789e+02
3.023838e+03,6.372902e+02
3.026730e+03,6.526349e+02
3.029623e+03,6.183896e+02
3.032516e+03,6.185322e+02
3.035408e+03,6.237722e+02
3.038301e+03,6.436248e+02
3.041194e+03,6.317219e+02
3.044087e+03,6.426956e+02
3.046979e+03,6.307472e+02
3.049872e+03,6.331703e+02
3.052765e+03,6.420215e+02
3.055657e+03,6.294642e+02
3.058550e+03,6.499358e+02
3.061443e+03,6.441114e+02
3.064335e+03,6.186644e+02
3.067228e+03,6.497648e+02
3.070121e+03,6.317038e+02
3.073014e+03,6.389554e+02
3.075906e+03,6.435916e+02
3.078799e+03,6.177099e+02
3.081692e+03,6.571719e+02
3.084584e+03,6.386393e+02
3.087477e+03,6.136819e+02
3.090370e+03,6.261957e+02
3.093262e+03,6.150427e+02
3.096155e+03,6.037328e+02
3.099048e+03,6.117083e+02
3.101941e+03,6.482066e+02
3.104833e+03,6.377119e+02
3.107726e+03,6.453741e+02
3.110619e+03,6.385592e+02
3.113511e+03,6.153993e+02
3.116404e+03,6.498298e+02
3.119297e+03,6.204921e+02
3.122189e+03,6.412531e+02
3.125082e+03,6.422838e+02
3.127975e+03,6.333104e+02
3.130868e+03,6.302250e+02
3.133760e+03,6.253307e+02
3.136653e+03,5.802398e+02
3.139546e+03,6.385616e+02
3.142438e+03,6.215602e+02
3.145331e+03,6.019256e+02
3.148224e+03,6.047102e+02
3.151116e+03,6.117654e+02
3.154009e+03,6.431716e+02
3.156902e+03,6.076564e+02
3.159795e+03,5.907479e+02
3.162687e+03,6.206312e+02
3.165580e+03,6.228021e+02
3.168473e+03,6.544222e+02
3.171365e+03,5.823080e+02
3.174258e+03,6.547910e+02
3.177151e+03,6.383156e+02
3.180043e+03,6.182733e+02
3.182936e+03,6.275003e+02
3.185829e+03,6.715418e+02
3.188722e+03,5.947490e+02
3.191614e+03,6.643937e+02
3.194507e+03,6.692873e+02
3.197400e+03,6.264396e+02
3.200292e+03,6.535218e+02
3.203185e+03,0.000000e+00
3.206078e+03,0.000000e+00
3.208970e+03,0.000000e+00
3.211863e+03,0.000000e+00
3.214756e+03,0.000000e+00
3.217649e+03,0.000000e+00
3.220541e+03,0.000000e+00
3.223434e+03,0.000000e+00
3.226327e+03,0.000000e+00
3.229219e+03,0.000000e+00
3.232112e+03,0.000000e+00
3.235005e+03,0.000000e+00
3.237897e+03,0.000000e+00
3.240790e+03,0.000000e+00
3.243683e+03,0.000000e+00
3.246576e+03,0.000000e+00
3.249468e+03,0.000000e+00
3.252361e+03,0.000000e+00
3.255254e+03,0.000000e+00
3.258146e+03,0.000000e+00
3.261039e+03,0.000000e+00
3.263932e+03,0.000000e+00
3.266824e+03,0.000000e+00
3.269717e+03,0.000000e+00
3.272610e+03,0.000000e+00
3.275503e+03,0.000000e+00
3.278395e+03,0.000000e+00
3.281288e+03,0.000000e+00
3.284181e+03,0.000000e+00
3.287073e+03,0.000000e+00
3.289966e+03,0.000000e+00
3.292859e+03,0.000000e+00
3.295751e+03,0.000000e+00
3.298644e+03,0.000000e+00
3.301537e+03,0.000000e+00
3.304430e+03,0.000000e+00
3.307322e+03,0.000000e+00
3.310215e+03,0.000000e+00
3.313108e+03,0.000000e+00
3.316000e+03,0.000000e+00
3.318893e+03,0.000000e+00
3.321786e+03,0.000000e+00
3.324678e+03,0.000000e+00
3.327571e+03,0.000000e+00
3.330464e+03,0.000000e+00
3.333357e+03,0.000000e+00
3.336249e+03,0.000000e+00
3.339142e+03,0.000000e+00
3.342035e+03,0.000000e+00
3.344927e+03,0.000000e+00
3.347820e+03,0.000000e+00
3.350713e+03,0.000000e+00
3.353605e+03,0.000000e+00
3.356498e+03,0.000000e+00
3.359391e+03,0.000000e+00
3.362284e+03,0.000000e+00
3.365176e+03,0.000000e+00
3.368069e+03,0.000000e+00
3.370962e+03,0.000000e+00
3.373854e+03,0.000000e+00
3.376747e+03,0.000000e+00
3.379640e+03,0.000000e+00
3.382532e+03,0.000000e+00
3.385425e+03,0.000000e+00
3.388318e+03,0.000000e+00
3.391211e+03,0.000000e+00
3.394103e+03,0.000000e+00
3.396996e+03,0.000000e+00
3.399889e+03,0.000000e+00
3.402781e+03,0.000000e+00
3.405674e+03,0.000000e+00
3.408567e+03,0.000000e+00
3.411459e+03,0.000000e+00
3.414352e+03,0.000000e+00
3.417245e+03,0.000000e+00
3.420138e+03,0.000000e+00
3.423030e+03,0.000000e+00
3.425923e+03,0.000000e+00
3.428816e+03,0.000000e+00
3.431708e+03,0.000000e+00
3.434601e+03,0.000000e+00
3.437494e+03,0.000000e+00
3.440386e+03,0.000000e+00
3.443279e+03,0.000000e+00
3.446172e+03,0.000000e+00
3.449065e+03,0.000000e+00
3.451957e+03,0.000000e+00
3.454850e+03,0.000000e+00
3.457743e+03,0.000000e+00
3.460635e+03,0.000000e+00
3.463528e+03,0.000000e+00
3.466421e+03,0.000000e+00
3.469313e+03,0.000000e+00
3.472206e+03,0.000000e+00
3.475099e+03,0.000000e+00
3.477992e+03,0.000000e+00
3.480884e+03,0.000000e+00
3.483777e+03,0.000000e+00
3.486670e+03,0.000000e+00
3.489563e+03,0.000000e+00
3.492455e+03,0.000000e+00
3.495348e+03,0.000000e+00
3.498240e+03,0.000000e+00
3.500169e+03,0.000000e+00