File: RAMAN_data/13042023_r2/blue fibre12.CSV
9.931763e+01,0.000000e+00
1.022103e+02,0.000000e+00
1.051030e+02,0.000000e+00
1.079957e+02,0.000000e+00
1.108884e+02,0.000000e+00
1.137811e+02,0.000000e+00
1.166738e+02,0.000000e+00
1.195665e+02,0.000000e+00
1.224592e+02,0.000000e+00
1.253519e+02,0.000000e+00
1.282446e+02,0.000000e+00
1.311373e+02,0.000000e+00
1.340300e+02,0.000000e+00
1.369227e+02,0.000000e+00
1.398154e+02,0.000000e+00
1.427081e+02,0.000000e+00
1.456008e+02,0.000000e+00
1.484935e+02,0.000000e+00
1.513862e+02,0.000000e+00
1.542789e+02,0.000000e+00
1.571716e+02,0.000000e+00
1.600643e+02,0.000000e+00
1.629570e+02,0.000000e+00
1.658497e+02,0.000000e+00
1.687424e+02,0.000000e+00
1.716351e+02,0.000000e+00
1.745278e+02,0.000000e+00
1.774205e+02,0.000000e+00
1.803132e+02,0.000000e+00
1.832059e+02,0.000000e+00
1.860986e+02,0.000000e+00
1.889913e+02,0.000000e+00
1.918840e+02,0.000000e+00
1.947767e+02,0.000000e+00
1.976694e+02,0.000000e+00
2.005621e+02,1.047899e+04
2.034548e+02,1.051899e+04
2.063475e+02,1.054891e+04
2.092402e+02,1.054938e+04
2.121329e+02,1.055037e+04
2.150256e+02,1.057905e+04
2.179183e+02,1.060927e+04
2.208110e+02,1.066068e+04
2.237037e+02,1.067604e+04
2.265964e+02,1.068651e+04
2.294892e+02,1.071479e+04
2.323819e+02,1.076347e+04
2.352746e+02,1.080069e+04
2.381673e+02,1.083713e+04
2.410600e+02,1.083247e+04
2.439527e+02,1.084990e+04
2.468454e+02,1.088676e+04
2.497381e+02,1.092278e+04
2.526308e+02,1.095922e+04
2.555235e+02,1.097428e+04
2.584161e+02,1.097618e+04
2.613088e+02,1.101875e+04
2.642015e+02,1.107090e+04
2.670942e+02,1.109680e+04
2.699869e+02,1.113129e+04
2.728796e+02,1.114345e+04
2.757723e+02,1.118588e+04
2.786650e+02,1.122837e+04
2.815577e+02,1.125757e+04
2.844504e+02,1.128443e+04
2.873431e+02,1.128894e+04
2.902358e+02,1.131662e+04
2.931285e+02,1.134527e+04
2.960212e+02,1.138987e+04
2.989139e+02,1.141438e+04
3.018066e+02,1.143403e+04
3.046993e+02,1.146588e+04
3.075920e+02,1.148845e+04
3.104847e+02,1.152735e+04
3.133774e+02,1.157835e+04
3.162701e+02,1.159458e+04
3.191628e+02,1.160775e+04
3.220555e+02,1.163998e+04
3.249482e+02,1.168473e+04
3.278409e+02,1.172350e+04
3.307336e+02,1.175910e+04
3.336263e+02,1.178434e+04
3.365190e+02,1.179563e+04
3.394117e+02,1.184454e+04
3.423044e+02,1.188976e+04
3.451971e+02,1.195046e+04
3.480898e+02,1.197444e+04
3.509825e+02,1.198815e+04
3.538752e+02,1.203829e+04
3.567680e+02,1.208699e+04
3.596607e+02,1.212620e+04
3.625534e+02,1.216527e+04
3.654461e+02,1.215099e+04
3.683388e+02,1.217619e+04
3.712315e+02,1.223918e+04
3.741242e+02,1.227458e+04
3.770169e+02,1.231110e+04
3.799096e+02,1.235298e+04
3.828023e+02,1.236815e+04
3.856950e+02,1.240989e+04
3.885877e+02,1.246675e+04
3.914804e+02,1.251878e+04
3.943731e+02,1.253366e+04
3.972658e+02,1.253442e+04
4.001585e+02,1.254000e+04
4.030512e+02,1.258927e+04
4.059439e+02,1.259998e+04
4.088366e+02,1.261853e+04
4.117293e+02,1.261078e+04
4.146220e+02,1.263715e+04
4.175147e+02,1.267057e+04
4.204074e+02,1.267508e+04
4.233001e+02,1.270100e+04
4.261928e+02,1.269691e+04
4.290855e+02,1.271617e+04
4.319782e+02,1.272957e+04
4.348709e+02,1.275990e+04
4.377636e+02,1.276032e+04
4.406563e+02,1.276183e+04
4.435490e+02,1.274942e+04
4.464417e+02,1.274586e+04
4.493344e+02,1.278390e+04
4.522271e+02,1.277201e+04
4.551198e+02,1.277152e+04
4.580125e+02,1.276647e+04
4.609052e+02,1.273226e+04
4.637979e+02,1.274193e+04
4.666906e+02,1.275141e+04
4.695833e+02,1.275715e+04
4.724760e+02,1.274547e+04
4.753687e+02,1.276556e+04
4.782614e+02,1.271794e+04
4.811541e+02,1.274436e+04
4.840468e+02,1.275079e+04
4.869395e+02,1.273474e+04
4.898322e+02,1.273524e+04
4.927249e+02,1.273043e+04
4.956176e+02,1.274705e+04
4.985103e+02,1.277404e+04
5.014030e+02,1.277616e+04
5.042957e+02,1.276301e+04
5.071884e+02,1.272385e+04
5.100811e+02,1.272459e+04
5.129738e+02,1.270171e+04
5.158665e+02,1.270803e+04
5.187592e+02,1.268960e+04
5.216519e+02,1.264609e+04
5.245446e+02,1.262523e+04
5.274373e+02,1.262169e+04
5.303300e+02,1.260057e+04
5.332227e+02,1.255149e+04
5.361154e+02,1.253425e+04
5.390081e+02,1.254983e+04
5.419008e+02,1.248654e+04
5.447935e+02,1.247252e+04
5.476862e+02,1.250073e+04
5.505789e+02,1.244959e+04
5.534716e+02,1.239550e+04
5.563643e+02,1.239341e+04
5.592570e+02,1.240717e+04
5.621497e+02,1.246578e+04
5.650424e+02,1.235481e+04
5.679351e+02,1.233537e+04
5.708278e+02,1.228437e+04
5.737205e+02,1.232784e+04
5.766132e+02,1.231198e+04
5.795059e+02,1.228156e+04
5.823986e+02,1.225090e+04
5.852913e+02,1.220323e+04
5.881840e+02,1.222570e+04
5.910767e+02,1.222567e+04
5.939694e+02,1.220223e+04
5.968621e+02,1.218411e+04
5.997548e+02,1.216806e+04
6.026475e+02,1.216470e+04
6.055402e+02,1.214733e+04
6.084329e+02,1.215493e+04
6.113256e+02,1.209000e+04
6.142183e+02,1.206117e+04
6.171110e+02,1.205334e+04
6.200037e+02,1.205285e+04
6.228964e+02,1.202535e+04
6.257891e+02,1.204044e+04
6.286818e+02,1.200481e+04
6.315745e+02,1.198095e+04
6.344672e+02,1.197951e+04
6.373599e+02,1.194302e+04
6.402526e+02,1.195432e+04
6.431453e+02,1.188767e+04
6.460380e+02,1.186722e+04
6.489307e+02,1.186558e+04
6.518234e+02,1.186749e+04
6.547161e+02,1.181464e+04
6.576088e+02,1.179374e+04
6.605015e+02,1.178863e+04
6.633942e+02,1.171537e+04
6.662869e+02,1.170725e+04
6.691796e+02,1.177419e+04
6.720723e+02,1.179304e+04
6.749650e+02,1.170758e+04
6.778577e+02,1.167722e+04
6.807504e+02,1.168299e+04
6.836431e+02,1.162960e+04
6.865358e+02,1.160429e+04
6.894285e+02,1.159912e+04
6.923212e+02,1.158747e+04
6.952139e+02,1.159421e+04
6.981066e+02,1.159401e+04
7.009993e+02,1.157050e+04
7.038920e+02,1.152353e+04
7.067847e+02,1.151610e+04
7.096774e+02,1.150831e+04
7.125701e+02,1.150817e+04
7.154628e+02,1.150514e+04
7.183555e+02,1.145138e+04
7.212482e+02,1.142461e+04
7.241409e+02,1.141017e+04
7.270336e+02,1.141267e+04
7.299263e+02,1.139143e+04
7.328190e+02,1.134136e+04
7.357117e+02,1.133245e+04
7.386044e+02,1.133884e+04
7.414971e+02,1.133886e+04
7.443898e+02,1.132534e+04
7.472825e+02,1.133564e+04
7.501752e+02,1.127432e+04
7.530679e+02,1.124416e+04
7.559606e+02,1.123164e+04
7.588533e+02,1.121712e+04
7.617460e+02,1.121776e+04
7.646387e+02,1.117368e+04
7.675314e+02,1.119787e+04
7.704241e+02,1.117519e+04
7.733168e+02,1.114874e+04
7.762095e+02,1.115883e+04
7.791022e+02,1.117074e+04
7.819949e+02,1.108589e+04
7.848876e+02,1.107715e+04
7.877803e+02,1.107212e+04
7.906730e+02,1.106350e+04
7.935657e+02,1.104907e+04
7.964584e+02,1.103591e+04
7.993511e+02,1.100925e+04
8.022438e+02,1.098491e+04
8.051365e+02,1.098020e+04
8.080292e+02,1.098345e+04
8.109219e+02,1.096842e+04
8.138146e+02,1.094360e+04
8.167073e+02,1.091713e+04
8.196000e+02,1.094156e+04
8.224927e+02,1.088569e+04
8.253854e+02,1.090062e+04
8.282781e+02,1.087495e+04
8.311708e+02,1.084118e+04
8.340635e+02,1.086826e+04
8.369562e+02,1.084420e+04
8.398489e+02,1.084660e+04
8.427416e+02,1.084844e+04
8.456343e+02,1.079890e+04
8.485270e+02,1.077231e+04
8.514197e+02,1.074804e+04
8.543124e+02,1.075414e+04
8.572051e+02,1.077595e+04
8.600978e+02,1.071087e+04
8.629905e+02,1.071696e+04
8.658832e+02,1.067876e+04
8.687759e+02,1.066744e+04
8.716686e+02,1.068883e+04
8.745613e+02,1.064412e+04
8.774540e+02,1.063624e+04
8.803467e+02,1.062730e+04
8.832394e+02,1.063527e+04
8.861321e+02,1.063315e+04
8.890248e+02,1.060207e+04
8.919175e+02,1.058044e+04
8.948102e+02,1.053670e+04
8.977029e+02,1.055223e+04
9.005956e+02,1.050550e+04
9.034883e+02,1.052122e+04
9.063810e+02,1.048331e+04
9.092737e+02,1.047139e+04
9.121664e+02,1.043906e+04
9.150591e+02,1.047515e+04
9.179518e+02,1.043678e+04
9.208445e+02,1.041532e+04
9.237372e+02,1.039780e+04
9.266299e+02,1.039919e+04
9.295226e+02,1.040409e+04
9.324153e+02,1.037865e+04
9.353080e+02,1.037402e+04
9.382007e+02,1.033686e+04
9.410934e+02,1.034858e+04
9.439861e+02,1.031851e+04
9.468788e+02,1.030451e+04
9.497715e+02,1.030682e+04
9.526642e+02,1.028013e+04
9.555569e+02,1.023977e+04
9.584496e+02,1.022826e+04
9.613423e+02,1.026153e+04
9.642350e+02,1.021912e+04
9.671277e+02,1.018594e+04
9.700204e+02,1.020073e+04
9.729131e+02,1.012667e+04
9.758058e+02,1.015994e+04
9.786985e+02,1.013784e+04
9.815912e+02,1.011190e+04
9.844839e+02,1.009710e+04
9.873766e+02,1.006406e+04
9.902693e+02,1.005247e+04
9.931620e+02,1.007898e+04
9.960547e+02,1.004821e+04
9.989474e+02,1.004422e+04
1.001840e+03,9.986373e+03
1.004733e+03,1.001206e+04
1.007626e+03,1.003358e+04
1.010518e+03,1.001022e+04
1.013411e+03,9.963330e+03
1.016304e+03,9.935542e+03
1.019196e+03,9.910061e+03
1.022089e+03,9.940656e+03
1.024982e+03,9.934479e+03
1.027875e+03,9.916698e+03
1.030767e+03,9.907390e+03
1.033660e+03,9.901141e+03
1.036552e+03,9.880291e+03
1.039445e+03,9.885019e+03
1.042338e+03,9.881928e+03
1.045231e+03,9.873752e+03
1.048123e+03,9.838365e+03
1.051016e+03,9.829556e+03
1.053909e+03,9.846411e+03
1.056802e+03,9.807137e+03
1.059694e+03,9.791163e+03
1.062587e+03,9.810090e+03
1.065479e+03,9.798488e+03
1.068372e+03,9.766525e+03
1.071265e+03,9.794501e+03
1.074158e+03,9.735934e+03
1.077050e+03,9.753931e+03
1.079943e+03,9.741835e+03
1.082836e+03,9.744966e+03
1.085729e+03,9.736621e+03
1.088621e+03,9.751218e+03
1.091514e+03,9.726434e+03
1.094406e+03,9.687043e+03
1.097299e+03,9.668247e+03
1.100192e+03,9.655526e+03
1.103085e+03,9.683564e+03
1.105977e+03,9.650237e+03
1.108870e+03,9.628313e+03
1.111763e+03,9.630188e+03
1.114656e+03,9.655068e+03
1.117548e+03,9.656004e+03
1.120441e+03,9.626652e+03
1.123334e+03,9.659064e+03
1.126226e+03,9.605386e+03
1.129119e+03,9.614047e+03
1.132012e+03,9.618903e+03
1.134904e+03,9.602910e+03
1.137797e+03,9.563674e+03
1.140690e+03,9.562950e+03
1.143583e+03,9.565549e+03
1.146475e+03,9.570107e+03
1.149368e+03,9.532953e+03
1.152261e+03,9.551386e+03
1.155153e+03,9.531045e+03
1.158046e+03,9.491686e+03
1.160939e+03,9.497669e+03
1.163831e+03,9.476802e+03
1.166724e+03,9.487885e+03
1.169617e+03,9.456911e+03
1.172510e+03,9.406881e+03
1.175402e+03,9.411799e+03
1.178295e+03,9.444014e+03
1.181188e+03,9.437340e+03
1.184080e+03,9.417732e+03
1.186973e+03,9.395676e+03
1.189866e+03,9.398681e+03
1.192758e+03,9.399969e+03
1.195651e+03,9.407438e+03
1.198544e+03,9.403252e+03
1.201437e+03,9.346115e+03
1.204329e+03,9.345456e+03
1.207222e+03,9.347172e+03
1.210115e+03,9.342395e+03
1.213007e+03,9.330395e+03
1.215900e+03,9.341329e+03
1.218793e+03,9.324729e+03
1.221685e+03,9.304468e+03
1.224578e+03,9.321078e+03
1.227471e+03,9.311877e+03
1.230364e+03,9.284918e+03
1.233256e+03,9.265845e+03
1.236149e+03,9.218249e+03
1.239042e+03,9.288673e+03
1.241934e+03,9.264294e+03
1.244827e+03,9.255638e+03
1.247720e+03,9.229684e+03
1.250612e+03,9.196369e+03
1.253505e+03,9.216100e+03
1.256398e+03,9.220224e+03
1.259291e+03,9.200016e+03
1.262183e+03,9.202855e+03
1.265076e+03,9.185392e+03
1.267969e+03,9.177559e+03
1.270861e+03,9.169473e+03
1.273754e+03,9.186535e+03
1.276647e+03,9.188684e+03
1.279539e+03,9.172189e+03
1.282432e+03,9.147912e+03
1.285325e+03,9.143441e+03
1.288218e+03,9.130853e+03
1.291110e+03,9.124179e+03
1.294003e+03,9.101606e+03
1.296896e+03,9.070557e+03
1.299788e+03,9.102799e+03
1.302681e+03,9.079372e+03
1.305574e+03,9.068823e+03
1.308466e+03,9.058161e+03
1.311359e+03,9.044217e+03
1.314252e+03,9.035841e+03
1.317145e+03,9.006422e+03
1.320037e+03,9.029101e+03
1.322930e+03,9.026589e+03
1.325823e+03,8.974019e+03
1.328715e+03,8.990514e+03
1.331608e+03,8.973704e+03
1.334501e+03,9.014768e+03
1.337393e+03,9.042938e+03
1.340286e+03,9.004474e+03
1.343179e+03,8.960915e+03
1.346072e+03,8.946061e+03
1.348964e+03,8.942694e+03
1.351857e+03,8.939370e+03
1.354750e+03,8.929955e+03
1.357642e+03,8.904931e+03
1.360535e+03,8.887694e+03
1.363428e+03,8.899463e+03
1.366320e+03,8.869831e+03
1.369213e+03,8.865345e+03
1.372106e+03,8.835436e+03
1.374999e+03,8.836774e+03
1.377891e+03,8.805630e+03
1.380784e+03,8.798313e+03
1.383677e+03,8.813364e+03
1.386569e+03,8.783782e+03
1.389462e+03,8.747092e+03
1.392355e+03,8.738639e+03
1.395247e+03,8.730149e+03
1.398140e+03,8.763027e+03
1.401033e+03,8.735309e+03
1.403926e+03,8.705449e+03
1.406818e+03,8.680109e+03
1.409711e+03,8.691861e+03
1.412604e+03,8.700154e+03
1.415496e+03,8.657950e+03
1.418389e+03,8.679879e+03
1.421282e+03,8.627997e+03
1.424174e+03,8.630907e+03
1.427067e+03,8.631013e+03
1.429960e+03,8.629624e+03
1.432853e+03,8.613040e+03
1.435745e+03,8.573320e+03
1.438638e+03,8.542558e+03
1.441531e+03,8.524038e+03
1.444423e+03,8.570229e+03
1.447316e+03,8.521128e+03
1.450209e+03,8.520219e+03
1.453101e+03,8.512238e+03
1.455994e+03,8.524004e+03
1.458887e+03,8.500585e+03
1.461780e+03,8.524384e+03
1.464672e+03,8.440042e+03
1.467565e+03,8.457605e+03
1.470458e+03,8.430552e+03
1.473350e+03,8.436381e+03
1.476243e+03,8.433860e+03
1.479136e+03,8.413537e+03
1.482028e+03,8.396098e+03
1.484921e+03,8.415292e+03
1.487814e+03,8.392511e+03
1.490707e+03,8.351252e+03
1.493599e+03,8.348526e+03
1.496492e+03,8.369103e+03
1.499385e+03,8.316961e+03
1.502277e+03,8.326869e+03
1.505170e+03,8.346090e+03
1.508063e+03,8.325143e+03
1.510955e+03,8.255031e+03
1.513848e+03,8.287057e+03
1.516741e+03,8.260380e+03
1.519634e+03,8.240957e+03
1.522526e+03,8.268545e+03
1.525419e+03,8.254135e+03
1.528312e+03,8.205808e+03
1.531204e+03,8.209798e+03
1.534097e+03,8.173681e+03
1.536990e+03,8.200455e+03
1.539882e+03,8.176378e+03
1.542775e+03,8.164411e+03
1.545668e+03,8.163607e+03
1.548561e+03,8.160336e+03
1.551453e+03,8.186681e+03
1.554346e+03,8.154667e+03
1.557239e+03,8.112760e+03
1.560131e+03,8.090739e+03
1.563024e+03,8.142922e+03
1.565917e+03,8.122032e+03
1.568809e+03,8.129494e+03
1.571702e+03,8.114864e+03
1.574595e+03,8.099674e+03
1.577488e+03,8.088125e+03
1.580380e+03,8.083661e+03
1.583273e+03,8.090671e+03
1.586166e+03,8.065358e+03
1.589058e+03,8.070639e+03
1.591951e+03,8.050408e+03
1.594844e+03,8.013290e+03
1.597736e+03,8.006819e+03
1.600629e+03,7.974680e+03
1.603522e+03,8.001748e+03
1.606415e+03,7.947958e+03
1.609307e+03,7.948412e+03
1.612200e+03,7.946073e+03
1.615093e+03,7.943879e+03
1.617985e+03,7.914673e+03
1.620878e+03,7.848321e+03
1.623771e+03,7.848215e+03
1.626663e+03,7.833548e+03
1.629556e+03,7.826399e+03
1.632449e+03,7.815716e+03
1.635342e+03,7.783627e+03
1.638234e+03,7.772572e+03
1.641127e+03,7.754430e+03
1.644020e+03,7.749388e+03
1.646912e+03,7.723830e+03
1.649805e+03,7.728690e+03
1.652698e+03,7.671444e+03
1.655590e+03,7.693056e+03
1.658483e+03,7.699470e+03
1.661376e+03,7.647241e+03
1.664269e+03,7.648031e+03
1.667161e+03,7.609213e+03
1.670054e+03,7.578082e+03
1.672947e+03,7.611234e+03
1.675839e+03,7.603870e+03
1.678732e+03,7.584766e+03
1.681625e+03,7.581444e+03
1.684517e+03,7.527872e+03
1.687410e+03,7.534940e+03
1.690303e+03,7.556885e+03
1.693196e+03,7.509436e+03
1.696088e+03,7.510069e+03
1.698981e+03,7.482890e+03
1.701874e+03,7.467457e+03
1.704766e+03,7.462222e+03
1.707659e+03,7.441445e+03
1.710552e+03,7.423414e+03
1.713444e+03,7.375586e+03
1.716337e+03,7.383867e+03
1.719230e+03,7.382795e+03
1.722123e+03,7.382099e+03
1.725015e+03,7.374735e+03
1.727908e+03,7.340563e+03
1.730801e+03,7.320639e+03
1.733693e+03,7.332602e+03
1.736586e+03,7.295974e+03
1.739479e+03,7.263228e+03
1.742371e+03,7.292910e+03
1.745264e+03,7.264761e+03
1.748157e+03,7.218240e+03
1.751050e+03,7.239995e+03
1.753942e+03,7.226794e+03
1.756835e+03,7.232951e+03
1.759728e+03,7.167418e+03
1.762620e+03,7.202501e+03
1.765513e+03,7.197726e+03
1.768406e+03,7.149691e+03
1.771298e+03,7.161655e+03
1.774191e+03,7.122300e+03
1.777084e+03,7.110896e+03
1.779977e+03,7.140750e+03
1.782869e+03,7.101811e+03
1.785762e+03,7.067767e+03
1.788655e+03,7.043880e+03
1.791547e+03,7.028384e+03
1.794440e+03,7.023949e+03
1.797333e+03,7.048058e+03
1.800225e+03,7.022434e+03
1.803118e+03,7.003886e+03
1.806011e+03,6.968600e+03
1.808904e+03,6.936084e+03
1.811796e+03,6.955691e+03
1.814689e+03,6.945303e+03
1.817582e+03,6.942753e+03
1.820474e+03,6.935735e+03
1.823367e+03,6.894132e+03
1.826260e+03,6.869743e+03
1.829152e+03,6.896030e+03
1.832045e+03,6.855227e+03
1.834938e+03,6.840495e+03
1.837831e+03,6.834280e+03
1.840723e+03,6.849656e+03
1.843616e+03,6.799981e+03
1.846509e+03,6.795319e+03
1.849401e+03,6.778637e+03
1.852294e+03,6.739592e+03
1.855187e+03,6.715465e+03
1.858079e+03,6.744306e+03
1.860972e+03,6.747244e+03
1.863865e+03,6.730982e+03
1.866758e+03,6.699207e+03
1.869650e+03,6.654017e+03
1.872543e+03,6.670474e+03
1.875436e+03,6.658324e+03
1.878328e+03,6.674821e+03
1.881221e+03,6.596031e+03
1.884114e+03,6.588623e+03
1.887006e+03,6.579550e+03
1.889899e+03,6.589163e+03
1.892792e+03,6.574486e+03
1.895685e+03,6.536482e+03
1.898577e+03,6.554686e+03
1.901470e+03,6.516163e+03
1.904363e+03,6.504532e+03
1.907255e+03,6.494274e+03
1.910148e+03,6.500080e+03
1.913041e+03,6.478739e+03
1.915933e+03,6.474522e+03
1.918826e+03,6.432207e+03
1.921719e+03,6.428967e+03
1.924612e+03,6.428505e+03
1.927504e+03,6.415235e+03
1.930397e+03,6.371187e+03
1.933290e+03,6.358073e+03
1.936182e+03,6.372961e+03
1.939075e+03,6.335135e+03
1.941968e+03,6.354172e+03
1.944860e+03,6.321955e+03
1.947753e+03,6.316146e+03
1.950646e+03,6.282538e+03
1.953539e+03,6.281955e+03
1.956431e+03,6.275058e+03
1.959324e+03,6.254330e+03
1.962217e+03,6.249755e+03
1.965109e+03,6.201152e+03
1.968002e+03,6.208262e+03
1.970895e+03,6.219937e+03
1.973787e+03,6.175613e+03
1.976680e+03,6.212686e+03
1.979573e+03,6.167673e+03
1.982466e+03,6.151002e+03
1.985358e+03,6.144766e+03
1.988251e+03,6.147521e+03
1.991144e+03,6.126238e+03
1.994036e+03,6.111763e+03
1.996929e+03,6.120247e+03
1.999822e+03,6.091920e+03
2.002714e+03,6.079180e+03
2.005607e+03,6.079646e+03
2.008500e+03,6.015956e+03
2.011393e+03,6.032579e+03
2.014285e+03,6.006764e+03
2.017178e+03,6.017088e+03
2.020071e+03,5.981678e+03
2.022963e+03,5.939337e+03
2.025856e+03,5.949123e+03
2.028749e+03,5.957546e+03
2.031641e+03,5.926782e+03
2.034534e+03,5.926273e+03
2.037427e+03,5.910570e+03
2.040320e+03,5.871545e+03
2.043212e+03,5.875911e+03
2.046105e+03,5.862038e+03
2.048998e+03,5.868991e+03
2.051890e+03,5.814843e+03
2.054783e+03,5.828556e+03
2.057676e+03,5.802091e+03
2.060568e+03,5.776016e+03
2.063461e+03,5.807884e+03
2.066354e+03,5.764386e+03
2.069247e+03,5.753317e+03
2.072139e+03,5.739433e+03
2.075032e+03,5.722757e+03
2.077925e+03,5.712978e+03
2.080817e+03,5.712203e+03
2.083710e+03,5.682442e+03
2.086603e+03,5.612384e+03
2.089496e+03,5.662607e+03
2.092388e+03,5.654603e+03
2.095281e+03,5.626107e+03
2.098174e+03,5.605073e+03
2.101066e+03,5.560926e+03
2.103959e+03,5.555115e+03
2.106852e+03,5.570429e+03
2.109744e+03,5.620587e+03
2.112637e+03,5.573043e+03
2.115530e+03,5.541185e+03
2.118422e+03,5.496273e+03
2.121315e+03,5.497407e+03
2.124208e+03,5.517854e+03
2.127101e+03,5.491950e+03
2.129993e+03,5.455121e+03
2.132886e+03,5.456640e+03
2.135779e+03,5.404458e+03
2.138671e+03,5.464468e+03
2.141564e+03,5.446481e+03
2.144457e+03,5.436620e+03
2.147350e+03,5.371434e+03
2.150242e+03,5.375504e+03
2.153135e+03,5.382226e+03
2.156028e+03,5.352353e+03
2.158920e+03,5.334774e+03
2.161813e+03,5.350257e+03
2.164706e+03,5.316914e+03
2.167598e+03,5.286695e+03
2.170491e+03,5.311729e+03
2.173384e+03,5.282561e+03
2.176277e+03,5.263339e+03
2.179169e+03,5.245333e+03
2.182062e+03,5.253570e+03
2.184955e+03,5.232417e+03
2.187847e+03,5.209107e+03
2.190740e+03,5.213008e+03
2.193633e+03,5.204939e+03
2.196525e+03,5.191013e+03
2.199418e+03,5.169019e+03
2.202311e+03,5.190784e+03
2.205204e+03,5.172635e+03
2.208096e+03,5.122327e+03
2.210989e+03,5.081580e+03
2.213882e+03,5.074822e+03
2.216774e+03,5.136447e+03
2.219667e+03,5.099149e+03
2.222560e+03,5.047058e+03
2.225452e+03,5.041132e+03
2.228345e+03,5.031237e+03
2.231238e+03,5.069313e+03
2.234131e+03,5.025271e+03
2.237023e+03,5.024998e+03
2.239916e+03,4.983656e+03
2.242809e+03,4.933795e+03
2.245701e+03,4.957820e+03
2.248594e+03,4.959750e+03
2.251487e+03,4.940081e+03
2.254379e+03,4.936821e+03
2.257272e+03,4.891709e+03
2.260165e+03,4.877444e+03
2.263058e+03,4.887455e+03
2.265950e+03,4.878278e+03
2.268843e+03,4.842417e+03
2.271736e+03,4.819036e+03
2.274628e+03,4.831906e+03
2.277521e+03,4.815565e+03
2.280414e+03,4.827530e+03
2.283306e+03,4.830649e+03
2.286199e+03,4.783443e+03
2.289092e+03,4.757186e+03
2.291985e+03,4.734846e+03
2.294877e+03,4.719111e+03
2.297770e+03,4.780988e+03
2.300663e+03,4.749103e+03
2.303555e+03,4.716573e+03
2.306448e+03,4.695306e+03
2.309341e+03,4.711272e+03
2.312233e+03,4.688888e+03
2.315126e+03,4.701994e+03
2.318019e+03,4.697218e+03
2.320912e+03,4.640723e+03
2.323804e+03,4.649889e+03
2.326697e+03,4.655546e+03
2.329590e+03,4.645844e+03
2.332482e+03,4.617428e+03
2.335375e+03,4.611754e+03
2.338268e+03,4.564417e+03
2.341160e+03,4.594273e+03
2.344053e+03,4.580490e+03
2.346946e+03,4.571369e+03
2.349839e+03,4.519197e+03
2.352731e+03,4.480523e+03
2.355624e+03,4.528891e+03
2.358517e+03,4.512501e+03
2.361409e+03,4.551489e+03
2.364302e+03,4.485603e+03
2.367195e+03,4.465251e+03
2.370087e+03,4.475394e+03
2.372980e+03,4.481978e+03
2.375873e+03,4.437939e+03
2.378766e+03,4.426751e+03
2.381658e+03,4.416354e+03
2.384551e+03,4.408064e+03
2.387444e+03,4.401710e+03
2.390336e+03,4.377995e+03
2.393229e+03,4.389460e+03
2.396122e+03,4.359382e+03
2.399014e+03,4.357143e+03
2.401907e+03,4.353391e+03
2.404800e+03,4.347788e+03
2.407693e+03,4.366882e+03
2.410585e+03,4.318312e+03
2.413478e+03,4.318899e+03
2.416371e+03,4.315001e+03
2.419263e+03,4.283158e+03
2.422156e+03,4.299208e+03
2.425049e+03,4.287315e+03
2.427941e+03,4.264521e+03
2.430834e+03,4.249129e+03
2.433727e+03,4.280584e+03
2.436620e+03,4.230685e+03
2.439512e+03,4.222022e+03
2.442405e+03,4.207011e+03
2.445298e+03,4.211072e+03
2.448190e+03,4.199071e+03
2.451083e+03,4.203784e+03
2.453976e+03,4.195304e+03
2.456868e+03,4.157343e+03
2.459761e+03,4.122971e+03
2.462654e+03,4.147551e+03
2.465547e+03,4.126499e+03
2.468439e+03,4.122831e+03
2.471332e+03,4.119538e+03
2.474225e+03,4.109220e+03
2.477117e+03,4.086108e+03
2.480010e+03,4.099211e+03
2.482903e+03,4.098000e+03
2.485795e+03,4.068777e+03
2.488688e+03,4.052305e+03
2.491581e+03,4.072849e+03
2.494474e+03,4.048563e+03
2.497366e+03,4.066658e+03
2.500259e+03,3.996716e+03
2.503152e+03,4.041041e+03
2.506044e+03,3.965571e+03
2.508937e+03,4.007528e+03
2.511830e+03,3.989067e+03
2.514722e+03,3.983139e+03
2.517615e+03,3.980613e+03
2.520508e+03,3.988106e+03
2.523401e+03,3.974598e+03
2.526293e+03,3.938958e+03
2.529186e+03,3.949539e+03
2.532079e+03,3.954384e+03
2.534971e+03,3.908745e+03
2.537864e+03,3.889521e+03
2.540757e+03,3.929601e+03
2.543649e+03,3.923120e+03
2.546542e+03,3.928694e+03
2.549435e+03,3.889698e+03
2.552328e+03,3.897355e+03
2.555220e+03,3.882291e+03
2.558113e+03,3.867598e+03
2.561006e+03,3.881240e+03
2.563898e+03,3.872530e+03
2.566791e+03,3.836396e+03
2.569684e+03,3.837212e+03
2.572576e+03,3.816185e+03
2.575469e+03,3.845745e+03
2.578362e+03,3.857732e+03
2.581255e+03,3.799862e+03
2.584147e+03,3.788240e+03
2.587040e+03,3.807133e+03
2.589933e+03,3.794536e+03
2.592825e+03,3.789273e+03
2.595718e+03,3.755947e+03
2.598611e+03,3.774993e+03
2.601503e+03,3.724656e+03
2.604396e+03,3.782989e+03
2.607289e+03,3.758357e+03
2.610182e+03,3.748061e+03
2.613074e+03,3.708506e+03
2.615967e+03,3.716128e+03
2.618860e+03,3.717061e+03
2.621752e+03,3.692512e+03
2.624645e+03,3.710106e+03
2.627538e+03,3.684785e+03
2.630430e+03,3.657942e+03
2.633323e+03,3.664469e+03
2.636216e+03,3.681208e+03
2.639109e+03,3.696406e+03
2.642001e+03,3.662655e+03
2.644894e+03,3.650609e+03
2.647787e+03,3.635098e+03
2.650679e+03,3.632774e+03
2.653572e+03,3.618584e+03
2.656465e+03,3.623052e+03
2.659357e+03,3.583196e+03
2.662250e+03,3.609204e+03
2.665143e+03,3.632382e+03
2.668036e+03,3.603015e+03
2.670928e+03,3.557635e+03
2.673821e+03,3.600354e+03
2.676714e+03,3.574973e+03
2.679606e+03,3.567573e+03
2.682499e+03,3.585671e+03
2.685392e+03,3.583755e+03
2.688284e+03,3.542052e+03
2.691177e+03,3.556908e+03
2.694070e+03,3.493521e+03
2.696963e+03,3.511399e+03
2.699855e+03,3.524464e+03
2.702748e+03,3.512990e+03
2.705641e+03,3.517427e+03
2.708533e+03,3.496351e+03
2.711426e+03,3.475879e+03
2.714319e+03,3.480968e+03
2.717211e+03,3.489691e+03
2.720104e+03,3.481300e+03
2.722997e+03,3.459932e+03
2.725890e+03,3.472504e+03
2.728782e+03,3.438073e+03
2.731675e+03,3.420540e+03
2.734568e+03,3.493088e+03
2.737460e+03,3.416533e+03
2.740353e+03,3.408495e+03
2.743246e+03,3.419065e+03
2.746138e+03,3.438219e+03
2.749031e+03,3.410663e+03
2.751924e+03,3.394008e+03
2.754817e+03,3.379967e+03
2.757709e+03,3.397403e+03
2.760602e+03,3.406559e+03
2.763495e+03,3.353896e+03
2.766387e+03,3.399826e+03
2.769280e+03,3.327996e+03
2.772173e+03,3.351159e+03
2.775065e+03,3.355991e+03
2.777958e+03,3.329300e+03
2.780851e+03,3.315154e+03
2.783744e+03,3.354433e+03
2.786636e+03,3.320118e+03
2.789529e+03,3.347614e+03
2.792422e+03,3.295436e+03
2.795314e+03,3.302988e+03
2.798207e+03,3.298296e+03
2.801100e+03,3.325249e+03
2.803992e+03,3.308108e+03
2.806885e+03,3.292080e+03
2.809778e+03,3.286722e+03
2.812671e+03,3.264154e+03
2.815563e+03,3.272206e+03
2.818456e+03,3.247866e+03
2.821349e+03,3.241868e+03
2.824241e+03,3.265026e+03
2.827134e+03,3.261207e+03
2.830027e+03,3.213487e+03
2.832919e+03,3.226840e+03
2.835812e+03,3.205409e+03
2.838705e+03,3.246437e+03
2.841598e+03,3.209891e+03
2.844490e+03,3.256997e+03
2.847383e+03,3.217227e+03
2.850276e+03,3.206922e+03
2.853168e+03,3.230686e+03
2.856061e+03,3.206332e+03
2.858954e+03,3.205574e+03
2.861846e+03,3.215555e+03
2.864739e+03,3.237032e+03
2.867632e+03,3.172260e+03
2.870525e+03,3.205031e+03
2.873417e+03,3.195345e+03
2.876310e+03,3.153610e+03
2.879203e+03,3.181398e+03
2.882095e+03,3.126462e+03
2.884988e+03,3.192594e+03
2.887881e+03,3.228638e+03
2.890773e+03,3.145010e+03
2.893666e+03,3.140943e+03
2.896559e+03,3.153186e+03
2.899452e+03,3.141112e+03
2.902344e+03,3.163635e+03
2.905237e+03,3.120125e+03
2.908130e+03,3.083911e+03
2.911022e+03,3.124747e+03
2.913915e+03,3.116113e+03
2.916808e+03,3.114613e+03
2.919700e+03,3.120790e+03
2.922593e+03,3.075971e+03
2.925486e+03,3.051376e+03
2.928379e+03,3.104826e+03
2.931271e+03,3.075069e+03
2.934164e+03,3.103482e+03
2.937057e+03,3.032198e+03
2.939949e+03,3.080215e+03
2.942842e+03,3.047292e+03
2.945735e+03,3.032277e+03
2.948627e+03,3.087457e+03
2.951520e+03,3.032032e+03
2.954413e+03,2.978022e+03
2.957306e+03,3.024850e+03
2.960198e+03,3.016620e+03
2.963091e+03,3.045411e+03
2.965984e+03,3.056091e+03
2.968876e+03,3.064680e+03
2.971769e+03,2.967562e+03
2.974662e+03,2.958940e+03
2.977554e+03,2.969522e+03
2.980447e+03,2.986499e+03
2.983340e+03,3.015959e+03
2.986233e+03,2.972609e+03
2.989125e+03,2.954786e+03
2.992018e+03,2.906384e+03
2.994911e+03,2.908696e+03
2.997803e+03,2.968292e+03
3.000696e+03,2.945991e+03
3.003589e+03,2.946356e+03
3.006481e+03,2.937886e+03
3.009374e+03,2.891618e+03
3.012267e+03,2.888528e+03
3.015160e+03,2.928278e+03
3.018052e+03,2.943098e+03
3.020945e+03,2.956196e+03
3.023838e+03,2.894862e+03
3.026730e+03,2.911948e+03
3.029623e+03,2.891709e+03
3.032516e+03,2.897518e+03
3.035408e+03,2.837936e+03
3.038301e+03,2.899535e+03
3.041194e+03,2.888336e+03
3.044087e+03,2.873384e+03
3.046979e+03,2.905591e+03
3.049872e+03,2.868717e+03
3.052765e+03,2.871784e+03
3.055657e+03,2.857013e+03
3.058550e+03,2.931949e+03
3.061443e+03,2.854072e+03
3.064335e+03,2.813739e+03
3.067228e+03,2.848614e+03
3.070121e+03,2.836277e+03
3.073014e+03,2.860250e+03
3.075906e+03,2.874648e+03
3.078799e+03,2.825393e+03
3.081692e+03,2.793017e+03
3.084584e+03,2.795775e+03
3.087477e+03,2.805609e+03
3.090370e+03,2.857119e+03
3.093262e+03,2.812132e+03
3.096155e+03,2.856961e+03
3.099048e+03,2.838449e+03
3.101941e+03,2.810753e+03
3.104833e+03,2.790965e+03
3.107726e+03,2.743909e+03
3.110619e+03,2.828418e+03
3.113511e+03,2.760334e+03
3.116404e+03,2.782600e+03
3.119297e+03,2.813408e+03
3.122189e+03,2.819436e+03
3.125082e+03,2.803070e+03
3.127975e+03,2.731100e+03
3.130868e+03,2.816818e+03
3.133760e+03,2.827617e+03
3.136653e+03,2.777235e+03
3.139546e+03,2.759364e+03
3.142438e+03,2.859828e+03
3.145331e+03,2.805802e+03
3.148224e+03,2.807289e+03
3.151116e+03,2.810797e+03
3.154009e+03,2.807722e+03
3.156902e+03,2.760489e+03
3.159795e+03,2.750406e+03
3.162687e+03,2.888288e+03
3.165580e+03,2.771261e+03
3.168473e+03,2.779676e+03
3.171365e+03,2.806111e+03
3.174258e+03,2.797318e+03
3.177151e+03,2.764329e+03
3.180043e+03,2.784570e+03
3.182936e+03,2.810081e+03
3.185829e+03,2.708770e+03
3.188722e+03,2.817924e+03
3.191614e+03,2.872194e+03
3.194507e+03,2.740470e+03
3.197400e+03,2.790377e+03
3.200292e+03,2.791747e+03
3.203185e+03,0.000000e+00
3.206078e+03,0.000000e+00
3.208970e+03,0.000000e+00
3.211863e+03,0.000000e+00
3.214756e+03,0.000000e+00
3.217649e+03,0.000000e+00
3.220541e+03,0.000000e+00
3.223434e+03,0.000000e+00
3.226327e+03,0.000000e+00
3.229219e+03,0.000000e+00
3.232112e+03,0.000000e+00
3.235005e+03,0.000000e+00
3.237897e+03,0.000000e+00
3.240790e+03,0.000000e+00
3.243683e+03,0.000000e+00
3.246576e+03,0.000000e+00
3.249468e+03,0.000000e+00
3.252361e+03,0.000000e+00
3.255254e+03,0.000000e+00
3.258146e+03,0.000000e+00
3.261039e+03,0.000000e+00
3.263932e+03,0.000000e+00
3.266824e+03,0.000000e+00
3.269717e+03,0.000000e+00
3.272610e+03,0.000000e+00
3.275503e+03,0.000000e+00
3.278395e+03,0.000000e+00
3.281288e+03,0.000000e+00
3.284181e+03,0.000000e+00
3.287073e+03,0.000000e+00
3.289966e+03,0.000000e+00
3.292859e+03,0.000000e+00
3.295751e+03,0.000000e+00
3.298644e+03,0.000000e+00
3.301537e+03,0.000000e+00
3.304430e+03,0.000000e+00
3.307322e+03,0.000000e+00
3.310215e+03,0.000000e+00
3.313108e+03,0.000000e+00
3.316000e+03,0.000000e+00
3.318893e+03,0.000000e+00
3.321786e+03,0.000000e+00
3.324678e+03,0.000000e+00
3.327571e+03,0.000000e+00
3.330464e+03,0.000000e+00
3.333357e+03,0.000000e+00
3.336249e+03,0.000000e+00
3.339142e+03,0.000000e+00
3.342035e+03,0.000000e+00
3.344927e+03,0.000000e+00
3.347820e+03,0.000000e+00
3.350713e+03,0.000000e+00
3.353605e+03,0.000000e+00
3.356498e+03,0.000000e+00
3.359391e+03,0.000000e+00
3.362284e+03,0.000000e+00
3.365176e+03,0.000000e+00
3.368069e+03,0.000000e+00
3.370962e+03,0.000000e+00
3.373854e+03,0.000000e+00
3.376747e+03,0.000000e+00
3.379640e+03,0.000000e+00
3.382532e+03,0.000000e+00
3.385425e+03,0.000000e+00
3.388318e+03,0.000000e+00
3.391211e+03,0.000000e+00
3.394103e+03,0.000000e+00
3.396996e+03,0.000000e+00
3.399889e+03,0.000000e+00
3.402781e+03,0.000000e+00
3.405674e+03,0.000000e+00
3.408567e+03,0.000000e+00
3.411459e+03,0.000000e+00
3.414352e+03,0.000000e+00
3.417245e+03,0.000000e+00
3.420138e+03,0.000000e+00
3.423030e+03,0.000000e+00
3.425923e+03,0.000000e+00
3.428816e+03,0.000000e+00
3.431708e+03,0.000000e+00
3.434601e+03,0.000000e+00
3.437494e+03,0.000000e+00
3.440386e+03,0.000000e+00
3.443279e+03,0.000000e+00
3.446172e+03,0.000000e+00
3.449065e+03,0.000000e+00
3.451957e+03,0.000000e+00
3.454850e+03,0.000000e+00
3.457743e+03,0.000000e+00
3.460635e+03,0.000000e+00
3.463528e+03,0.000000e+00
3.466421e+03,0.000000e+00
3.469313e+03,0.000000e+00
3.472206e+03,0.000000e+00
3.475099e+03,0.000000e+00
3.477992e+03,0.000000e+00
3.480884e+03,0.000000e+00
3.483777e+03,0.000000e+00
3.486670e+03,0.000000e+00
3.489563e+03,0.000000e+00
3.492455e+03,0.000000e+00
3.495348e+03,0.000000e+00
3.498240e+03,0.000000e+00
3.500169e+03,0.000000e+00