File: RAMAN_data/13042023_r2/blue fibre11.CSV
9.931763e+01,0.000000e+00
1.022103e+02,0.000000e+00
1.051030e+02,0.000000e+00
1.079957e+02,0.000000e+00
1.108884e+02,0.000000e+00
1.137811e+02,0.000000e+00
1.166738e+02,0.000000e+00
1.195665e+02,0.000000e+00
1.224592e+02,0.000000e+00
1.253519e+02,0.000000e+00
1.282446e+02,0.000000e+00
1.311373e+02,0.000000e+00
1.340300e+02,0.000000e+00
1.369227e+02,0.000000e+00
1.398154e+02,0.000000e+00
1.427081e+02,0.000000e+00
1.456008e+02,0.000000e+00
1.484935e+02,0.000000e+00
1.513862e+02,0.000000e+00
1.542789e+02,0.000000e+00
1.571716e+02,0.000000e+00
1.600643e+02,0.000000e+00
1.629570e+02,0.000000e+00
1.658497e+02,0.000000e+00
1.687424e+02,0.000000e+00
1.716351e+02,0.000000e+00
1.745278e+02,0.000000e+00
1.774205e+02,0.000000e+00
1.803132e+02,0.000000e+00
1.832059e+02,0.000000e+00
1.860986e+02,0.000000e+00
1.889913e+02,0.000000e+00
1.918840e+02,0.000000e+00
1.947767e+02,0.000000e+00
1.976694e+02,0.000000e+00
2.005621e+02,1.047899e+04
2.034548e+02,1.051899e+04
2.063475e+02,1.054891e+04
2.092402e+02,1.054938e+04
2.121329e+02,1.055037e+04
2.150256e+02,1.057905e+04
2.179183e+02,1.060927e+04
2.208110e+02,1.066068e+04
2.237037e+02,1.067604e+04
2.265964e+02,1.068651e+04
2.294892e+02,1.071479e+04
2.323819e+02,1.076347e+04
2.352746e+02,1.080069e+04
2.381673e+02,1.083713e+04
2.410600e+02,1.083247e+04
2.439527e+02,1.084990e+04
2.468454e+02,1.088676e+04
2.497381e+02,1.092278e+04
2.526308e+02,1.095922e+04
2.555235e+02,1.097428e+04
2.584161e+02,1.097618e+04
2.613088e+02,1.101875e+04
2.642015e+02,1.107090e+04
2.670942e+02,1.109680e+04
2.699869e+02,1.113129e+04
2.728796e+02,1.114345e+04
2.757723e+02,1.118588e+04
2.786650e+02,1.122837e+04
2.815577e+02,1.125757e+04
2.844504e+02,1.128443e+04
2.873431e+02,1.128894e+04
2.902358e+02,1.131662e+04
2.931285e+02,1.134527e+04
2.960212e+02,1.138987e+04
2.989139e+02,1.141438e+04
3.018066e+02,1.143403e+04
3.046993e+02,1.146588e+04
3.075920e+02,1.148845e+04
3.104847e+02,1.152735e+04
3.133774e+02,1.157835e+04
3.162701e+02,1.159458e+04
3.191628e+02,1.160775e+04
3.220555e+02,1.163998e+04
3.249482e+02,1.168473e+04
3.278409e+02,1.172350e+04
3.307336e+02,1.175910e+04
3.336263e+02,1.178434e+04
3.365190e+02,1.179563e+04
3.394117e+02,1.184454e+04
3.423044e+02,1.188976e+04
3.451971e+02,1.195046e+04
3.480898e+02,1.197444e+04
3.509825e+02,1.198815e+04
3.538752e+02,1.203829e+04
3.567680e+02,1.208699e+04
3.596607e+02,1.212620e+04
3.625534e+02,1.216527e+04
3.654461e+02,1.215099e+04
3.683388e+02,1.217619e+04
3.712315e+02,1.223918e+04
3.741242e+02,1.227458e+04
3.770169e+02,1.231110e+04
3.799096e+02,1.235307e+04
3.828023e+02,1.236800e+04
3.856950e+02,1.241050e+04
3.885877e+02,1.243713e+04
3.914804e+02,1.246121e+04
3.943731e+02,1.247008e+04
3.972658e+02,1.248862e+04
4.001585e+02,1.248129e+04
4.030512e+02,1.252953e+04
4.059439e+02,1.255573e+04
4.088366e+02,1.257289e+04
4.117293e+02,1.258342e+04
4.146220e+02,1.259223e+04
4.175147e+02,1.258950e+04
4.204074e+02,1.263079e+04
4.233001e+02,1.265811e+04
4.261928e+02,1.264615e+04
4.290855e+02,1.264922e+04
4.319782e+02,1.269242e+04
4.348709e+02,1.273974e+04
4.377636e+02,1.276482e+04
4.406563e+02,1.277342e+04
4.435490e+02,1.279557e+04
4.464417e+02,1.282873e+04
4.493344e+02,1.281618e+04
4.522271e+02,1.285536e+04
4.551198e+02,1.282427e+04
4.580125e+02,1.279739e+04
4.609052e+02,1.282397e+04
4.637979e+02,1.282504e+04
4.666906e+02,1.279102e+04
4.695833e+02,1.282883e+04
4.724760e+02,1.281666e+04
4.753687e+02,1.283429e+04
4.782614e+02,1.279074e+04
4.811541e+02,1.281878e+04
4.840468e+02,1.283218e+04
4.869395e+02,1.282667e+04
4.898322e+02,1.279808e+04
4.927249e+02,1.278676e+04
4.956176e+02,1.282283e+04
4.985103e+02,1.284239e+04
5.014030e+02,1.283110e+04
5.042957e+02,1.282989e+04
5.071884e+02,1.281228e+04
5.100811e+02,1.280866e+04
5.129738e+02,1.278043e+04
5.158665e+02,1.285827e+04
5.187592e+02,1.283318e+04
5.216519e+02,1.281784e+04
5.245446e+02,1.283284e+04
5.274373e+02,1.282465e+04
5.303300e+02,1.285213e+04
5.332227e+02,1.283194e+04
5.361154e+02,1.277489e+04
5.390081e+02,1.278860e+04
5.419008e+02,1.280838e+04
5.447935e+02,1.284014e+04
5.476862e+02,1.282750e+04
5.505789e+02,1.278823e+04
5.534716e+02,1.275551e+04
5.563643e+02,1.280343e+04
5.592570e+02,1.281341e+04
5.621497e+02,1.281975e+04
5.650424e+02,1.279207e+04
5.679351e+02,1.278920e+04
5.708278e+02,1.275482e+04
5.737205e+02,1.277075e+04
5.766132e+02,1.280612e+04
5.795059e+02,1.281898e+04
5.823986e+02,1.277487e+04
5.852913e+02,1.276593e+04
5.881840e+02,1.278339e+04
5.910767e+02,1.277821e+04
5.939694e+02,1.277630e+04
5.968621e+02,1.277209e+04
5.997548e+02,1.278240e+04
6.026475e+02,1.274711e+04
6.055402e+02,1.278287e+04
6.084329e+02,1.273896e+04
6.113256e+02,1.269229e+04
6.142183e+02,1.264972e+04
6.171110e+02,1.261996e+04
6.200037e+02,1.260154e+04
6.228964e+02,1.263494e+04
6.257891e+02,1.259228e+04
6.286818e+02,1.256522e+04
6.315745e+02,1.253905e+04
6.344672e+02,1.256335e+04
6.373599e+02,1.252077e+04
6.402526e+02,1.252014e+04
6.431453e+02,1.246313e+04
6.460380e+02,1.246500e+04
6.489307e+02,1.246664e+04
6.518234e+02,1.244430e+04
6.547161e+02,1.243373e+04
6.576088e+02,1.243791e+04
6.605015e+02,1.233549e+04
6.633942e+02,1.238210e+04
6.662869e+02,1.231277e+04
6.691796e+02,1.236584e+04
6.720723e+02,1.234630e+04
6.749650e+02,1.230131e+04
6.778577e+02,1.226433e+04
6.807504e+02,1.230266e+04
6.836431e+02,1.223061e+04
6.865358e+02,1.221876e+04
6.894285e+02,1.217625e+04
6.923212e+02,1.218665e+04
6.952139e+02,1.215444e+04
6.981066e+02,1.219763e+04
7.009993e+02,1.214216e+04
7.038920e+02,1.213805e+04
7.067847e+02,1.210500e+04
7.096774e+02,1.210331e+04
7.125701e+02,1.207030e+04
7.154628e+02,1.207558e+04
7.183555e+02,1.201996e+04
7.212482e+02,1.198762e+04
7.241409e+02,1.201861e+04
7.270336e+02,1.198744e+04
7.299263e+02,1.198180e+04
7.328190e+02,1.196720e+04
7.357117e+02,1.191215e+04
7.386044e+02,1.192788e+04
7.414971e+02,1.193146e+04
7.443898e+02,1.188412e+04
7.472825e+02,1.192216e+04
7.501752e+02,1.183478e+04
7.530679e+02,1.183238e+04
7.559606e+02,1.182265e+04
7.588533e+02,1.178172e+04
7.617460e+02,1.181279e+04
7.646387e+02,1.175833e+04
7.675314e+02,1.177505e+04
7.704241e+02,1.172312e+04
7.733168e+02,1.170886e+04
7.762095e+02,1.171519e+04
7.791022e+02,1.171326e+04
7.819949e+02,1.167399e+04
7.848876e+02,1.165058e+04
7.877803e+02,1.162606e+04
7.906730e+02,1.165030e+04
7.935657e+02,1.164940e+04
7.964584e+02,1.158544e+04
7.993511e+02,1.156470e+04
8.022438e+02,1.155320e+04
8.051365e+02,1.155072e+04
8.080292e+02,1.155061e+04
8.109219e+02,1.153601e+04
8.138146e+02,1.149590e+04
8.167073e+02,1.150244e+04
8.196000e+02,1.144535e+04
8.224927e+02,1.145479e+04
8.253854e+02,1.140214e+04
8.282781e+02,1.140835e+04
8.311708e+02,1.138030e+04
8.340635e+02,1.139412e+04
8.369562e+02,1.136606e+04
8.398489e+02,1.136427e+04
8.427416e+02,1.137758e+04
8.456343e+02,1.129532e+04
8.485270e+02,1.131365e+04
8.514197e+02,1.127898e+04
8.543124e+02,1.126966e+04
8.572051e+02,1.125499e+04
8.600978e+02,1.123768e+04
8.629905e+02,1.117867e+04
8.658832e+02,1.116646e+04
8.687759e+02,1.112818e+04
8.716686e+02,1.114125e+04
8.745613e+02,1.111815e+04
8.774540e+02,1.113406e+04
8.803467e+02,1.109989e+04
8.832394e+02,1.107442e+04
8.861321e+02,1.105281e+04
8.890248e+02,1.102527e+04
8.919175e+02,1.098988e+04
8.948102e+02,1.098864e+04
8.977029e+02,1.099215e+04
9.005956e+02,1.097906e+04
9.034883e+02,1.097487e+04
9.063810e+02,1.095960e+04
9.092737e+02,1.092244e+04
9.121664e+02,1.092706e+04
9.150591e+02,1.089172e+04
9.179518e+02,1.083774e+04
9.208445e+02,1.082475e+04
9.237372e+02,1.083064e+04
9.266299e+02,1.079422e+04
9.295226e+02,1.080331e+04
9.324153e+02,1.077888e+04
9.353080e+02,1.071732e+04
9.382007e+02,1.071062e+04
9.410934e+02,1.072043e+04
9.439861e+02,1.067852e+04
9.468788e+02,1.070136e+04
9.497715e+02,1.068973e+04
9.526642e+02,1.066296e+04
9.555569e+02,1.061498e+04
9.584496e+02,1.058614e+04
9.613423e+02,1.057685e+04
9.642350e+02,1.062067e+04
9.671277e+02,1.058066e+04
9.700204e+02,1.054884e+04
9.729131e+02,1.050827e+04
9.758058e+02,1.050686e+04
9.786985e+02,1.050395e+04
9.815912e+02,1.049556e+04
9.844839e+02,1.045465e+04
9.873766e+02,1.041014e+04
9.902693e+02,1.041193e+04
9.931620e+02,1.043559e+04
9.960547e+02,1.038909e+04
9.989474e+02,1.039127e+04
1.001840e+03,1.034309e+04
1.004733e+03,1.034124e+04
1.007626e+03,1.033665e+04
1.010518e+03,1.031367e+04
1.013411e+03,1.029133e+04
1.016304e+03,1.022824e+04
1.019196e+03,1.023264e+04
1.022089e+03,1.022877e+04
1.024982e+03,1.021683e+04
1.027875e+03,1.019564e+04
1.030767e+03,1.016177e+04
1.033660e+03,1.017369e+04
1.036552e+03,1.014943e+04
1.039445e+03,1.014295e+04
1.042338e+03,1.012898e+04
1.045231e+03,1.012227e+04
1.048123e+03,1.008680e+04
1.051016e+03,1.006516e+04
1.053909e+03,1.006869e+04
1.056802e+03,1.005038e+04
1.059694e+03,1.002807e+04
1.062587e+03,1.000518e+04
1.065479e+03,9.979420e+03
1.068372e+03,9.955104e+03
1.071265e+03,9.996263e+03
1.074158e+03,9.972416e+03
1.077050e+03,9.913740e+03
1.079943e+03,9.898790e+03
1.082836e+03,9.911849e+03
1.085729e+03,9.887231e+03
1.088621e+03,9.875473e+03
1.091514e+03,9.862416e+03
1.094406e+03,9.815432e+03
1.097299e+03,9.783266e+03
1.100192e+03,9.799678e+03
1.103085e+03,9.764491e+03
1.105977e+03,9.748146e+03
1.108870e+03,9.756649e+03
1.111763e+03,9.718998e+03
1.114656e+03,9.701186e+03
1.117548e+03,9.697229e+03
1.120441e+03,9.682418e+03
1.123334e+03,9.682795e+03
1.126226e+03,9.634187e+03
1.129119e+03,9.639351e+03
1.132012e+03,9.650630e+03
1.134904e+03,9.602286e+03
1.137797e+03,9.571702e+03
1.140690e+03,9.527768e+03
1.143583e+03,9.538333e+03
1.146475e+03,9.538426e+03
1.149368e+03,9.494660e+03
1.152261e+03,9.458231e+03
1.155153e+03,9.436094e+03
1.158046e+03,9.444737e+03
1.160939e+03,9.400232e+03
1.163831e+03,9.430036e+03
1.166724e+03,9.420451e+03
1.169617e+03,9.351845e+03
1.172510e+03,9.333085e+03
1.175402e+03,9.293628e+03
1.178295e+03,9.320579e+03
1.181188e+03,9.337127e+03
1.184080e+03,9.292241e+03
1.186973e+03,9.266402e+03
1.189866e+03,9.260298e+03
1.192758e+03,9.239181e+03
1.195651e+03,9.230540e+03
1.198544e+03,9.242533e+03
1.201437e+03,9.202140e+03
1.204329e+03,9.148014e+03
1.207222e+03,9.141536e+03
1.210115e+03,9.136360e+03
1.213007e+03,9.144855e+03
1.215900e+03,9.120443e+03
1.218793e+03,9.097628e+03
1.221685e+03,9.067642e+03
1.224578e+03,9.055976e+03
1.227471e+03,9.083244e+03
1.230364e+03,9.029621e+03
1.233256e+03,9.006438e+03
1.236149e+03,8.957267e+03
1.239042e+03,8.994573e+03
1.241934e+03,8.980230e+03
1.244827e+03,8.955448e+03
1.247720e+03,8.922506e+03
1.250612e+03,8.874482e+03
1.253505e+03,8.898293e+03
1.256398e+03,8.877771e+03
1.259291e+03,8.876835e+03
1.262183e+03,8.852645e+03
1.265076e+03,8.821830e+03
1.267969e+03,8.837274e+03
1.270861e+03,8.791722e+03
1.273754e+03,8.808921e+03
1.276647e+03,8.765024e+03
1.279539e+03,8.730374e+03
1.282432e+03,8.732471e+03
1.285325e+03,8.729137e+03
1.288218e+03,8.735519e+03
1.291110e+03,8.699420e+03
1.294003e+03,8.669380e+03
1.296896e+03,8.635635e+03
1.299788e+03,8.608356e+03
1.302681e+03,8.622877e+03
1.305574e+03,8.614278e+03
1.308466e+03,8.589146e+03
1.311359e+03,8.548274e+03
1.314252e+03,8.523419e+03
1.317145e+03,8.545093e+03
1.320037e+03,8.543824e+03
1.322930e+03,8.509542e+03
1.325823e+03,8.480687e+03
1.328715e+03,8.466029e+03
1.331608e+03,8.467587e+03
1.334501e+03,8.492304e+03
1.337393e+03,8.442390e+03
1.340286e+03,8.427998e+03
1.343179e+03,8.397592e+03
1.346072e+03,8.394261e+03
1.348964e+03,8.366028e+03
1.351857e+03,8.374192e+03
1.354750e+03,8.338719e+03
1.357642e+03,8.310316e+03
1.360535e+03,8.288961e+03
1.363428e+03,8.264565e+03
1.366320e+03,8.271538e+03
1.369213e+03,8.250047e+03
1.372106e+03,8.203696e+03
1.374999e+03,8.184063e+03
1.377891e+03,8.196482e+03
1.380784e+03,8.169083e+03
1.383677e+03,8.146295e+03
1.386569e+03,8.149208e+03
1.389462e+03,8.113947e+03
1.392355e+03,8.090513e+03
1.395247e+03,8.064126e+03
1.398140e+03,8.049687e+03
1.401033e+03,8.043403e+03
1.403926e+03,8.031676e+03
1.406818e+03,7.982154e+03
1.409711e+03,7.995817e+03
1.412604e+03,8.003520e+03
1.415496e+03,7.978514e+03
1.418389e+03,7.929937e+03
1.421282e+03,7.930704e+03
1.424174e+03,7.895632e+03
1.427067e+03,7.883675e+03
1.429960e+03,7.895008e+03
1.432853e+03,7.888061e+03
1.435745e+03,7.855416e+03
1.438638e+03,7.819545e+03
1.441531e+03,7.827070e+03
1.444423e+03,7.818993e+03
1.447316e+03,7.816712e+03
1.450209e+03,7.779435e+03
1.453101e+03,7.756916e+03
1.455994e+03,7.764916e+03
1.458887e+03,7.759308e+03
1.461780e+03,7.732122e+03
1.464672e+03,7.701893e+03
1.467565e+03,7.655570e+03
1.470458e+03,7.658079e+03
1.473350e+03,7.641373e+03
1.476243e+03,7.641048e+03
1.479136e+03,7.616555e+03
1.482028e+03,7.589399e+03
1.484921e+03,7.580718e+03
1.487814e+03,7.583918e+03
1.490707e+03,7.571601e+03
1.493599e+03,7.548646e+03
1.496492e+03,7.522921e+03
1.499385e+03,7.506846e+03
1.502277e+03,7.504579e+03
1.505170e+03,7.501453e+03
1.508063e+03,7.496491e+03
1.510955e+03,7.418828e+03
1.513848e+03,7.394245e+03
1.516741e+03,7.396086e+03
1.519634e+03,7.388576e+03
1.522526e+03,7.402732e+03
1.525419e+03,7.373750e+03
1.528312e+03,7.345833e+03
1.531204e+03,7.326834e+03
1.534097e+03,7.333614e+03
1.536990e+03,7.310413e+03
1.539882e+03,7.289000e+03
1.542775e+03,7.271442e+03
1.545668e+03,7.243411e+03
1.548561e+03,7.226829e+03
1.551453e+03,7.229337e+03
1.554346e+03,7.229701e+03
1.557239e+03,7.221209e+03
1.560131e+03,7.181252e+03
1.563024e+03,7.160279e+03
1.565917e+03,7.178815e+03
1.568809e+03,7.172050e+03
1.571702e+03,7.172028e+03
1.574595e+03,7.131438e+03
1.577488e+03,7.097661e+03
1.580380e+03,7.108046e+03
1.583273e+03,7.087126e+03
1.586166e+03,7.078756e+03
1.589058e+03,7.063336e+03
1.591951e+03,7.045804e+03
1.594844e+03,7.020596e+03
1.597736e+03,7.023067e+03
1.600629e+03,6.996491e+03
1.603522e+03,6.976438e+03
1.606415e+03,6.965226e+03
1.609307e+03,6.990571e+03
1.612200e+03,6.943933e+03
1.615093e+03,6.919014e+03
1.617985e+03,6.906092e+03
1.620878e+03,6.891069e+03
1.623771e+03,6.865473e+03
1.626663e+03,6.879572e+03
1.629556e+03,6.818609e+03
1.632449e+03,6.821754e+03
1.635342e+03,6.806619e+03
1.638234e+03,6.787021e+03
1.641127e+03,6.793268e+03
1.644020e+03,6.782169e+03
1.646912e+03,6.763967e+03
1.649805e+03,6.741152e+03
1.652698e+03,6.709010e+03
1.655590e+03,6.676457e+03
1.658483e+03,6.677011e+03
1.661376e+03,6.668627e+03
1.664269e+03,6.624467e+03
1.667161e+03,6.619544e+03
1.670054e+03,6.623917e+03
1.672947e+03,6.588075e+03
1.675839e+03,6.616344e+03
1.678732e+03,6.593717e+03
1.681625e+03,6.573809e+03
1.684517e+03,6.539108e+03
1.687410e+03,6.532650e+03
1.690303e+03,6.527679e+03
1.693196e+03,6.500648e+03
1.696088e+03,6.513818e+03
1.698981e+03,6.468686e+03
1.701874e+03,6.467442e+03
1.704766e+03,6.447659e+03
1.707659e+03,6.426311e+03
1.710552e+03,6.450852e+03
1.713444e+03,6.417820e+03
1.716337e+03,6.384230e+03
1.719230e+03,6.391218e+03
1.722123e+03,6.378100e+03
1.725015e+03,6.321722e+03
1.727908e+03,6.305182e+03
1.730801e+03,6.308617e+03
1.733693e+03,6.292963e+03
1.736586e+03,6.303728e+03
1.739479e+03,6.309604e+03
1.742371e+03,6.266177e+03
1.745264e+03,6.255839e+03
1.748157e+03,6.229464e+03
1.751050e+03,6.234708e+03
1.753942e+03,6.202875e+03
1.756835e+03,6.214646e+03
1.759728e+03,6.162558e+03
1.762620e+03,6.154253e+03
1.765513e+03,6.142477e+03
1.768406e+03,6.129315e+03
1.771298e+03,6.145652e+03
1.774191e+03,6.092497e+03
1.777084e+03,6.113674e+03
1.779977e+03,6.078383e+03
1.782869e+03,6.073182e+03
1.785762e+03,6.061482e+03
1.788655e+03,6.033350e+03
1.791547e+03,6.016407e+03
1.794440e+03,6.012716e+03
1.797333e+03,6.026888e+03
1.800225e+03,5.992479e+03
1.803118e+03,5.973135e+03
1.806011e+03,5.927778e+03
1.808904e+03,5.948804e+03
1.811796e+03,5.934087e+03
1.814689e+03,5.906141e+03
1.817582e+03,5.893825e+03
1.820474e+03,5.874553e+03
1.823367e+03,5.848336e+03
1.826260e+03,5.833162e+03
1.829152e+03,5.848248e+03
1.832045e+03,5.820592e+03
1.834938e+03,5.841333e+03
1.837831e+03,5.792034e+03
1.840723e+03,5.762064e+03
1.843616e+03,5.771425e+03
1.846509e+03,5.776455e+03
1.849401e+03,5.749875e+03
1.852294e+03,5.716525e+03
1.855187e+03,5.711639e+03
1.858079e+03,5.708802e+03
1.860972e+03,5.716761e+03
1.863865e+03,5.690025e+03
1.866758e+03,5.651078e+03
1.869650e+03,5.645281e+03
1.872543e+03,5.636018e+03
1.875436e+03,5.618489e+03
1.878328e+03,5.615483e+03
1.881221e+03,5.583389e+03
1.884114e+03,5.554215e+03
1.887006e+03,5.545488e+03
1.889899e+03,5.567361e+03
1.892792e+03,5.549269e+03
1.895685e+03,5.523186e+03
1.898577e+03,5.491403e+03
1.901470e+03,5.507663e+03
1.904363e+03,5.463537e+03
1.907255e+03,5.476853e+03
1.910148e+03,5.440844e+03
1.913041e+03,5.456608e+03
1.915933e+03,5.396062e+03
1.918826e+03,5.409041e+03
1.921719e+03,5.379445e+03
1.924612e+03,5.364151e+03
1.927504e+03,5.383405e+03
1.930397e+03,5.367641e+03
1.933290e+03,5.353833e+03
1.936182e+03,5.349831e+03
1.939075e+03,5.325308e+03
1.941968e+03,5.297106e+03
1.944860e+03,5.293399e+03
1.947753e+03,5.248697e+03
1.950646e+03,5.261481e+03
1.953539e+03,5.248651e+03
1.956431e+03,5.238071e+03
1.959324e+03,5.215349e+03
1.962217e+03,5.211493e+03
1.965109e+03,5.187078e+03
1.968002e+03,5.180252e+03
1.970895e+03,5.167555e+03
1.973787e+03,5.160430e+03
1.976680e+03,5.107680e+03
1.979573e+03,5.122678e+03
1.982466e+03,5.132504e+03
1.985358e+03,5.128261e+03
1.988251e+03,5.078805e+03
1.991144e+03,5.060002e+03
1.994036e+03,5.034164e+03
1.996929e+03,5.054414e+03
1.999822e+03,5.038384e+03
2.002714e+03,5.038528e+03
2.005607e+03,5.004273e+03
2.008500e+03,4.986955e+03
2.011393e+03,4.968959e+03
2.014285e+03,4.950710e+03
2.017178e+03,4.962129e+03
2.020071e+03,4.957251e+03
2.022963e+03,4.916500e+03
2.025856e+03,4.884336e+03
2.028749e+03,4.898693e+03
2.031641e+03,4.878701e+03
2.034534e+03,4.894469e+03
2.037427e+03,4.868538e+03
2.040320e+03,4.812597e+03
2.043212e+03,4.847088e+03
2.046105e+03,4.831130e+03
2.048998e+03,4.791749e+03
2.051890e+03,4.772307e+03
2.054783e+03,4.760875e+03
2.057676e+03,4.756855e+03
2.060568e+03,4.729676e+03
2.063461e+03,4.765571e+03
2.066354e+03,4.742216e+03
2.069247e+03,4.698282e+03
2.072139e+03,4.670229e+03
2.075032e+03,4.676020e+03
2.077925e+03,4.656947e+03
2.080817e+03,4.656522e+03
2.083710e+03,4.662933e+03
2.086603e+03,4.592825e+03
2.089496e+03,4.631146e+03
2.092388e+03,4.588162e+03
2.095281e+03,4.580097e+03
2.098174e+03,4.614099e+03
2.101066e+03,4.567233e+03
2.103959e+03,4.561735e+03
2.106852e+03,4.524667e+03
2.109744e+03,4.546585e+03
2.112637e+03,4.501675e+03
2.115530e+03,4.472231e+03
2.118422e+03,4.428785e+03
2.121315e+03,4.502569e+03
2.124208e+03,4.487744e+03
2.127101e+03,4.463911e+03
2.129993e+03,4.430595e+03
2.132886e+03,4.401464e+03
2.135779e+03,4.427023e+03
2.138671e+03,4.413698e+03
2.141564e+03,4.405564e+03
2.144457e+03,4.390572e+03
2.147350e+03,4.314849e+03
2.150242e+03,4.332782e+03
2.153135e+03,4.311541e+03
2.156028e+03,4.312460e+03
2.158920e+03,4.296003e+03
2.161813e+03,4.285259e+03
2.164706e+03,4.289470e+03
2.167598e+03,4.268506e+03
2.170491e+03,4.254192e+03
2.173384e+03,4.226760e+03
2.176277e+03,4.209644e+03
2.179169e+03,4.196392e+03
2.182062e+03,4.187743e+03
2.184955e+03,4.190091e+03
2.187847e+03,4.178421e+03
2.190740e+03,4.147473e+03
2.193633e+03,4.118178e+03
2.196525e+03,4.108104e+03
2.199418e+03,4.130423e+03
2.202311e+03,4.114086e+03
2.205204e+03,4.106135e+03
2.208096e+03,4.072140e+03
2.210989e+03,4.016558e+03
2.213882e+03,4.010278e+03
2.216774e+03,4.037353e+03
2.219667e+03,4.058914e+03
2.222560e+03,4.027872e+03
2.225452e+03,3.994472e+03
2.228345e+03,3.957909e+03
2.231238e+03,3.992196e+03
2.234131e+03,3.976138e+03
2.237023e+03,3.974658e+03
2.239916e+03,3.911320e+03
2.242809e+03,3.928245e+03
2.245701e+03,3.931211e+03
2.248594e+03,3.891106e+03
2.251487e+03,3.915396e+03
2.254379e+03,3.898449e+03
2.257272e+03,3.843158e+03
2.260165e+03,3.844823e+03
2.263058e+03,3.863608e+03
2.265950e+03,3.834793e+03
2.268843e+03,3.813570e+03
2.271736e+03,3.780370e+03
2.274628e+03,3.790847e+03
2.277521e+03,3.791371e+03
2.280414e+03,3.768787e+03
2.283306e+03,3.747213e+03
2.286199e+03,3.701160e+03
2.289092e+03,3.728214e+03
2.291985e+03,3.712679e+03
2.294877e+03,3.693810e+03
2.297770e+03,3.722918e+03
2.300663e+03,3.699640e+03
2.303555e+03,3.683464e+03
2.306448e+03,3.645619e+03
2.309341e+03,3.652119e+03
2.312233e+03,3.640033e+03
2.315126e+03,3.609732e+03
2.318019e+03,3.593637e+03
2.320912e+03,3.601098e+03
2.323804e+03,3.590604e+03
2.326697e+03,3.592894e+03
2.329590e+03,3.584602e+03
2.332482e+03,3.546411e+03
2.335375e+03,3.523128e+03
2.338268e+03,3.550794e+03
2.341160e+03,3.500167e+03
2.344053e+03,3.541962e+03
2.346946e+03,3.507830e+03
2.349839e+03,3.499833e+03
2.352731e+03,3.467425e+03
2.355624e+03,3.477810e+03
2.358517e+03,3.497924e+03
2.361409e+03,3.460755e+03
2.364302e+03,3.419704e+03
2.367195e+03,3.434808e+03
2.370087e+03,3.437848e+03
2.372980e+03,3.409104e+03
2.375873e+03,3.405502e+03
2.378766e+03,3.393019e+03
2.381658e+03,3.379544e+03
2.384551e+03,3.370761e+03
2.387444e+03,3.328994e+03
2.390336e+03,3.342617e+03
2.393229e+03,3.319140e+03
2.396122e+03,3.320025e+03
2.399014e+03,3.299808e+03
2.401907e+03,3.295817e+03
2.404800e+03,3.294028e+03
2.407693e+03,3.302649e+03
2.410585e+03,3.293800e+03
2.413478e+03,3.249417e+03
2.416371e+03,3.278369e+03
2.419263e+03,3.250179e+03
2.422156e+03,3.261428e+03
2.425049e+03,3.202205e+03
2.427941e+03,3.208834e+03
2.430834e+03,3.202333e+03
2.433727e+03,3.171352e+03
2.436620e+03,3.187677e+03
2.439512e+03,3.177338e+03
2.442405e+03,3.158644e+03
2.445298e+03,3.146048e+03
2.448190e+03,3.141238e+03
2.451083e+03,3.134175e+03
2.453976e+03,3.138726e+03
2.456868e+03,3.142134e+03
2.459761e+03,3.083153e+03
2.462654e+03,3.089801e+03
2.465547e+03,3.101817e+03
2.468439e+03,3.077395e+03
2.471332e+03,3.059477e+03
2.474225e+03,3.068773e+03
2.477117e+03,3.061443e+03
2.480010e+03,3.059609e+03
2.482903e+03,3.055488e+03
2.485795e+03,3.032350e+03
2.488688e+03,3.025274e+03
2.491581e+03,3.012892e+03
2.494474e+03,3.001426e+03
2.497366e+03,3.003158e+03
2.500259e+03,3.002225e+03
2.503152e+03,2.979145e+03
2.506044e+03,2.936449e+03
2.508937e+03,2.955540e+03
2.511830e+03,2.955092e+03
2.514722e+03,2.951062e+03
2.517615e+03,2.929644e+03
2.520508e+03,2.919445e+03
2.523401e+03,2.925084e+03
2.526293e+03,2.882607e+03
2.529186e+03,2.875091e+03
2.532079e+03,2.925918e+03
2.534971e+03,2.880603e+03
2.537864e+03,2.861746e+03
2.540757e+03,2.859676e+03
2.543649e+03,2.869781e+03
2.546542e+03,2.872846e+03
2.549435e+03,2.851927e+03
2.552328e+03,2.846161e+03
2.555220e+03,2.841053e+03
2.558113e+03,2.833511e+03
2.561006e+03,2.829761e+03
2.563898e+03,2.803016e+03
2.566791e+03,2.815642e+03
2.569684e+03,2.813197e+03
2.572576e+03,2.781894e+03
2.575469e+03,2.800623e+03
2.578362e+03,2.801998e+03
2.581255e+03,2.766246e+03
2.584147e+03,2.756088e+03
2.587040e+03,2.750369e+03
2.589933e+03,2.748609e+03
2.592825e+03,2.745970e+03
2.595718e+03,2.725302e+03
2.598611e+03,2.730042e+03
2.601503e+03,2.700970e+03
2.604396e+03,2.723331e+03
2.607289e+03,2.683637e+03
2.610182e+03,2.705113e+03
2.613074e+03,2.700573e+03
2.615967e+03,2.649938e+03
2.618860e+03,2.682338e+03
2.621752e+03,2.657965e+03
2.624645e+03,2.650200e+03
2.627538e+03,2.656684e+03
2.630430e+03,2.662503e+03
2.633323e+03,2.635175e+03
2.636216e+03,2.666303e+03
2.639109e+03,2.642073e+03
2.642001e+03,2.628368e+03
2.644894e+03,2.606005e+03
2.647787e+03,2.608896e+03
2.650679e+03,2.615517e+03
2.653572e+03,2.614965e+03
2.656465e+03,2.580774e+03
2.659357e+03,2.553922e+03
2.662250e+03,2.598512e+03
2.665143e+03,2.566003e+03
2.668036e+03,2.574694e+03
2.670928e+03,2.564344e+03
2.673821e+03,2.572223e+03
2.676714e+03,2.526099e+03
2.679606e+03,2.523781e+03
2.682499e+03,2.536129e+03
2.685392e+03,2.525667e+03
2.688284e+03,2.508037e+03
2.691177e+03,2.509285e+03
2.694070e+03,2.488842e+03
2.696963e+03,2.511052e+03
2.699855e+03,2.507601e+03
2.702748e+03,2.498429e+03
2.705641e+03,2.494980e+03
2.708533e+03,2.472360e+03
2.711426e+03,2.467207e+03
2.714319e+03,2.460312e+03
2.717211e+03,2.464490e+03
2.720104e+03,2.441280e+03
2.722997e+03,2.433694e+03
2.725890e+03,2.424301e+03
2.728782e+03,2.437095e+03
2.731675e+03,2.417744e+03
2.734568e+03,2.437114e+03
2.737460e+03,2.402031e+03
2.740353e+03,2.377870e+03
2.743246e+03,2.410734e+03
2.746138e+03,2.395636e+03
2.749031e+03,2.407384e+03
2.751924e+03,2.388528e+03
2.754817e+03,2.374371e+03
2.757709e+03,2.360888e+03
2.760602e+03,2.366743e+03
2.763495e+03,2.358301e+03
2.766387e+03,2.361146e+03
2.769280e+03,2.340928e+03
2.772173e+03,2.345565e+03
2.775065e+03,2.316593e+03
2.777958e+03,2.369432e+03
2.780851e+03,2.331938e+03
2.783744e+03,2.339585e+03
2.786636e+03,2.305059e+03
2.789529e+03,2.339927e+03
2.792422e+03,2.291609e+03
2.795314e+03,2.283240e+03
2.798207e+03,2.310894e+03
2.801100e+03,2.290564e+03
2.803992e+03,2.276495e+03
2.806885e+03,2.298947e+03
2.809778e+03,2.270366e+03
2.812671e+03,2.253853e+03
2.815563e+03,2.276289e+03
2.818456e+03,2.240574e+03
2.821349e+03,2.259822e+03
2.824241e+03,2.254729e+03
2.827134e+03,2.242168e+03
2.830027e+03,2.278695e+03
2.832919e+03,2.234411e+03
2.835812e+03,2.256358e+03
2.838705e+03,2.251776e+03
2.841598e+03,2.203873e+03
2.844490e+03,2.221089e+03
2.847383e+03,2.244471e+03
2.850276e+03,2.244281e+03
2.853168e+03,2.231754e+03
2.856061e+03,2.224065e+03
2.858954e+03,2.200365e+03
2.861846e+03,2.202028e+03
2.864739e+03,2.202919e+03
2.867632e+03,2.220464e+03
2.870525e+03,2.199392e+03
2.873417e+03,2.198367e+03
2.876310e+03,2.184424e+03
2.879203e+03,2.216233e+03
2.882095e+03,2.192994e+03
2.884988e+03,2.181770e+03
2.887881e+03,2.167590e+03
2.890773e+03,2.150542e+03
2.893666e+03,2.178645e+03
2.896559e+03,2.181555e+03
2.899452e+03,2.162782e+03
2.902344e+03,2.168253e+03
2.905237e+03,2.148284e+03
2.908130e+03,2.179980e+03
2.911022e+03,2.151565e+03
2.913915e+03,2.152650e+03
2.916808e+03,2.163276e+03
2.919700e+03,2.120690e+03
2.922593e+03,2.130478e+03
2.925486e+03,2.161094e+03
2.928379e+03,2.125484e+03
2.931271e+03,2.099051e+03
2.934164e+03,2.092740e+03
2.937057e+03,2.091200e+03
2.939949e+03,2.121055e+03
2.942842e+03,2.053996e+03
2.945735e+03,2.041353e+03
2.948627e+03,2.123601e+03
2.951520e+03,2.114927e+03
2.954413e+03,2.056860e+03
2.957306e+03,2.092984e+03
2.960198e+03,2.057347e+03
2.963091e+03,2.060244e+03
2.965984e+03,2.081267e+03
2.968876e+03,2.051001e+03
2.971769e+03,2.059135e+03
2.974662e+03,2.027900e+03
2.977554e+03,2.080198e+03
2.980447e+03,2.039229e+03
2.983340e+03,2.058519e+03
2.986233e+03,2.016407e+03
2.989125e+03,1.982686e+03
2.992018e+03,2.020326e+03
2.994911e+03,2.001308e+03
2.997803e+03,1.998349e+03
3.000696e+03,1.974111e+03
3.003589e+03,1.995406e+03
3.006481e+03,2.014741e+03
3.009374e+03,2.025011e+03
3.012267e+03,2.007617e+03
3.015160e+03,2.031528e+03
3.018052e+03,1.973805e+03
3.020945e+03,2.022806e+03
3.023838e+03,1.998357e+03
3.026730e+03,1.965692e+03
3.029623e+03,1.972875e+03
3.032516e+03,1.968467e+03
3.035408e+03,1.949536e+03
3.038301e+03,1.974176e+03
3.041194e+03,1.958820e+03
3.044087e+03,1.907787e+03
3.046979e+03,1.966010e+03
3.049872e+03,1.965037e+03
3.052765e+03,1.976217e+03
3.055657e+03,1.968959e+03
3.058550e+03,2.000637e+03
3.061443e+03,1.979314e+03
3.064335e+03,1.954669e+03
3.067228e+03,1.889422e+03
3.070121e+03,1.955856e+03
3.073014e+03,1.928189e+03
3.075906e+03,1.928381e+03
3.078799e+03,1.970451e+03
3.081692e+03,1.982778e+03
3.084584e+03,1.951551e+03
3.087477e+03,1.919631e+03
3.090370e+03,1.929588e+03
3.093262e+03,1.886589e+03
3.096155e+03,1.934494e+03
3.099048e+03,1.934334e+03
3.101941e+03,1.937928e+03
3.104833e+03,1.935190e+03
3.107726e+03,1.931057e+03
3.110619e+03,1.953425e+03
3.113511e+03,1.893590e+03
3.116404e+03,1.927926e+03
3.119297e+03,1.905850e+03
3.122189e+03,1.931150e+03
3.125082e+03,1.908674e+03
3.127975e+03,1.945293e+03
3.130868e+03,1.901714e+03
3.133760e+03,2.000324e+03
3.136653e+03,1.906591e+03
3.139546e+03,1.902889e+03
3.142438e+03,1.892278e+03
3.145331e+03,1.880343e+03
3.148224e+03,1.886498e+03
3.151116e+03,1.975459e+03
3.154009e+03,1.936391e+03
3.156902e+03,1.891598e+03
3.159795e+03,1.918446e+03
3.162687e+03,1.924638e+03
3.165580e+03,1.892552e+03
3.168473e+03,1.978857e+03
3.171365e+03,1.903257e+03
3.174258e+03,1.917271e+03
3.177151e+03,1.870492e+03
3.180043e+03,1.905224e+03
3.182936e+03,1.910926e+03
3.185829e+03,1.880249e+03
3.188722e+03,1.948690e+03
3.191614e+03,1.912864e+03
3.194507e+03,1.962311e+03
3.197400e+03,1.939160e+03
3.200292e+03,1.944367e+03
3.203185e+03,0.000000e+00
3.206078e+03,0.000000e+00
3.208970e+03,0.000000e+00
3.211863e+03,0.000000e+00
3.214756e+03,0.000000e+00
3.217649e+03,0.000000e+00
3.220541e+03,0.000000e+00
3.223434e+03,0.000000e+00
3.226327e+03,0.000000e+00
3.229219e+03,0.000000e+00
3.232112e+03,0.000000e+00
3.235005e+03,0.000000e+00
3.237897e+03,0.000000e+00
3.240790e+03,0.000000e+00
3.243683e+03,0.000000e+00
3.246576e+03,0.000000e+00
3.249468e+03,0.000000e+00
3.252361e+03,0.000000e+00
3.255254e+03,0.000000e+00
3.258146e+03,0.000000e+00
3.261039e+03,0.000000e+00
3.263932e+03,0.000000e+00
3.266824e+03,0.000000e+00
3.269717e+03,0.000000e+00
3.272610e+03,0.000000e+00
3.275503e+03,0.000000e+00
3.278395e+03,0.000000e+00
3.281288e+03,0.000000e+00
3.284181e+03,0.000000e+00
3.287073e+03,0.000000e+00
3.289966e+03,0.000000e+00
3.292859e+03,0.000000e+00
3.295751e+03,0.000000e+00
3.298644e+03,0.000000e+00
3.301537e+03,0.000000e+00
3.304430e+03,0.000000e+00
3.307322e+03,0.000000e+00
3.310215e+03,0.000000e+00
3.313108e+03,0.000000e+00
3.316000e+03,0.000000e+00
3.318893e+03,0.000000e+00
3.321786e+03,0.000000e+00
3.324678e+03,0.000000e+00
3.327571e+03,0.000000e+00
3.330464e+03,0.000000e+00
3.333357e+03,0.000000e+00
3.336249e+03,0.000000e+00
3.339142e+03,0.000000e+00
3.342035e+03,0.000000e+00
3.344927e+03,0.000000e+00
3.347820e+03,0.000000e+00
3.350713e+03,0.000000e+00
3.353605e+03,0.000000e+00
3.356498e+03,0.000000e+00
3.359391e+03,0.000000e+00
3.362284e+03,0.000000e+00
3.365176e+03,0.000000e+00
3.368069e+03,0.000000e+00
3.370962e+03,0.000000e+00
3.373854e+03,0.000000e+00
3.376747e+03,0.000000e+00
3.379640e+03,0.000000e+00
3.382532e+03,0.000000e+00
3.385425e+03,0.000000e+00
3.388318e+03,0.000000e+00
3.391211e+03,0.000000e+00
3.394103e+03,0.000000e+00
3.396996e+03,0.000000e+00
3.399889e+03,0.000000e+00
3.402781e+03,0.000000e+00
3.405674e+03,0.000000e+00
3.408567e+03,0.000000e+00
3.411459e+03,0.000000e+00
3.414352e+03,0.000000e+00
3.417245e+03,0.000000e+00
3.420138e+03,0.000000e+00
3.423030e+03,0.000000e+00
3.425923e+03,0.000000e+00
3.428816e+03,0.000000e+00
3.431708e+03,0.000000e+00
3.434601e+03,0.000000e+00
3.437494e+03,0.000000e+00
3.440386e+03,0.000000e+00
3.443279e+03,0.000000e+00
3.446172e+03,0.000000e+00
3.449065e+03,0.000000e+00
3.451957e+03,0.000000e+00
3.454850e+03,0.000000e+00
3.457743e+03,0.000000e+00
3.460635e+03,0.000000e+00
3.463528e+03,0.000000e+00
3.466421e+03,0.000000e+00
3.469313e+03,0.000000e+00
3.472206e+03,0.000000e+00
3.475099e+03,0.000000e+00
3.477992e+03,0.000000e+00
3.480884e+03,0.000000e+00
3.483777e+03,0.000000e+00
3.486670e+03,0.000000e+00
3.489563e+03,0.000000e+00
3.492455e+03,0.000000e+00
3.495348e+03,0.000000e+00
3.498240e+03,0.000000e+00
3.500169e+03,0.000000e+00