File: RAMAN_data/13042023_r2/white frag1.CSV
9.931763e+01,0.000000e+00
1.022103e+02,0.000000e+00
1.051030e+02,0.000000e+00
1.079957e+02,0.000000e+00
1.108884e+02,0.000000e+00
1.137811e+02,0.000000e+00
1.166738e+02,0.000000e+00
1.195665e+02,0.000000e+00
1.224592e+02,0.000000e+00
1.253519e+02,0.000000e+00
1.282446e+02,0.000000e+00
1.311373e+02,0.000000e+00
1.340300e+02,0.000000e+00
1.369227e+02,0.000000e+00
1.398154e+02,0.000000e+00
1.427081e+02,0.000000e+00
1.456008e+02,0.000000e+00
1.484935e+02,0.000000e+00
1.513862e+02,0.000000e+00
1.542789e+02,0.000000e+00
1.571716e+02,0.000000e+00
1.600643e+02,0.000000e+00
1.629570e+02,0.000000e+00
1.658497e+02,0.000000e+00
1.687424e+02,0.000000e+00
1.716351e+02,0.000000e+00
1.745278e+02,0.000000e+00
1.774205e+02,0.000000e+00
1.803132e+02,0.000000e+00
1.832059e+02,0.000000e+00
1.860986e+02,0.000000e+00
1.889913e+02,0.000000e+00
1.918840e+02,0.000000e+00
1.947767e+02,0.000000e+00
1.976694e+02,0.000000e+00
2.005621e+02,4.149483e+03
2.034548e+02,4.182965e+03
2.063475e+02,4.169651e+03
2.092402e+02,4.152810e+03
2.121329e+02,4.153023e+03
2.150256e+02,4.141280e+03
2.179183e+02,4.138267e+03
2.208110e+02,4.130984e+03
2.237037e+02,4.127958e+03
2.265964e+02,4.116173e+03
2.294892e+02,4.110948e+03
2.323819e+02,4.115251e+03
2.352746e+02,4.118089e+03
2.381673e+02,4.114259e+03
2.410600e+02,4.105323e+03
2.439527e+02,4.092417e+03
2.468454e+02,4.107769e+03
2.497381e+02,4.123966e+03
2.526308e+02,4.125771e+03
2.555235e+02,4.107225e+03
2.584161e+02,4.100691e+03
2.613088e+02,4.104228e+03
2.642015e+02,4.098177e+03
2.670942e+02,4.105317e+03
2.699869e+02,4.120970e+03
2.728796e+02,4.109288e+03
2.757723e+02,4.104250e+03
2.786650e+02,4.087740e+03
2.815577e+02,4.101187e+03
2.844504e+02,4.099890e+03
2.873431e+02,4.089579e+03
2.902358e+02,4.085176e+03
2.931285e+02,4.070374e+03
2.960212e+02,4.063610e+03
2.989139e+02,4.083300e+03
3.018066e+02,4.074535e+03
3.046993e+02,4.062297e+03
3.075920e+02,4.054806e+03
3.104847e+02,4.056004e+03
3.133774e+02,4.065734e+03
3.162701e+02,4.042493e+03
3.191628e+02,4.043069e+03
3.220555e+02,4.039322e+03
3.249482e+02,4.048162e+03
3.278409e+02,4.032602e+03
3.307336e+02,4.026416e+03
3.336263e+02,4.017681e+03
3.365190e+02,4.009002e+03
3.394117e+02,4.017074e+03
3.423044e+02,4.014179e+03
3.451971e+02,4.027150e+03
3.480898e+02,4.002807e+03
3.509825e+02,3.990620e+03
3.538752e+02,4.010023e+03
3.567680e+02,4.004783e+03
3.596607e+02,4.009431e+03
3.625534e+02,4.014499e+03
3.654461e+02,3.966799e+03
3.683388e+02,3.968883e+03
3.712315e+02,3.984243e+03
3.741242e+02,3.998651e+03
3.770169e+02,3.989099e+03
3.799096e+02,3.981993e+03
3.828023e+02,3.974670e+03
3.856950e+02,3.971274e+03
3.885877e+02,3.971409e+03
3.914804e+02,3.980769e+03
3.943731e+02,3.954442e+03
3.972658e+02,3.961367e+03
4.001585e+02,3.920430e+03
4.030512e+02,3.941559e+03
4.059439e+02,3.939157e+03
4.088366e+02,3.937243e+03
4.117293e+02,3.927283e+03
4.146220e+02,3.920609e+03
4.175147e+02,3.909939e+03
4.204074e+02,3.911465e+03
4.233001e+02,3.904546e+03
4.261928e+02,3.917593e+03
4.290855e+02,3.900531e+03
4.319782e+02,3.894761e+03
4.348709e+02,3.893134e+03
4.377636e+02,3.908980e+03
4.406563e+02,3.896869e+03
4.435490e+02,3.857610e+03
4.464417e+02,3.867657e+03
4.493344e+02,3.884891e+03
4.522271e+02,3.877316e+03
4.551198e+02,3.850668e+03
4.580125e+02,3.855278e+03
4.609052e+02,3.861623e+03
4.637979e+02,3.845929e+03
4.666906e+02,3.849373e+03
4.695833e+02,3.847450e+03
4.724760e+02,3.841293e+03
4.753687e+02,3.830252e+03
4.782614e+02,3.825570e+03
4.811541e+02,3.824168e+03
4.840468e+02,3.830543e+03
4.869395e+02,3.826797e+03
4.898322e+02,3.818071e+03
4.927249e+02,3.828370e+03
4.956176e+02,3.806272e+03
4.985103e+02,3.802591e+03
5.014030e+02,3.817520e+03
5.042957e+02,3.786839e+03
5.071884e+02,3.791300e+03
5.100811e+02,3.792686e+03
5.129738e+02,3.796229e+03
5.158665e+02,3.780161e+03
5.187592e+02,3.778818e+03
5.216519e+02,3.774844e+03
5.245446e+02,3.773555e+03
5.274373e+02,3.762365e+03
5.303300e+02,3.775753e+03
5.332227e+02,3.754492e+03
5.361154e+02,3.755401e+03
5.390081e+02,3.752861e+03
5.419008e+02,3.761840e+03
5.447935e+02,3.742067e+03
5.476862e+02,3.737737e+03
5.505789e+02,3.739378e+03
5.534716e+02,3.709551e+03
5.563643e+02,3.728066e+03
5.592570e+02,3.733554e+03
5.621497e+02,3.719669e+03
5.650424e+02,3.711852e+03
5.679351e+02,3.717751e+03
5.708278e+02,3.675098e+03
5.737205e+02,3.680003e+03
5.766132e+02,3.709519e+03
5.795059e+02,3.692661e+03
5.823986e+02,3.690798e+03
5.852913e+02,3.681593e+03
5.881840e+02,3.685045e+03
5.910767e+02,3.685486e+03
5.939694e+02,3.678645e+03
5.968621e+02,3.668687e+03
5.997548e+02,3.668198e+03
6.026475e+02,3.665991e+03
6.055402e+02,3.666429e+03
6.084329e+02,3.651351e+03
6.113256e+02,3.635694e+03
6.142183e+02,3.627873e+03
6.171110e+02,3.633019e+03
6.200037e+02,3.621833e+03
6.228964e+02,3.612449e+03
6.257891e+02,3.642250e+03
6.286818e+02,3.621936e+03
6.315745e+02,3.602267e+03
6.344672e+02,3.613224e+03
6.373599e+02,3.602210e+03
6.402526e+02,3.608944e+03
6.431453e+02,3.596394e+03
6.460380e+02,3.590959e+03
6.489307e+02,3.584915e+03
6.518234e+02,3.583989e+03
6.547161e+02,3.589442e+03
6.576088e+02,3.568698e+03
6.605015e+02,3.563565e+03
6.633942e+02,3.571566e+03
6.662869e+02,3.553978e+03
6.691796e+02,3.552956e+03
6.720723e+02,3.551482e+03
6.749650e+02,3.538202e+03
6.778577e+02,3.555444e+03
6.807504e+02,3.538350e+03
6.836431e+02,3.549717e+03
6.865358e+02,3.543651e+03
6.894285e+02,3.529100e+03
6.923212e+02,3.536890e+03
6.952139e+02,3.515326e+03
6.981066e+02,3.525678e+03
7.009993e+02,3.532859e+03
7.038920e+02,3.522896e+03
7.067847e+02,3.503535e+03
7.096774e+02,3.496527e+03
7.125701e+02,3.493832e+03
7.154628e+02,3.467833e+03
7.183555e+02,3.466110e+03
7.212482e+02,3.473923e+03
7.241409e+02,3.470125e+03
7.270336e+02,3.469778e+03
7.299263e+02,3.464356e+03
7.328190e+02,3.468664e+03
7.357117e+02,3.455029e+03
7.386044e+02,3.440521e+03
7.414971e+02,3.436626e+03
7.443898e+02,3.444202e+03
7.472825e+02,3.436628e+03
7.501752e+02,3.433181e+03
7.530679e+02,3.437360e+03
7.559606e+02,3.421339e+03
7.588533e+02,3.441460e+03
7.617460e+02,3.423949e+03
7.646387e+02,3.428725e+03
7.675314e+02,3.406390e+03
7.704241e+02,3.412286e+03
7.733168e+02,3.401319e+03
7.762095e+02,3.405831e+03
7.791022e+02,3.399974e+03
7.819949e+02,3.398391e+03
7.848876e+02,3.387719e+03
7.877803e+02,3.385339e+03
7.906730e+02,3.372203e+03
7.935657e+02,3.370801e+03
7.964584e+02,3.358281e+03
7.993511e+02,3.362965e+03
8.022438e+02,3.352955e+03
8.051365e+02,3.373390e+03
8.080292e+02,3.352181e+03
8.109219e+02,3.351130e+03
8.138146e+02,3.350726e+03
8.167073e+02,3.335038e+03
8.196000e+02,3.327039e+03
8.224927e+02,3.340370e+03
8.253854e+02,3.329276e+03
8.282781e+02,3.316380e+03
8.311708e+02,3.315475e+03
8.340635e+02,3.343420e+03
8.369562e+02,3.316695e+03
8.398489e+02,3.310523e+03
8.427416e+02,3.286476e+03
8.456343e+02,3.276548e+03
8.485270e+02,3.294105e+03
8.514197e+02,3.286519e+03
8.543124e+02,3.287769e+03
8.572051e+02,3.281418e+03
8.600978e+02,3.273592e+03
8.629905e+02,3.278111e+03
8.658832e+02,3.279606e+03
8.687759e+02,3.272359e+03
8.716686e+02,3.249894e+03
8.745613e+02,3.268267e+03
8.774540e+02,3.261792e+03
8.803467e+02,3.243822e+03
8.832394e+02,3.262572e+03
8.861321e+02,3.262909e+03
8.890248e+02,3.253300e+03
8.919175e+02,3.243692e+03
8.948102e+02,3.226225e+03
8.977029e+02,3.217523e+03
9.005956e+02,3.229439e+03
9.034883e+02,3.236210e+03
9.063810e+02,3.215394e+03
9.092737e+02,3.222993e+03
9.121664e+02,3.207673e+03
9.150591e+02,3.204113e+03
9.179518e+02,3.199458e+03
9.208445e+02,3.180119e+03
9.237372e+02,3.197114e+03
9.266299e+02,3.191169e+03
9.295226e+02,3.187406e+03
9.324153e+02,3.183815e+03
9.353080e+02,3.185903e+03
9.382007e+02,3.173626e+03
9.410934e+02,3.162798e+03
9.439861e+02,3.164990e+03
9.468788e+02,3.153503e+03
9.497715e+02,3.167899e+03
9.526642e+02,3.159113e+03
9.555569e+02,3.154138e+03
9.584496e+02,3.145181e+03
9.613423e+02,3.132530e+03
9.642350e+02,3.134735e+03
9.671277e+02,3.145863e+03
9.700204e+02,3.141229e+03
9.729131e+02,3.123993e+03
9.758058e+02,3.128835e+03
9.786985e+02,3.125266e+03
9.815912e+02,3.120499e+03
9.844839e+02,3.112996e+03
9.873766e+02,3.114872e+03
9.902693e+02,3.107569e+03
9.931620e+02,3.118933e+03
9.960547e+02,3.113142e+03
9.989474e+02,3.122254e+03
1.001840e+03,3.091012e+03
1.004733e+03,3.083642e+03
1.007626e+03,3.079915e+03
1.010518e+03,3.082708e+03
1.013411e+03,3.080460e+03
1.016304e+03,3.070054e+03
1.019196e+03,3.066534e+03
1.022089e+03,3.067612e+03
1.024982e+03,3.077031e+03
1.027875e+03,3.058945e+03
1.030767e+03,3.052052e+03
1.033660e+03,3.056389e+03
1.036552e+03,3.051687e+03
1.039445e+03,3.072808e+03
1.042338e+03,3.051801e+03
1.045231e+03,3.047228e+03
1.048123e+03,3.048981e+03
1.051016e+03,3.027373e+03
1.053909e+03,3.049658e+03
1.056802e+03,3.051233e+03
1.059694e+03,3.034628e+03
1.062587e+03,3.013053e+03
1.065479e+03,3.012870e+03
1.068372e+03,3.027297e+03
1.071265e+03,3.037496e+03
1.074158e+03,3.020675e+03
1.077050e+03,3.028718e+03
1.079943e+03,3.072826e+03
1.082836e+03,3.167729e+03
1.085729e+03,3.146498e+03
1.088621e+03,3.053486e+03
1.091514e+03,3.021161e+03
1.094406e+03,3.000113e+03
1.097299e+03,2.996890e+03
1.100192e+03,3.012962e+03
1.103085e+03,3.005148e+03
1.105977e+03,3.022121e+03
1.108870e+03,3.009571e+03
1.111763e+03,2.998932e+03
1.114656e+03,2.995448e+03
1.117548e+03,2.997644e+03
1.120441e+03,2.970794e+03
1.123334e+03,2.984945e+03
1.126226e+03,2.956004e+03
1.129119e+03,2.965362e+03
1.132012e+03,2.958469e+03
1.134904e+03,2.959369e+03
1.137797e+03,2.942382e+03
1.140690e+03,2.970908e+03
1.143583e+03,2.976633e+03
1.146475e+03,2.969091e+03
1.149368e+03,2.968347e+03
1.152261e+03,2.955902e+03
1.155153e+03,2.942414e+03
1.158046e+03,2.939689e+03
1.160939e+03,2.945326e+03
1.163831e+03,2.954255e+03
1.166724e+03,2.954172e+03
1.169617e+03,2.956022e+03
1.172510e+03,2.942128e+03
1.175402e+03,2.932165e+03
1.178295e+03,2.932998e+03
1.181188e+03,2.938390e+03
1.184080e+03,2.922423e+03
1.186973e+03,2.924248e+03
1.189866e+03,2.921192e+03
1.192758e+03,2.941523e+03
1.195651e+03,2.924300e+03
1.198544e+03,2.916973e+03
1.201437e+03,2.913023e+03
1.204329e+03,2.923378e+03
1.207222e+03,2.926652e+03
1.210115e+03,2.914583e+03
1.213007e+03,2.906024e+03
1.215900e+03,2.913998e+03
1.218793e+03,2.904672e+03
1.221685e+03,2.906884e+03
1.224578e+03,2.913810e+03
1.227471e+03,2.913845e+03
1.230364e+03,2.907792e+03
1.233256e+03,2.904159e+03
1.236149e+03,2.916035e+03
1.239042e+03,2.924871e+03
1.241934e+03,2.913586e+03
1.244827e+03,2.918327e+03
1.247720e+03,2.886251e+03
1.250612e+03,2.898799e+03
1.253505e+03,2.902383e+03
1.256398e+03,2.891315e+03
1.259291e+03,2.898832e+03
1.262183e+03,2.893613e+03
1.265076e+03,2.880066e+03
1.267969e+03,2.875307e+03
1.270861e+03,2.878706e+03
1.273754e+03,2.886809e+03
1.276647e+03,2.877270e+03
1.279539e+03,2.880354e+03
1.282432e+03,2.861364e+03
1.285325e+03,2.866271e+03
1.288218e+03,2.882031e+03
1.291110e+03,2.885809e+03
1.294003e+03,2.861437e+03
1.296896e+03,2.854336e+03
1.299788e+03,2.860624e+03
1.302681e+03,2.867366e+03
1.305574e+03,2.864351e+03
1.308466e+03,2.856380e+03
1.311359e+03,2.860731e+03
1.314252e+03,2.845054e+03
1.317145e+03,2.856130e+03
1.320037e+03,2.849808e+03
1.322930e+03,2.855472e+03
1.325823e+03,2.848833e+03
1.328715e+03,2.847312e+03
1.331608e+03,2.855838e+03
1.334501e+03,2.853592e+03
1.337393e+03,2.841280e+03
1.340286e+03,2.840372e+03
1.343179e+03,2.836287e+03
1.346072e+03,2.842487e+03
1.348964e+03,2.820298e+03
1.351857e+03,2.835524e+03
1.354750e+03,2.814420e+03
1.357642e+03,2.797144e+03
1.360535e+03,2.803917e+03
1.363428e+03,2.818827e+03
1.366320e+03,2.831065e+03
1.369213e+03,2.808184e+03
1.372106e+03,2.817971e+03
1.374999e+03,2.793033e+03
1.377891e+03,2.785177e+03
1.380784e+03,2.781251e+03
1.383677e+03,2.801237e+03
1.386569e+03,2.787083e+03
1.389462e+03,2.778019e+03
1.392355e+03,2.775651e+03
1.395247e+03,2.767652e+03
1.398140e+03,2.775363e+03
1.401033e+03,2.778913e+03
1.403926e+03,2.769194e+03
1.406818e+03,2.746059e+03
1.409711e+03,2.754004e+03
1.412604e+03,2.767628e+03
1.415496e+03,2.744539e+03
1.418389e+03,2.757282e+03
1.421282e+03,2.733895e+03
1.424174e+03,2.750241e+03
1.427067e+03,2.742998e+03
1.429960e+03,2.741658e+03
1.432853e+03,2.742413e+03
1.435745e+03,2.728288e+03
1.438638e+03,2.733407e+03
1.441531e+03,2.722220e+03
1.444423e+03,2.734320e+03
1.447316e+03,2.724078e+03
1.450209e+03,2.712094e+03
1.453101e+03,2.712775e+03
1.455994e+03,2.699034e+03
1.458887e+03,2.715930e+03
1.461780e+03,2.714281e+03
1.464672e+03,2.699509e+03
1.467565e+03,2.693490e+03
1.470458e+03,2.689046e+03
1.473350e+03,2.681267e+03
1.476243e+03,2.699557e+03
1.479136e+03,2.696164e+03
1.482028e+03,2.692095e+03
1.484921e+03,2.694424e+03
1.487814e+03,2.710791e+03
1.490707e+03,2.692350e+03
1.493599e+03,2.682963e+03
1.496492e+03,2.684395e+03
1.499385e+03,2.675730e+03
1.502277e+03,2.667771e+03
1.505170e+03,2.674774e+03
1.508063e+03,2.663351e+03
1.510955e+03,2.645800e+03
1.513848e+03,2.666016e+03
1.516741e+03,2.645345e+03
1.519634e+03,2.662226e+03
1.522526e+03,2.645709e+03
1.525419e+03,2.631894e+03
1.528312e+03,2.643917e+03
1.531204e+03,2.654514e+03
1.534097e+03,2.631987e+03
1.536990e+03,2.638203e+03
1.539882e+03,2.615035e+03
1.542775e+03,2.629327e+03
1.545668e+03,2.619093e+03
1.548561e+03,2.628079e+03
1.551453e+03,2.611213e+03
1.554346e+03,2.634209e+03
1.557239e+03,2.628958e+03
1.560131e+03,2.610389e+03
1.563024e+03,2.616545e+03
1.565917e+03,2.622005e+03
1.568809e+03,2.618455e+03
1.571702e+03,2.608022e+03
1.574595e+03,2.615489e+03
1.577488e+03,2.614964e+03
1.580380e+03,2.604863e+03
1.583273e+03,2.602987e+03
1.586166e+03,2.616276e+03
1.589058e+03,2.605780e+03
1.591951e+03,2.592528e+03
1.594844e+03,2.594163e+03
1.597736e+03,2.583448e+03
1.600629e+03,2.585565e+03
1.603522e+03,2.593317e+03
1.606415e+03,2.578846e+03
1.609307e+03,2.588202e+03
1.612200e+03,2.572788e+03
1.615093e+03,2.559616e+03
1.617985e+03,2.562153e+03
1.620878e+03,2.552935e+03
1.623771e+03,2.539468e+03
1.626663e+03,2.535701e+03
1.629556e+03,2.522733e+03
1.632449e+03,2.513838e+03
1.635342e+03,2.528506e+03
1.638234e+03,2.501316e+03
1.641127e+03,2.521245e+03
1.644020e+03,2.499771e+03
1.646912e+03,2.506149e+03
1.649805e+03,2.486440e+03
1.652698e+03,2.495020e+03
1.655590e+03,2.492535e+03
1.658483e+03,2.481368e+03
1.661376e+03,2.473976e+03
1.664269e+03,2.474894e+03
1.667161e+03,2.485511e+03
1.670054e+03,2.462519e+03
1.672947e+03,2.446917e+03
1.675839e+03,2.462247e+03
1.678732e+03,2.458303e+03
1.681625e+03,2.443116e+03
1.684517e+03,2.451886e+03
1.687410e+03,2.450309e+03
1.690303e+03,2.445173e+03
1.693196e+03,2.439712e+03
1.696088e+03,2.434196e+03
1.698981e+03,2.414651e+03
1.701874e+03,2.432061e+03
1.704766e+03,2.424347e+03
1.707659e+03,2.410945e+03
1.710552e+03,2.416617e+03
1.713444e+03,2.408885e+03
1.716337e+03,2.404753e+03
1.719230e+03,2.413697e+03
1.722123e+03,2.394421e+03
1.725015e+03,2.379382e+03
1.727908e+03,2.385394e+03
1.730801e+03,2.372302e+03
1.733693e+03,2.377315e+03
1.736586e+03,2.378076e+03
1.739479e+03,2.348808e+03
1.742371e+03,2.363170e+03
1.745264e+03,2.361050e+03
1.748157e+03,2.365676e+03
1.751050e+03,2.372323e+03
1.753942e+03,2.343938e+03
1.756835e+03,2.353415e+03
1.759728e+03,2.350062e+03
1.762620e+03,2.341554e+03
1.765513e+03,2.345009e+03
1.768406e+03,2.316379e+03
1.771298e+03,2.323804e+03
1.774191e+03,2.314124e+03
1.777084e+03,2.318275e+03
1.779977e+03,2.304508e+03
1.782869e+03,2.318125e+03
1.785762e+03,2.305348e+03
1.788655e+03,2.298526e+03
1.791547e+03,2.291100e+03
1.794440e+03,2.271355e+03
1.797333e+03,2.299473e+03
1.800225e+03,2.287026e+03
1.803118e+03,2.272208e+03
1.806011e+03,2.275504e+03
1.808904e+03,2.268082e+03
1.811796e+03,2.274784e+03
1.814689e+03,2.260484e+03
1.817582e+03,2.262079e+03
1.820474e+03,2.255016e+03
1.823367e+03,2.252276e+03
1.826260e+03,2.238570e+03
1.829152e+03,2.251644e+03
1.832045e+03,2.252272e+03
1.834938e+03,2.224676e+03
1.837831e+03,2.226395e+03
1.840723e+03,2.209752e+03
1.843616e+03,2.219647e+03
1.846509e+03,2.217979e+03
1.849401e+03,2.196494e+03
1.852294e+03,2.207552e+03
1.855187e+03,2.187424e+03
1.858079e+03,2.194318e+03
1.860972e+03,2.194497e+03
1.863865e+03,2.188223e+03
1.866758e+03,2.183987e+03
1.869650e+03,2.179489e+03
1.872543e+03,2.166281e+03
1.875436e+03,2.159956e+03
1.878328e+03,2.173122e+03
1.881221e+03,2.169446e+03
1.884114e+03,2.149401e+03
1.887006e+03,2.131706e+03
1.889899e+03,2.155837e+03
1.892792e+03,2.137398e+03
1.895685e+03,2.137039e+03
1.898577e+03,2.126815e+03
1.901470e+03,2.143935e+03
1.904363e+03,2.128262e+03
1.907255e+03,2.131964e+03
1.910148e+03,2.092784e+03
1.913041e+03,2.122245e+03
1.915933e+03,2.114150e+03
1.918826e+03,2.084101e+03
1.921719e+03,2.098285e+03
1.924612e+03,2.088812e+03
1.927504e+03,2.084807e+03
1.930397e+03,2.071526e+03
1.933290e+03,2.086575e+03
1.936182e+03,2.082984e+03
1.939075e+03,2.063419e+03
1.941968e+03,2.068713e+03
1.944860e+03,2.048058e+03
1.947753e+03,2.063882e+03
1.950646e+03,2.078112e+03
1.953539e+03,2.054996e+03
1.956431e+03,2.037170e+03
1.959324e+03,2.036518e+03
1.962217e+03,2.041998e+03
1.965109e+03,2.011387e+03
1.968002e+03,2.031227e+03
1.970895e+03,2.010268e+03
1.973787e+03,2.037912e+03
1.976680e+03,2.012509e+03
1.979573e+03,2.017186e+03
1.982466e+03,2.016114e+03
1.985358e+03,2.015345e+03
1.988251e+03,2.002407e+03
1.991144e+03,1.971490e+03
1.994036e+03,1.985810e+03
1.996929e+03,2.001832e+03
1.999822e+03,1.982500e+03
2.002714e+03,1.969658e+03
2.005607e+03,1.985621e+03
2.008500e+03,1.970804e+03
2.011393e+03,1.955024e+03
2.014285e+03,1.962676e+03
2.017178e+03,1.945285e+03
2.020071e+03,1.938761e+03
2.022963e+03,1.953273e+03
2.025856e+03,1.938449e+03
2.028749e+03,1.946929e+03
2.031641e+03,1.926195e+03
2.034534e+03,1.918476e+03
2.037427e+03,1.940538e+03
2.040320e+03,1.914066e+03
2.043212e+03,1.907547e+03
2.046105e+03,1.909814e+03
2.048998e+03,1.916512e+03
2.051890e+03,1.901404e+03
2.054783e+03,1.893920e+03
2.057676e+03,1.883155e+03
2.060568e+03,1.898946e+03
2.063461e+03,1.878933e+03
2.066354e+03,1.880452e+03
2.069247e+03,1.886931e+03
2.072139e+03,1.870831e+03
2.075032e+03,1.872064e+03
2.077925e+03,1.857594e+03
2.080817e+03,1.870100e+03
2.083710e+03,1.852299e+03
2.086603e+03,1.856673e+03
2.089496e+03,1.853703e+03
2.092388e+03,1.847584e+03
2.095281e+03,1.830372e+03
2.098174e+03,1.846465e+03
2.101066e+03,1.831048e+03
2.103959e+03,1.818319e+03
2.106852e+03,1.839477e+03
2.109744e+03,1.826392e+03
2.112637e+03,1.834947e+03
2.115530e+03,1.821934e+03
2.118422e+03,1.788642e+03
2.121315e+03,1.801451e+03
2.124208e+03,1.806347e+03
2.127101e+03,1.799084e+03
2.129993e+03,1.775052e+03
2.132886e+03,1.788914e+03
2.135779e+03,1.776188e+03
2.138671e+03,1.765573e+03
2.141564e+03,1.764583e+03
2.144457e+03,1.783706e+03
2.147350e+03,1.764090e+03
2.150242e+03,1.780492e+03
2.153135e+03,1.758777e+03
2.156028e+03,1.754386e+03
2.158920e+03,1.748975e+03
2.161813e+03,1.737306e+03
2.164706e+03,1.765793e+03
2.167598e+03,1.742993e+03
2.170491e+03,1.746553e+03
2.173384e+03,1.732853e+03
2.176277e+03,1.733369e+03
2.179169e+03,1.718472e+03
2.182062e+03,1.721783e+03
2.184955e+03,1.725618e+03
2.187847e+03,1.718486e+03
2.190740e+03,1.731822e+03
2.193633e+03,1.714302e+03
2.196525e+03,1.720374e+03
2.199418e+03,1.683481e+03
2.202311e+03,1.715810e+03
2.205204e+03,1.694289e+03
2.208096e+03,1.697812e+03
2.210989e+03,1.672441e+03
2.213882e+03,1.666427e+03
2.216774e+03,1.668847e+03
2.219667e+03,1.679817e+03
2.222560e+03,1.681496e+03
2.225452e+03,1.656070e+03
2.228345e+03,1.637976e+03
2.231238e+03,1.666167e+03
2.234131e+03,1.656859e+03
2.237023e+03,1.654921e+03
2.239916e+03,1.644480e+03
2.242809e+03,1.633669e+03
2.245701e+03,1.640616e+03
2.248594e+03,1.629542e+03
2.251487e+03,1.646148e+03
2.254379e+03,1.621438e+03
2.257272e+03,1.617414e+03
2.260165e+03,1.620759e+03
2.263058e+03,1.629261e+03
2.265950e+03,1.610877e+03
2.268843e+03,1.604723e+03
2.271736e+03,1.591545e+03
2.274628e+03,1.596467e+03
2.277521e+03,1.579642e+03
2.280414e+03,1.597809e+03
2.283306e+03,1.583997e+03
2.286199e+03,1.575877e+03
2.289092e+03,1.596162e+03
2.291985e+03,1.582471e+03
2.294877e+03,1.579536e+03
2.297770e+03,1.572130e+03
2.300663e+03,1.559555e+03
2.303555e+03,1.563939e+03
2.306448e+03,1.571105e+03
2.309341e+03,1.556949e+03
2.312233e+03,1.543511e+03
2.315126e+03,1.544658e+03
2.318019e+03,1.538475e+03
2.320912e+03,1.539329e+03
2.323804e+03,1.550886e+03
2.326697e+03,1.539416e+03
2.329590e+03,1.535431e+03
2.332482e+03,1.513309e+03
2.335375e+03,1.508753e+03
2.338268e+03,1.514549e+03
2.341160e+03,1.509619e+03
2.344053e+03,1.528517e+03
2.346946e+03,1.502159e+03
2.349839e+03,1.514143e+03
2.352731e+03,1.506888e+03
2.355624e+03,1.501519e+03
2.358517e+03,1.491987e+03
2.361409e+03,1.529251e+03
2.364302e+03,1.478542e+03
2.367195e+03,1.462099e+03
2.370087e+03,1.477718e+03
2.372980e+03,1.469694e+03
2.375873e+03,1.476043e+03
2.378766e+03,1.471089e+03
2.381658e+03,1.450133e+03
2.384551e+03,1.454698e+03
2.387444e+03,1.453741e+03
2.390336e+03,1.462543e+03
2.393229e+03,1.448409e+03
2.396122e+03,1.444202e+03
2.399014e+03,1.438264e+03
2.401907e+03,1.442266e+03
2.404800e+03,1.435282e+03
2.407693e+03,1.445412e+03
2.410585e+03,1.424857e+03
2.413478e+03,1.415200e+03
2.416371e+03,1.434616e+03
2.419263e+03,1.420529e+03
2.422156e+03,1.426290e+03
2.425049e+03,1.427761e+03
2.427941e+03,1.424740e+03
2.430834e+03,1.403056e+03
2.433727e+03,1.402517e+03
2.436620e+03,1.406437e+03
2.439512e+03,1.397413e+03
2.442405e+03,1.389517e+03
2.445298e+03,1.403476e+03
2.448190e+03,1.384158e+03
2.451083e+03,1.399177e+03
2.453976e+03,1.382403e+03
2.456868e+03,1.390725e+03
2.459761e+03,1.384180e+03
2.462654e+03,1.385380e+03
2.465547e+03,1.363440e+03
2.468439e+03,1.368921e+03
2.471332e+03,1.364470e+03
2.474225e+03,1.376689e+03
2.477117e+03,1.348656e+03
2.480010e+03,1.364226e+03
2.482903e+03,1.376318e+03
2.485795e+03,1.357116e+03
2.488688e+03,1.354744e+03
2.491581e+03,1.354372e+03
2.494474e+03,1.342829e+03
2.497366e+03,1.355811e+03
2.500259e+03,1.338678e+03
2.503152e+03,1.358165e+03
2.506044e+03,1.328539e+03
2.508937e+03,1.330435e+03
2.511830e+03,1.340624e+03
2.514722e+03,1.324103e+03
2.517615e+03,1.336377e+03
2.520508e+03,1.336433e+03
2.523401e+03,1.333888e+03
2.526293e+03,1.302293e+03
2.529186e+03,1.337435e+03
2.532079e+03,1.315491e+03
2.534971e+03,1.317580e+03
2.537864e+03,1.296302e+03
2.540757e+03,1.303272e+03
2.543649e+03,1.311951e+03
2.546542e+03,1.306908e+03
2.549435e+03,1.304044e+03
2.552328e+03,1.293651e+03
2.555220e+03,1.317925e+03
2.558113e+03,1.324313e+03
2.561006e+03,1.294519e+03
2.563898e+03,1.319454e+03
2.566791e+03,1.281043e+03
2.569684e+03,1.299192e+03
2.572576e+03,1.282793e+03
2.575469e+03,1.282438e+03
2.578362e+03,1.265616e+03
2.581255e+03,1.279055e+03
2.584147e+03,1.266981e+03
2.587040e+03,1.271183e+03
2.589933e+03,1.274038e+03
2.592825e+03,1.250315e+03
2.595718e+03,1.272300e+03
2.598611e+03,1.284518e+03
2.601503e+03,1.252848e+03
2.604396e+03,1.259253e+03
2.607289e+03,1.262634e+03
2.610182e+03,1.263655e+03
2.613074e+03,1.253281e+03
2.615967e+03,1.239153e+03
2.618860e+03,1.249184e+03
2.621752e+03,1.252052e+03
2.624645e+03,1.245230e+03
2.627538e+03,1.233004e+03
2.630430e+03,1.222431e+03
2.633323e+03,1.244269e+03
2.636216e+03,1.240402e+03
2.639109e+03,1.226463e+03
2.642001e+03,1.225077e+03
2.644894e+03,1.227777e+03
2.647787e+03,1.222312e+03
2.650679e+03,1.217989e+03
2.653572e+03,1.237441e+03
2.656465e+03,1.224168e+03
2.659357e+03,1.216731e+03
2.662250e+03,1.225098e+03
2.665143e+03,1.205813e+03
2.668036e+03,1.217232e+03
2.670928e+03,1.190797e+03
2.673821e+03,1.196183e+03
2.676714e+03,1.206562e+03
2.679606e+03,1.185059e+03
2.682499e+03,1.185416e+03
2.685392e+03,1.171566e+03
2.688284e+03,1.206273e+03
2.691177e+03,1.190828e+03
2.694070e+03,1.197288e+03
2.696963e+03,1.186760e+03
2.699855e+03,1.213548e+03
2.702748e+03,1.176799e+03
2.705641e+03,1.179281e+03
2.708533e+03,1.179557e+03
2.711426e+03,1.166266e+03
2.714319e+03,1.174324e+03
2.717211e+03,1.180484e+03
2.720104e+03,1.183069e+03
2.722997e+03,1.184654e+03
2.725890e+03,1.159781e+03
2.728782e+03,1.180230e+03
2.731675e+03,1.158720e+03
2.734568e+03,1.142317e+03
2.737460e+03,1.167624e+03
2.740353e+03,1.158478e+03
2.743246e+03,1.118258e+03
2.746138e+03,1.170688e+03
2.749031e+03,1.143840e+03
2.751924e+03,1.174290e+03
2.754817e+03,1.128299e+03
2.757709e+03,1.165758e+03
2.760602e+03,1.161283e+03
2.763495e+03,1.139558e+03
2.766387e+03,1.152840e+03
2.769280e+03,1.135956e+03
2.772173e+03,1.155572e+03
2.775065e+03,1.123756e+03
2.777958e+03,1.127476e+03
2.780851e+03,1.138614e+03
2.783744e+03,1.131724e+03
2.786636e+03,1.134995e+03
2.789529e+03,1.135721e+03
2.792422e+03,1.137850e+03
2.795314e+03,1.109815e+03
2.798207e+03,1.104648e+03
2.801100e+03,1.114828e+03
2.803992e+03,1.099434e+03
2.806885e+03,1.117067e+03
2.809778e+03,1.127209e+03
2.812671e+03,1.106038e+03
2.815563e+03,1.087665e+03
2.818456e+03,1.115039e+03
2.821349e+03,1.100889e+03
2.824241e+03,1.101092e+03
2.827134e+03,1.107702e+03
2.830027e+03,1.066184e+03
2.832919e+03,1.085333e+03
2.835812e+03,1.092886e+03
2.838705e+03,1.095034e+03
2.841598e+03,1.080750e+03
2.844490e+03,1.100280e+03
2.847383e+03,1.097565e+03
2.850276e+03,1.074413e+03
2.853168e+03,1.080521e+03
2.856061e+03,1.113381e+03
2.858954e+03,1.087833e+03
2.861846e+03,1.063238e+03
2.864739e+03,1.068691e+03
2.867632e+03,1.118433e+03
2.870525e+03,1.084148e+03
2.873417e+03,1.074411e+03
2.876310e+03,1.060247e+03
2.879203e+03,1.050580e+03
2.882095e+03,1.082600e+03
2.884988e+03,1.067420e+03
2.887881e+03,1.052395e+03
2.890773e+03,1.057083e+03
2.893666e+03,1.034983e+03
2.896559e+03,1.047945e+03
2.899452e+03,1.053552e+03
2.902344e+03,1.063163e+03
2.905237e+03,1.036781e+03
2.908130e+03,1.045287e+03
2.911022e+03,1.051979e+03
2.913915e+03,1.015499e+03
2.916808e+03,1.037024e+03
2.919700e+03,1.022424e+03
2.922593e+03,1.037486e+03
2.925486e+03,1.051940e+03
2.928379e+03,1.004068e+03
2.931271e+03,1.035991e+03
2.934164e+03,1.049357e+03
2.937057e+03,1.023865e+03
2.939949e+03,1.021682e+03
2.942842e+03,1.015934e+03
2.945735e+03,1.040470e+03
2.948627e+03,1.020759e+03
2.951520e+03,1.037246e+03
2.954413e+03,1.005894e+03
2.957306e+03,1.057726e+03
2.960198e+03,1.027450e+03
2.963091e+03,1.043845e+03
2.965984e+03,1.000740e+03
2.968876e+03,1.022119e+03
2.971769e+03,1.012560e+03
2.974662e+03,1.003776e+03
2.977554e+03,1.019696e+03
2.980447e+03,1.012257e+03
2.983340e+03,1.023782e+03
2.986233e+03,9.924423e+02
2.989125e+03,1.001513e+03
2.992018e+03,1.033454e+03
2.994911e+03,9.856556e+02
2.997803e+03,9.921729e+02
3.000696e+03,9.901489e+02
3.003589e+03,9.958799e+02
3.006481e+03,9.959280e+02
3.009374e+03,9.637629e+02
3.012267e+03,1.003454e+03
3.015160e+03,9.916121e+02
3.018052e+03,9.664828e+02
3.020945e+03,1.007469e+03
3.023838e+03,9.822195e+02
3.026730e+03,9.895324e+02
3.029623e+03,9.952263e+02
3.032516e+03,1.003773e+03
3.035408e+03,9.805592e+02
3.038301e+03,9.673492e+02
3.041194e+03,9.841320e+02
3.044087e+03,9.315681e+02
3.046979e+03,9.700001e+02
3.049872e+03,9.735516e+02
3.052765e+03,9.577977e+02
3.055657e+03,9.730548e+02
3.058550e+03,1.002313e+03
3.061443e+03,9.451981e+02
3.064335e+03,9.634453e+02
3.067228e+03,9.566398e+02
3.070121e+03,9.631547e+02
3.073014e+03,9.851966e+02
3.075906e+03,9.518644e+02
3.078799e+03,9.887514e+02
3.081692e+03,9.693043e+02
3.084584e+03,9.256404e+02
3.087477e+03,9.773973e+02
3.090370e+03,9.731938e+02
3.093262e+03,9.224620e+02
3.096155e+03,9.492866e+02
3.099048e+03,9.476279e+02
3.101941e+03,9.562537e+02
3.104833e+03,9.340816e+02
3.107726e+03,9.343979e+02
3.110619e+03,9.595553e+02
3.113511e+03,9.595277e+02
3.116404e+03,9.779892e+02
3.119297e+03,9.488636e+02
3.122189e+03,9.234567e+02
3.125082e+03,9.700169e+02
3.127975e+03,9.317206e+02
3.130868e+03,9.486282e+02
3.133760e+03,1.024529e+03
3.136653e+03,9.326384e+02
3.139546e+03,9.397632e+02
3.142438e+03,9.565905e+02
3.145331e+03,9.268733e+02
3.148224e+03,9.599993e+02
3.151116e+03,9.344016e+02
3.154009e+03,9.673183e+02
3.156902e+03,9.305499e+02
3.159795e+03,9.136731e+02
3.162687e+03,9.617336e+02
3.165580e+03,9.383021e+02
3.168473e+03,9.730622e+02
3.171365e+03,9.295457e+02
3.174258e+03,9.246951e+02
3.177151e+03,9.279375e+02
3.180043e+03,9.483337e+02
3.182936e+03,9.631926e+02
3.185829e+03,9.392044e+02
3.188722e+03,9.185988e+02
3.191614e+03,9.395854e+02
3.194507e+03,9.168475e+02
3.197400e+03,8.883584e+02
3.200292e+03,9.819860e+02
3.203185e+03,0.000000e+00
3.206078e+03,0.000000e+00
3.208970e+03,0.000000e+00
3.211863e+03,0.000000e+00
3.214756e+03,0.000000e+00
3.217649e+03,0.000000e+00
3.220541e+03,0.000000e+00
3.223434e+03,0.000000e+00
3.226327e+03,0.000000e+00
3.229219e+03,0.000000e+00
3.232112e+03,0.000000e+00
3.235005e+03,0.000000e+00
3.237897e+03,0.000000e+00
3.240790e+03,0.000000e+00
3.243683e+03,0.000000e+00
3.246576e+03,0.000000e+00
3.249468e+03,0.000000e+00
3.252361e+03,0.000000e+00
3.255254e+03,0.000000e+00
3.258146e+03,0.000000e+00
3.261039e+03,0.000000e+00
3.263932e+03,0.000000e+00
3.266824e+03,0.000000e+00
3.269717e+03,0.000000e+00
3.272610e+03,0.000000e+00
3.275503e+03,0.000000e+00
3.278395e+03,0.000000e+00
3.281288e+03,0.000000e+00
3.284181e+03,0.000000e+00
3.287073e+03,0.000000e+00
3.289966e+03,0.000000e+00
3.292859e+03,0.000000e+00
3.295751e+03,0.000000e+00
3.298644e+03,0.000000e+00
3.301537e+03,0.000000e+00
3.304430e+03,0.000000e+00
3.307322e+03,0.000000e+00
3.310215e+03,0.000000e+00
3.313108e+03,0.000000e+00
3.316000e+03,0.000000e+00
3.318893e+03,0.000000e+00
3.321786e+03,0.000000e+00
3.324678e+03,0.000000e+00
3.327571e+03,0.000000e+00
3.330464e+03,0.000000e+00
3.333357e+03,0.000000e+00
3.336249e+03,0.000000e+00
3.339142e+03,0.000000e+00
3.342035e+03,0.000000e+00
3.344927e+03,0.000000e+00
3.347820e+03,0.000000e+00
3.350713e+03,0.000000e+00
3.353605e+03,0.000000e+00
3.356498e+03,0.000000e+00
3.359391e+03,0.000000e+00
3.362284e+03,0.000000e+00
3.365176e+03,0.000000e+00
3.368069e+03,0.000000e+00
3.370962e+03,0.000000e+00
3.373854e+03,0.000000e+00
3.376747e+03,0.000000e+00
3.379640e+03,0.000000e+00
3.382532e+03,0.000000e+00
3.385425e+03,0.000000e+00
3.388318e+03,0.000000e+00
3.391211e+03,0.000000e+00
3.394103e+03,0.000000e+00
3.396996e+03,0.000000e+00
3.399889e+03,0.000000e+00
3.402781e+03,0.000000e+00
3.405674e+03,0.000000e+00
3.408567e+03,0.000000e+00
3.411459e+03,0.000000e+00
3.414352e+03,0.000000e+00
3.417245e+03,0.000000e+00
3.420138e+03,0.000000e+00
3.423030e+03,0.000000e+00
3.425923e+03,0.000000e+00
3.428816e+03,0.000000e+00
3.431708e+03,0.000000e+00
3.434601e+03,0.000000e+00
3.437494e+03,0.000000e+00
3.440386e+03,0.000000e+00
3.443279e+03,0.000000e+00
3.446172e+03,0.000000e+00
3.449065e+03,0.000000e+00
3.451957e+03,0.000000e+00
3.454850e+03,0.000000e+00
3.457743e+03,0.000000e+00
3.460635e+03,0.000000e+00
3.463528e+03,0.000000e+00
3.466421e+03,0.000000e+00
3.469313e+03,0.000000e+00
3.472206e+03,0.000000e+00
3.475099e+03,0.000000e+00
3.477992e+03,0.000000e+00
3.480884e+03,0.000000e+00
3.483777e+03,0.000000e+00
3.486670e+03,0.000000e+00
3.489563e+03,0.000000e+00
3.492455e+03,0.000000e+00
3.495348e+03,0.000000e+00
3.498240e+03,0.000000e+00
3.500169e+03,0.000000e+00