File: RAMAN_data/19072023_r3/black fibre4.CSV
9.931763e+01,0.000000e+00
1.022103e+02,0.000000e+00
1.051030e+02,0.000000e+00
1.079957e+02,0.000000e+00
1.108884e+02,0.000000e+00
1.137811e+02,0.000000e+00
1.166738e+02,0.000000e+00
1.195665e+02,0.000000e+00
1.224592e+02,0.000000e+00
1.253519e+02,0.000000e+00
1.282446e+02,0.000000e+00
1.311373e+02,0.000000e+00
1.340300e+02,0.000000e+00
1.369227e+02,0.000000e+00
1.398154e+02,0.000000e+00
1.427081e+02,0.000000e+00
1.456008e+02,0.000000e+00
1.484935e+02,0.000000e+00
1.513862e+02,0.000000e+00
1.542789e+02,0.000000e+00
1.571716e+02,0.000000e+00
1.600643e+02,0.000000e+00
1.629570e+02,0.000000e+00
1.658497e+02,0.000000e+00
1.687424e+02,0.000000e+00
1.716351e+02,0.000000e+00
1.745278e+02,0.000000e+00
1.774205e+02,0.000000e+00
1.803132e+02,0.000000e+00
1.832059e+02,0.000000e+00
1.860986e+02,0.000000e+00
1.889913e+02,0.000000e+00
1.918840e+02,0.000000e+00
1.947767e+02,0.000000e+00
1.976694e+02,0.000000e+00
2.005621e+02,1.047981e+04
2.034548e+02,1.052034e+04
2.063475e+02,1.054905e+04
2.092402e+02,1.055023e+04
2.121329e+02,1.055114e+04
2.150256e+02,1.057994e+04
2.179183e+02,1.060919e+04
2.208110e+02,1.066058e+04
2.237037e+02,1.067718e+04
2.265964e+02,1.068749e+04
2.294892e+02,1.071674e+04
2.323819e+02,1.076485e+04
2.352746e+02,1.080180e+04
2.381673e+02,1.083688e+04
2.410600e+02,1.083374e+04
2.439527e+02,1.085114e+04
2.468454e+02,1.088743e+04
2.497381e+02,1.092293e+04
2.526308e+02,1.095972e+04
2.555235e+02,1.097477e+04
2.584161e+02,1.097703e+04
2.613088e+02,1.102010e+04
2.642015e+02,1.107264e+04
2.670942e+02,1.109793e+04
2.699869e+02,1.113241e+04
2.728796e+02,1.114520e+04
2.757723e+02,1.118599e+04
2.786650e+02,1.122956e+04
2.815577e+02,1.125743e+04
2.844504e+02,1.128402e+04
2.873431e+02,1.129060e+04
2.902358e+02,1.131700e+04
2.931285e+02,1.134644e+04
2.960212e+02,1.139113e+04
2.989139e+02,1.141448e+04
3.018066e+02,1.143413e+04
3.046993e+02,1.146692e+04
3.075920e+02,1.148884e+04
3.104847e+02,1.152890e+04
3.133774e+02,1.157925e+04
3.162701e+02,1.159601e+04
3.191628e+02,1.160888e+04
3.220555e+02,1.164175e+04
3.249482e+02,1.168424e+04
3.278409e+02,1.172364e+04
3.307336e+02,1.175929e+04
3.336263e+02,1.178546e+04
3.365190e+02,1.179593e+04
3.394117e+02,1.184477e+04
3.423044e+02,1.189110e+04
3.451971e+02,1.195065e+04
3.480898e+02,1.197636e+04
3.509825e+02,1.198931e+04
3.538752e+02,1.203903e+04
3.567680e+02,1.208796e+04
3.596607e+02,1.212734e+04
3.625534e+02,1.216518e+04
3.654461e+02,1.215143e+04
3.683388e+02,1.217766e+04
3.712315e+02,1.224066e+04
3.741242e+02,1.227460e+04
3.770169e+02,1.231209e+04
3.799096e+02,1.235504e+04
3.828023e+02,1.237077e+04
3.856950e+02,1.241141e+04
3.885877e+02,1.246715e+04
3.914804e+02,1.251785e+04
3.943731e+02,1.254654e+04
3.972658e+02,1.257221e+04
4.001585e+02,1.259571e+04
4.030512e+02,1.265208e+04
4.059439e+02,1.268439e+04
4.088366e+02,1.272684e+04
4.117293e+02,1.274472e+04
4.146220e+02,1.277363e+04
4.175147e+02,1.281375e+04
4.204074e+02,1.285257e+04
4.233001e+02,1.288676e+04
4.261928e+02,1.290905e+04
4.290855e+02,1.294774e+04
4.319782e+02,1.298699e+04
4.348709e+02,1.304558e+04
4.377636e+02,1.309523e+04
4.406563e+02,1.313692e+04
4.435490e+02,1.317664e+04
4.464417e+02,1.321787e+04
4.493344e+02,1.326524e+04
4.522271e+02,1.329400e+04
4.551198e+02,1.332378e+04
4.580125e+02,1.333318e+04
4.609052e+02,1.337773e+04
4.637979e+02,1.340457e+04
4.666906e+02,1.342731e+04
4.695833e+02,1.347626e+04
4.724760e+02,1.351270e+04
4.753687e+02,1.353410e+04
4.782614e+02,1.356131e+04
4.811541e+02,1.360236e+04
4.840468e+02,1.364771e+04
4.869395e+02,1.368210e+04
4.898322e+02,1.370779e+04
4.927249e+02,1.374528e+04
4.956176e+02,1.378946e+04
4.985103e+02,1.383496e+04
5.014030e+02,1.385635e+04
5.042957e+02,1.387435e+04
5.071884e+02,1.389094e+04
5.100811e+02,1.391389e+04
5.129738e+02,1.394534e+04
5.158665e+02,1.399864e+04
5.187592e+02,1.401324e+04
5.216519e+02,1.400965e+04
5.245446e+02,1.405543e+04
5.274373e+02,1.410163e+04
5.303300e+02,1.412588e+04
5.332227e+02,1.412560e+04
5.361154e+02,1.414876e+04
5.390081e+02,1.417050e+04
5.419008e+02,1.421884e+04
5.447935e+02,1.426149e+04
5.476862e+02,1.428333e+04
5.505789e+02,1.428684e+04
5.534716e+02,1.427754e+04
5.563643e+02,1.432018e+04
5.592570e+02,1.435616e+04
5.621497e+02,1.439771e+04
5.650424e+02,1.440605e+04
5.679351e+02,1.440203e+04
5.708278e+02,1.441442e+04
5.737205e+02,1.446703e+04
5.766132e+02,1.451686e+04
5.795059e+02,1.454171e+04
5.823986e+02,1.455829e+04
5.852913e+02,1.457644e+04
5.881840e+02,1.461572e+04
5.910767e+02,1.465786e+04
5.939694e+02,1.469935e+04
5.968621e+02,1.471511e+04
5.997548e+02,1.472276e+04
6.026475e+02,1.474913e+04
6.055402e+02,1.479394e+04
6.084329e+02,1.480400e+04
6.113256e+02,1.479959e+04
6.142183e+02,1.479833e+04
6.171110e+02,1.480506e+04
6.200037e+02,1.484453e+04
6.228964e+02,1.487450e+04
6.257891e+02,1.491219e+04
6.286818e+02,1.490214e+04
6.315745e+02,1.490820e+04
6.344672e+02,1.494905e+04
6.373599e+02,1.498393e+04
6.402526e+02,1.499711e+04
6.431453e+02,1.500872e+04
6.460380e+02,1.501161e+04
6.489307e+02,1.505329e+04
6.518234e+02,1.509699e+04
6.547161e+02,1.510748e+04
6.576088e+02,1.509536e+04
6.605015e+02,1.509805e+04
6.633942e+02,1.510734e+04
6.662869e+02,1.514652e+04
6.691796e+02,1.518144e+04
6.720723e+02,1.518572e+04
6.749650e+02,1.516938e+04
6.778577e+02,1.514802e+04
6.807504e+02,1.516739e+04
6.836431e+02,1.520608e+04
6.865358e+02,1.520188e+04
6.894285e+02,1.519513e+04
6.923212e+02,1.519975e+04
6.952139e+02,1.521645e+04
6.981066e+02,1.526940e+04
7.009993e+02,1.527333e+04
7.038920e+02,1.526940e+04
7.067847e+02,1.525439e+04
7.096774e+02,1.526092e+04
7.125701e+02,1.527581e+04
7.154628e+02,1.528784e+04
7.183555e+02,1.529253e+04
7.212482e+02,1.527303e+04
7.241409e+02,1.527056e+04
7.270336e+02,1.526713e+04
7.299263e+02,1.527683e+04
7.328190e+02,1.527449e+04
7.357117e+02,1.523453e+04
7.386044e+02,1.523411e+04
7.414971e+02,1.523308e+04
7.443898e+02,1.521513e+04
7.472825e+02,1.523692e+04
7.501752e+02,1.520030e+04
7.530679e+02,1.517945e+04
7.559606e+02,1.517519e+04
7.588533e+02,1.517763e+04
7.617460e+02,1.517940e+04
7.646387e+02,1.512941e+04
7.675314e+02,1.515160e+04
7.704241e+02,1.509262e+04
7.733168e+02,1.507661e+04
7.762095e+02,1.510099e+04
7.791022e+02,1.512889e+04
7.819949e+02,1.507050e+04
7.848876e+02,1.505184e+04
7.877803e+02,1.503954e+04
7.906730e+02,1.501496e+04
7.935657e+02,1.504198e+04
7.964584e+02,1.499111e+04
7.993511e+02,1.498994e+04
8.022438e+02,1.494919e+04
8.051365e+02,1.495127e+04
8.080292e+02,1.495646e+04
8.109219e+02,1.493127e+04
8.138146e+02,1.493308e+04
8.167073e+02,1.490389e+04
8.196000e+02,1.488098e+04
8.224927e+02,1.488979e+04
8.253854e+02,1.486853e+04
8.282781e+02,1.484188e+04
8.311708e+02,1.478642e+04
8.340635e+02,1.479639e+04
8.369562e+02,1.479091e+04
8.398489e+02,1.477148e+04
8.427416e+02,1.473803e+04
8.456343e+02,1.471559e+04
8.485270e+02,1.467735e+04
8.514197e+02,1.465038e+04
8.543124e+02,1.462697e+04
8.572051e+02,1.460775e+04
8.600978e+02,1.458059e+04
8.629905e+02,1.455931e+04
8.658832e+02,1.453515e+04
8.687759e+02,1.456306e+04
8.716686e+02,1.453958e+04
8.745613e+02,1.445916e+04
8.774540e+02,1.445511e+04
8.803467e+02,1.444097e+04
8.832394e+02,1.443072e+04
8.861321e+02,1.443276e+04
8.890248e+02,1.440037e+04
8.919175e+02,1.435416e+04
8.948102e+02,1.433591e+04
8.977029e+02,1.431010e+04
9.005956e+02,1.426622e+04
9.034883e+02,1.429120e+04
9.063810e+02,1.423067e+04
9.092737e+02,1.420663e+04
9.121664e+02,1.419380e+04
9.150591e+02,1.419708e+04
9.179518e+02,1.417704e+04
9.208445e+02,1.411366e+04
9.237372e+02,1.406231e+04
9.266299e+02,1.407921e+04
9.295226e+02,1.404556e+04
9.324153e+02,1.404769e+04
9.353080e+02,1.403862e+04
9.382007e+02,1.398146e+04
9.410934e+02,1.397222e+04
9.439861e+02,1.391952e+04
9.468788e+02,1.391020e+04
9.497715e+02,1.391124e+04
9.526642e+02,1.386336e+04
9.555569e+02,1.380612e+04
9.584496e+02,1.379233e+04
9.613423e+02,1.377168e+04
9.642350e+02,1.373945e+04
9.671277e+02,1.372393e+04
9.700204e+02,1.368322e+04
9.729131e+02,1.364562e+04
9.758058e+02,1.362579e+04
9.786985e+02,1.361414e+04
9.815912e+02,1.355919e+04
9.844839e+02,1.352558e+04
9.873766e+02,1.347482e+04
9.902693e+02,1.349361e+04
9.931620e+02,1.347964e+04
9.960547e+02,1.344276e+04
9.989474e+02,1.338504e+04
1.001840e+03,1.333126e+04
1.004733e+03,1.333448e+04
1.007626e+03,1.333656e+04
1.010518e+03,1.332083e+04
1.013411e+03,1.326617e+04
1.016304e+03,1.320994e+04
1.019196e+03,1.318756e+04
1.022089e+03,1.316986e+04
1.024982e+03,1.320613e+04
1.027875e+03,1.314647e+04
1.030767e+03,1.309288e+04
1.033660e+03,1.306845e+04
1.036552e+03,1.306167e+04
1.039445e+03,1.305410e+04
1.042338e+03,1.301469e+04
1.045231e+03,1.299606e+04
1.048123e+03,1.295834e+04
1.051016e+03,1.292431e+04
1.053909e+03,1.292883e+04
1.056802e+03,1.291892e+04
1.059694e+03,1.289734e+04
1.062587e+03,1.285103e+04
1.065479e+03,1.285010e+04
1.068372e+03,1.283499e+04
1.071265e+03,1.284839e+04
1.074158e+03,1.281906e+04
1.077050e+03,1.276349e+04
1.079943e+03,1.273988e+04
1.082836e+03,1.273672e+04
1.085729e+03,1.273765e+04
1.088621e+03,1.270429e+04
1.091514e+03,1.266136e+04
1.094406e+03,1.258757e+04
1.097299e+03,1.257781e+04
1.100192e+03,1.257604e+04
1.103085e+03,1.257150e+04
1.105977e+03,1.252031e+04
1.108870e+03,1.250533e+04
1.111763e+03,1.247996e+04
1.114656e+03,1.247857e+04
1.117548e+03,1.249875e+04
1.120441e+03,1.247864e+04
1.123334e+03,1.242263e+04
1.126226e+03,1.239374e+04
1.129119e+03,1.237500e+04
1.132012e+03,1.239746e+04
1.134904e+03,1.236119e+04
1.137797e+03,1.232765e+04
1.140690e+03,1.230524e+04
1.143583e+03,1.230103e+04
1.146475e+03,1.228179e+04
1.149368e+03,1.226117e+04
1.152261e+03,1.227601e+04
1.155153e+03,1.222580e+04
1.158046e+03,1.218882e+04
1.160939e+03,1.219466e+04
1.163831e+03,1.218878e+04
1.166724e+03,1.218737e+04
1.169617e+03,1.214533e+04
1.172510e+03,1.209871e+04
1.175402e+03,1.209575e+04
1.178295e+03,1.210403e+04
1.181188e+03,1.209357e+04
1.184080e+03,1.206679e+04
1.186973e+03,1.202198e+04
1.189866e+03,1.202174e+04
1.192758e+03,1.200511e+04
1.195651e+03,1.201539e+04
1.198544e+03,1.200463e+04
1.201437e+03,1.196104e+04
1.204329e+03,1.192794e+04
1.207222e+03,1.193391e+04
1.210115e+03,1.194170e+04
1.213007e+03,1.193899e+04
1.215900e+03,1.191051e+04
1.218793e+03,1.190178e+04
1.221685e+03,1.189364e+04
1.224578e+03,1.192711e+04
1.227471e+03,1.191258e+04
1.230364e+03,1.190916e+04
1.233256e+03,1.185443e+04
1.236149e+03,1.184073e+04
1.239042e+03,1.188006e+04
1.241934e+03,1.188969e+04
1.244827e+03,1.185434e+04
1.247720e+03,1.183867e+04
1.250612e+03,1.182998e+04
1.253505e+03,1.184591e+04
1.256398e+03,1.185315e+04
1.259291e+03,1.184016e+04
1.262183e+03,1.182691e+04
1.265076e+03,1.181402e+04
1.267969e+03,1.181205e+04
1.270861e+03,1.183379e+04
1.273754e+03,1.183711e+04
1.276647e+03,1.183754e+04
1.279539e+03,1.180367e+04
1.282432e+03,1.177735e+04
1.285325e+03,1.182683e+04
1.288218e+03,1.183650e+04
1.291110e+03,1.182075e+04
1.294003e+03,1.181504e+04
1.296896e+03,1.179929e+04
1.299788e+03,1.180994e+04
1.302681e+03,1.181213e+04
1.305574e+03,1.181342e+04
1.308466e+03,1.179891e+04
1.311359e+03,1.175751e+04
1.314252e+03,1.177340e+04
1.317145e+03,1.177302e+04
1.320037e+03,1.177488e+04
1.322930e+03,1.173171e+04
1.325823e+03,1.170935e+04
1.328715e+03,1.170516e+04
1.331608e+03,1.173090e+04
1.334501e+03,1.175368e+04
1.337393e+03,1.168397e+04
1.340286e+03,1.172123e+04
1.343179e+03,1.161373e+04
1.346072e+03,1.165217e+04
1.348964e+03,1.166985e+04
1.351857e+03,1.162397e+04
1.354750e+03,1.162549e+04
1.357642e+03,1.160249e+04
1.360535e+03,1.157061e+04
1.363428e+03,1.154429e+04
1.366320e+03,1.157461e+04
1.369213e+03,1.158293e+04
1.372106e+03,1.150278e+04
1.374999e+03,1.147010e+04
1.377891e+03,1.149206e+04
1.380784e+03,1.144611e+04
1.383677e+03,1.146260e+04
1.386569e+03,1.142931e+04
1.389462e+03,1.140980e+04
1.392355e+03,1.137476e+04
1.395247e+03,1.135771e+04
1.398140e+03,1.139593e+04
1.401033e+03,1.135848e+04
1.403926e+03,1.130380e+04
1.406818e+03,1.130850e+04
1.409711e+03,1.126401e+04
1.412604e+03,1.128118e+04
1.415496e+03,1.123182e+04
1.418389e+03,1.121595e+04
1.421282e+03,1.121531e+04
1.424174e+03,1.116345e+04
1.427067e+03,1.116480e+04
1.429960e+03,1.115965e+04
1.432853e+03,1.114591e+04
1.435745e+03,1.112028e+04
1.438638e+03,1.108762e+04
1.441531e+03,1.110034e+04
1.444423e+03,1.109320e+04
1.447316e+03,1.105952e+04
1.450209e+03,1.100540e+04
1.453101e+03,1.099928e+04
1.455994e+03,1.097305e+04
1.458887e+03,1.098637e+04
1.461780e+03,1.098693e+04
1.464672e+03,1.092387e+04
1.467565e+03,1.090974e+04
1.470458e+03,1.091551e+04
1.473350e+03,1.088495e+04
1.476243e+03,1.087184e+04
1.479136e+03,1.085525e+04
1.482028e+03,1.082683e+04
1.484921e+03,1.079475e+04
1.487814e+03,1.078449e+04
1.490707e+03,1.076491e+04
1.493599e+03,1.074091e+04
1.496492e+03,1.070321e+04
1.499385e+03,1.072846e+04
1.502277e+03,1.069506e+04
1.505170e+03,1.068471e+04
1.508063e+03,1.068074e+04
1.510955e+03,1.062492e+04
1.513848e+03,1.062365e+04
1.516741e+03,1.060619e+04
1.519634e+03,1.061738e+04
1.522526e+03,1.058178e+04
1.525419e+03,1.060148e+04
1.528312e+03,1.053498e+04
1.531204e+03,1.054731e+04
1.534097e+03,1.050172e+04
1.536990e+03,1.050519e+04
1.539882e+03,1.046743e+04
1.542775e+03,1.046093e+04
1.545668e+03,1.040888e+04
1.548561e+03,1.037377e+04
1.551453e+03,1.041241e+04
1.554346e+03,1.039730e+04
1.557239e+03,1.037411e+04
1.560131e+03,1.033143e+04
1.563024e+03,1.029380e+04
1.565917e+03,1.029414e+04
1.568809e+03,1.027081e+04
1.571702e+03,1.028427e+04
1.574595e+03,1.024173e+04
1.577488e+03,1.029023e+04
1.580380e+03,1.026150e+04
1.583273e+03,1.024882e+04
1.586166e+03,1.017809e+04
1.589058e+03,1.017085e+04
1.591951e+03,1.012233e+04
1.594844e+03,1.011582e+04
1.597736e+03,1.009068e+04
1.600629e+03,1.005831e+04
1.603522e+03,1.005081e+04
1.606415e+03,1.001172e+04
1.609307e+03,9.992505e+03
1.612200e+03,9.988643e+03
1.615093e+03,1.003437e+04
1.617985e+03,9.997491e+03
1.620878e+03,9.929395e+03
1.623771e+03,9.911091e+03
1.626663e+03,9.880016e+03
1.629556e+03,9.855700e+03
1.632449e+03,9.845153e+03
1.635342e+03,9.792207e+03
1.638234e+03,9.781603e+03
1.641127e+03,9.726603e+03
1.644020e+03,9.770118e+03
1.646912e+03,9.720783e+03
1.649805e+03,9.681529e+03
1.652698e+03,9.667614e+03
1.655590e+03,9.656094e+03
1.658483e+03,9.628244e+03
1.661376e+03,9.623019e+03
1.664269e+03,9.601377e+03
1.667161e+03,9.545554e+03
1.670054e+03,9.517284e+03
1.672947e+03,9.507268e+03
1.675839e+03,9.490601e+03
1.678732e+03,9.479714e+03
1.681625e+03,9.458835e+03
1.684517e+03,9.412060e+03
1.687410e+03,9.397312e+03
1.690303e+03,9.399975e+03
1.693196e+03,9.374331e+03
1.696088e+03,9.383264e+03
1.698981e+03,9.313771e+03
1.701874e+03,9.305959e+03
1.704766e+03,9.294135e+03
1.707659e+03,9.249152e+03
1.710552e+03,9.205341e+03
1.713444e+03,9.197209e+03
1.716337e+03,9.193952e+03
1.719230e+03,9.184520e+03
1.722123e+03,9.127308e+03
1.725015e+03,9.116874e+03
1.727908e+03,9.082178e+03
1.730801e+03,9.105946e+03
1.733693e+03,9.060737e+03
1.736586e+03,9.064268e+03
1.739479e+03,9.050251e+03
1.742371e+03,8.976876e+03
1.745264e+03,8.975645e+03
1.748157e+03,8.896045e+03
1.751050e+03,8.918815e+03
1.753942e+03,8.916984e+03
1.756835e+03,8.878827e+03
1.759728e+03,8.864530e+03
1.762620e+03,8.846068e+03
1.765513e+03,8.839079e+03
1.768406e+03,8.786324e+03
1.771298e+03,8.818990e+03
1.774191e+03,8.750757e+03
1.777084e+03,8.740841e+03
1.779977e+03,8.709154e+03
1.782869e+03,8.688851e+03
1.785762e+03,8.701774e+03
1.788655e+03,8.615835e+03
1.791547e+03,8.613098e+03
1.794440e+03,8.565212e+03
1.797333e+03,8.576864e+03
1.800225e+03,8.595221e+03
1.803118e+03,8.535393e+03
1.806011e+03,8.487289e+03
1.808904e+03,8.463670e+03
1.811796e+03,8.477261e+03
1.814689e+03,8.463103e+03
1.817582e+03,8.433842e+03
1.820474e+03,8.422403e+03
1.823367e+03,8.357103e+03
1.826260e+03,8.346145e+03
1.829152e+03,8.324447e+03
1.832045e+03,8.340021e+03
1.834938e+03,8.298401e+03
1.837831e+03,8.296907e+03
1.840723e+03,8.282962e+03
1.843616e+03,8.243849e+03
1.846509e+03,8.263590e+03
1.849401e+03,8.189458e+03
1.852294e+03,8.149507e+03
1.855187e+03,8.155091e+03
1.858079e+03,8.132658e+03
1.860972e+03,8.087486e+03
1.863865e+03,8.114546e+03
1.866758e+03,8.089872e+03
1.869650e+03,8.048359e+03
1.872543e+03,8.022378e+03
1.875436e+03,8.034076e+03
1.878328e+03,7.970338e+03
1.881221e+03,7.892404e+03
1.884114e+03,7.921897e+03
1.887006e+03,7.877764e+03
1.889899e+03,7.892350e+03
1.892792e+03,7.861107e+03
1.895685e+03,7.821413e+03
1.898577e+03,7.792358e+03
1.901470e+03,7.812247e+03
1.904363e+03,7.777814e+03
1.907255e+03,7.767390e+03
1.910148e+03,7.737244e+03
1.913041e+03,7.693075e+03
1.915933e+03,7.669998e+03
1.918826e+03,7.634839e+03
1.921719e+03,7.615611e+03
1.924612e+03,7.638862e+03
1.927504e+03,7.556914e+03
1.930397e+03,7.537952e+03
1.933290e+03,7.518761e+03
1.936182e+03,7.514100e+03
1.939075e+03,7.513395e+03
1.941968e+03,7.480842e+03
1.944860e+03,7.439056e+03
1.947753e+03,7.434046e+03
1.950646e+03,7.390487e+03
1.953539e+03,7.418981e+03
1.956431e+03,7.400917e+03
1.959324e+03,7.359717e+03
1.962217e+03,7.346865e+03
1.965109e+03,7.299937e+03
1.968002e+03,7.318292e+03
1.970895e+03,7.305475e+03
1.973787e+03,7.223181e+03
1.976680e+03,7.219400e+03
1.979573e+03,7.217147e+03
1.982466e+03,7.167602e+03
1.985358e+03,7.155585e+03
1.988251e+03,7.155554e+03
1.991144e+03,7.129679e+03
1.994036e+03,7.078545e+03
1.996929e+03,7.091481e+03
1.999822e+03,7.048186e+03
2.002714e+03,7.006923e+03
2.005607e+03,7.033053e+03
2.008500e+03,6.980094e+03
2.011393e+03,6.959966e+03
2.014285e+03,6.914414e+03
2.017178e+03,6.919153e+03
2.020071e+03,6.895461e+03
2.022963e+03,6.850505e+03
2.025856e+03,6.827268e+03
2.028749e+03,6.820901e+03
2.031641e+03,6.801053e+03
2.034534e+03,6.788173e+03
2.037427e+03,6.781030e+03
2.040320e+03,6.733540e+03
2.043212e+03,6.708623e+03
2.046105e+03,6.713771e+03
2.048998e+03,6.660827e+03
2.051890e+03,6.688608e+03
2.054783e+03,6.648573e+03
2.057676e+03,6.633296e+03
2.060568e+03,6.618006e+03
2.063461e+03,6.589169e+03
2.066354e+03,6.573080e+03
2.069247e+03,6.536731e+03
2.072139e+03,6.504065e+03
2.075032e+03,6.498212e+03
2.077925e+03,6.488916e+03
2.080817e+03,6.461384e+03
2.083710e+03,6.436046e+03
2.086603e+03,6.409823e+03
2.089496e+03,6.433875e+03
2.092388e+03,6.378273e+03
2.095281e+03,6.325447e+03
2.098174e+03,6.367944e+03
2.101066e+03,6.349639e+03
2.103959e+03,6.298310e+03
2.106852e+03,6.301970e+03
2.109744e+03,6.256031e+03
2.112637e+03,6.207674e+03
2.115530e+03,6.189130e+03
2.118422e+03,6.178546e+03
2.121315e+03,6.208149e+03
2.124208e+03,6.188831e+03
2.127101e+03,6.103198e+03
2.129993e+03,6.111403e+03
2.132886e+03,6.055339e+03
2.135779e+03,6.118146e+03
2.138671e+03,6.079185e+03
2.141564e+03,6.049381e+03
2.144457e+03,5.991626e+03
2.147350e+03,5.976650e+03
2.150242e+03,5.976391e+03
2.153135e+03,5.980482e+03
2.156028e+03,5.956572e+03
2.158920e+03,5.918888e+03
2.161813e+03,5.932163e+03
2.164706e+03,5.886873e+03
2.167598e+03,5.843061e+03
2.170491e+03,5.843182e+03
2.173384e+03,5.846835e+03
2.176277e+03,5.823579e+03
2.179169e+03,5.769269e+03
2.182062e+03,5.765078e+03
2.184955e+03,5.755959e+03
2.187847e+03,5.772107e+03
2.190740e+03,5.718379e+03
2.193633e+03,5.711178e+03
2.196525e+03,5.692082e+03
2.199418e+03,5.653967e+03
2.202311e+03,5.642085e+03
2.205204e+03,5.618702e+03
2.208096e+03,5.604378e+03
2.210989e+03,5.519650e+03
2.213882e+03,5.538446e+03
2.216774e+03,5.570147e+03
2.219667e+03,5.544944e+03
2.222560e+03,5.491859e+03
2.225452e+03,5.421458e+03
2.228345e+03,5.491906e+03
2.231238e+03,5.468227e+03
2.234131e+03,5.414567e+03
2.237023e+03,5.414589e+03
2.239916e+03,5.376998e+03
2.242809e+03,5.352042e+03
2.245701e+03,5.309120e+03
2.248594e+03,5.352420e+03
2.251487e+03,5.320219e+03
2.254379e+03,5.316619e+03
2.257272e+03,5.254147e+03
2.260165e+03,5.252019e+03
2.263058e+03,5.218913e+03
2.265950e+03,5.239283e+03
2.268843e+03,5.166969e+03
2.271736e+03,5.168743e+03
2.274628e+03,5.184366e+03
2.277521e+03,5.159180e+03
2.280414e+03,5.123161e+03
2.283306e+03,5.127289e+03
2.286199e+03,5.080287e+03
2.289092e+03,5.082469e+03
2.291985e+03,5.079329e+03
2.294877e+03,5.051386e+03
2.297770e+03,5.050485e+03
2.300663e+03,5.041794e+03
2.303555e+03,4.998487e+03
2.306448e+03,4.975905e+03
2.309341e+03,4.968389e+03
2.312233e+03,4.976163e+03
2.315126e+03,4.951550e+03
2.318019e+03,4.932970e+03
2.320912e+03,4.886216e+03
2.323804e+03,4.917419e+03
2.326697e+03,4.893872e+03
2.329590e+03,4.864978e+03
2.332482e+03,4.846880e+03
2.335375e+03,4.813749e+03
2.338268e+03,4.807789e+03
2.341160e+03,4.799476e+03
2.344053e+03,4.792306e+03
2.346946e+03,4.779959e+03
2.349839e+03,4.758806e+03
2.352731e+03,4.682375e+03
2.355624e+03,4.715858e+03
2.358517e+03,4.723800e+03
2.361409e+03,4.693748e+03
2.364302e+03,4.678487e+03
2.367195e+03,4.634508e+03
2.370087e+03,4.639805e+03
2.372980e+03,4.645011e+03
2.375873e+03,4.625127e+03
2.378766e+03,4.597639e+03
2.381658e+03,4.547512e+03
2.384551e+03,4.576751e+03
2.387444e+03,4.537888e+03
2.390336e+03,4.535492e+03
2.393229e+03,4.527444e+03
2.396122e+03,4.520223e+03
2.399014e+03,4.485170e+03
2.401907e+03,4.483422e+03
2.404800e+03,4.474131e+03
2.407693e+03,4.479540e+03
2.410585e+03,4.453455e+03
2.413478e+03,4.405073e+03
2.416371e+03,4.429514e+03
2.419263e+03,4.394878e+03
2.422156e+03,4.405063e+03
2.425049e+03,4.378569e+03
2.427941e+03,4.346522e+03
2.430834e+03,4.323198e+03
2.433727e+03,4.332396e+03
2.436620e+03,4.329363e+03
2.439512e+03,4.309960e+03
2.442405e+03,4.275951e+03
2.445298e+03,4.270415e+03
2.448190e+03,4.264227e+03
2.451083e+03,4.235041e+03
2.453976e+03,4.250855e+03
2.456868e+03,4.217286e+03
2.459761e+03,4.195340e+03
2.462654e+03,4.206778e+03
2.465547e+03,4.191794e+03
2.468439e+03,4.179619e+03
2.471332e+03,4.155694e+03
2.474225e+03,4.134486e+03
2.477117e+03,4.128100e+03
2.480010e+03,4.134316e+03
2.482903e+03,4.134819e+03
2.485795e+03,4.102143e+03
2.488688e+03,4.054571e+03
2.491581e+03,4.066502e+03
2.494474e+03,4.060077e+03
2.497366e+03,4.033530e+03
2.500259e+03,4.053173e+03
2.503152e+03,4.030017e+03
2.506044e+03,3.998206e+03
2.508937e+03,3.977018e+03
2.511830e+03,3.999894e+03
2.514722e+03,4.011946e+03
2.517615e+03,3.956628e+03
2.520508e+03,3.943148e+03
2.523401e+03,3.919687e+03
2.526293e+03,3.903374e+03
2.529186e+03,3.934423e+03
2.532079e+03,3.913460e+03
2.534971e+03,3.900577e+03
2.537864e+03,3.863459e+03
2.540757e+03,3.857298e+03
2.543649e+03,3.874344e+03
2.546542e+03,3.847836e+03
2.549435e+03,3.851648e+03
2.552328e+03,3.816559e+03
2.555220e+03,3.820458e+03
2.558113e+03,3.808605e+03
2.561006e+03,3.788883e+03
2.563898e+03,3.766205e+03
2.566791e+03,3.789160e+03
2.569684e+03,3.735211e+03
2.572576e+03,3.779835e+03
2.575469e+03,3.764955e+03
2.578362e+03,3.722398e+03
2.581255e+03,3.760578e+03
2.584147e+03,3.705896e+03
2.587040e+03,3.692032e+03
2.589933e+03,3.686705e+03
2.592825e+03,3.684058e+03
2.595718e+03,3.706772e+03
2.598611e+03,3.665636e+03
2.601503e+03,3.646402e+03
2.604396e+03,3.624707e+03
2.607289e+03,3.623651e+03
2.610182e+03,3.644265e+03
2.613074e+03,3.617856e+03
2.615967e+03,3.590158e+03
2.618860e+03,3.572538e+03
2.621752e+03,3.597737e+03
2.624645e+03,3.598772e+03
2.627538e+03,3.564696e+03
2.630430e+03,3.548156e+03
2.633323e+03,3.534044e+03
2.636216e+03,3.503361e+03
2.639109e+03,3.553776e+03
2.642001e+03,3.529928e+03
2.644894e+03,3.534180e+03
2.647787e+03,3.505858e+03
2.650679e+03,3.488617e+03
2.653572e+03,3.448891e+03
2.656465e+03,3.478122e+03
2.659357e+03,3.469736e+03
2.662250e+03,3.414564e+03
2.665143e+03,3.433879e+03
2.668036e+03,3.444843e+03
2.670928e+03,3.419548e+03
2.673821e+03,3.417044e+03
2.676714e+03,3.331458e+03
2.679606e+03,3.392666e+03
2.682499e+03,3.381642e+03
2.685392e+03,3.365834e+03
2.688284e+03,3.386392e+03
2.691177e+03,3.372504e+03
2.694070e+03,3.336496e+03
2.696963e+03,3.374948e+03
2.699855e+03,3.335261e+03
2.702748e+03,3.325885e+03
2.705641e+03,3.331143e+03
2.708533e+03,3.303604e+03
2.711426e+03,3.296205e+03
2.714319e+03,3.303720e+03
2.717211e+03,3.269464e+03
2.720104e+03,3.265902e+03
2.722997e+03,3.273878e+03
2.725890e+03,3.261900e+03
2.728782e+03,3.226341e+03
2.731675e+03,3.281459e+03
2.734568e+03,3.236357e+03
2.737460e+03,3.217424e+03
2.740353e+03,3.235516e+03
2.743246e+03,3.209068e+03
2.746138e+03,3.208267e+03
2.749031e+03,3.186577e+03
2.751924e+03,3.211927e+03
2.754817e+03,3.188793e+03
2.757709e+03,3.155393e+03
2.760602e+03,3.139335e+03
2.763495e+03,3.149228e+03
2.766387e+03,3.145516e+03
2.769280e+03,3.121446e+03
2.772173e+03,3.118865e+03
2.775065e+03,3.130253e+03
2.777958e+03,3.119634e+03
2.780851e+03,3.096820e+03
2.783744e+03,3.116907e+03
2.786636e+03,3.066944e+03
2.789529e+03,3.090804e+03
2.792422e+03,3.077682e+03
2.795314e+03,3.041079e+03
2.798207e+03,3.055078e+03
2.801100e+03,3.036851e+03
2.803992e+03,3.037986e+03
2.806885e+03,3.065963e+03
2.809778e+03,2.974533e+03
2.812671e+03,3.020102e+03
2.815563e+03,3.023629e+03
2.818456e+03,3.042929e+03
2.821349e+03,2.988055e+03
2.824241e+03,3.012178e+03
2.827134e+03,3.012314e+03
2.830027e+03,2.967744e+03
2.832919e+03,2.986383e+03
2.835812e+03,2.997195e+03
2.838705e+03,2.998326e+03
2.841598e+03,2.962739e+03
2.844490e+03,2.942716e+03
2.847383e+03,2.924032e+03
2.850276e+03,2.931238e+03
2.853168e+03,2.965572e+03
2.856061e+03,2.930138e+03
2.858954e+03,2.936851e+03
2.861846e+03,2.915812e+03
2.864739e+03,2.912201e+03
2.867632e+03,2.925430e+03
2.870525e+03,2.939992e+03
2.873417e+03,2.921249e+03
2.876310e+03,2.880241e+03
2.879203e+03,2.883832e+03
2.882095e+03,2.898266e+03
2.884988e+03,2.867222e+03
2.887881e+03,2.879425e+03
2.890773e+03,2.901519e+03
2.893666e+03,2.883164e+03
2.896559e+03,2.849924e+03
2.899452e+03,2.868428e+03
2.902344e+03,2.831843e+03
2.905237e+03,2.835388e+03
2.908130e+03,2.833706e+03
2.911022e+03,2.817189e+03
2.913915e+03,2.834763e+03
2.916808e+03,2.788149e+03
2.919700e+03,2.803399e+03
2.922593e+03,2.814971e+03
2.925486e+03,2.790591e+03
2.928379e+03,2.820638e+03
2.931271e+03,2.797540e+03
2.934164e+03,2.773956e+03
2.937057e+03,2.765103e+03
2.939949e+03,2.746585e+03
2.942842e+03,2.769634e+03
2.945735e+03,2.755920e+03
2.948627e+03,2.760521e+03
2.951520e+03,2.739362e+03
2.954413e+03,2.772150e+03
2.957306e+03,2.770309e+03
2.960198e+03,2.705828e+03
2.963091e+03,2.709544e+03
2.965984e+03,2.714607e+03
2.968876e+03,2.723124e+03
2.971769e+03,2.709886e+03
2.974662e+03,2.689678e+03
2.977554e+03,2.667162e+03
2.980447e+03,2.670349e+03
2.983340e+03,2.660919e+03
2.986233e+03,2.659374e+03
2.989125e+03,2.678901e+03
2.992018e+03,2.637273e+03
2.994911e+03,2.653619e+03
2.997803e+03,2.656988e+03
3.000696e+03,2.579182e+03
3.003589e+03,2.590161e+03
3.006481e+03,2.640038e+03
3.009374e+03,2.622296e+03
3.012267e+03,2.610476e+03
3.015160e+03,2.582042e+03
3.018052e+03,2.612822e+03
3.020945e+03,2.619454e+03
3.023838e+03,2.601897e+03
3.026730e+03,2.624513e+03
3.029623e+03,2.565062e+03
3.032516e+03,2.572415e+03
3.035408e+03,2.577583e+03
3.038301e+03,2.598918e+03
3.041194e+03,2.572298e+03
3.044087e+03,2.579106e+03
3.046979e+03,2.547530e+03
3.049872e+03,2.624383e+03
3.052765e+03,2.588074e+03
3.055657e+03,2.573335e+03
3.058550e+03,2.534915e+03
3.061443e+03,2.588558e+03
3.064335e+03,2.581419e+03
3.067228e+03,2.572942e+03
3.070121e+03,2.532327e+03
3.073014e+03,2.567171e+03
3.075906e+03,2.527187e+03
3.078799e+03,2.579405e+03
3.081692e+03,2.474970e+03
3.084584e+03,2.495628e+03
3.087477e+03,2.480784e+03
3.090370e+03,2.524228e+03
3.093262e+03,2.483035e+03
3.096155e+03,2.503222e+03
3.099048e+03,2.544505e+03
3.101941e+03,2.509333e+03
3.104833e+03,2.489069e+03
3.107726e+03,2.499919e+03
3.110619e+03,2.481799e+03
3.113511e+03,2.498425e+03
3.116404e+03,2.533249e+03
3.119297e+03,2.494913e+03
3.122189e+03,2.446532e+03
3.125082e+03,2.523890e+03
3.127975e+03,2.489863e+03
3.130868e+03,2.570218e+03
3.133760e+03,2.523155e+03
3.136653e+03,2.560324e+03
3.139546e+03,2.518199e+03
3.142438e+03,2.483506e+03
3.145331e+03,2.465789e+03
3.148224e+03,2.458380e+03
3.151116e+03,2.440454e+03
3.154009e+03,2.540155e+03
3.156902e+03,2.478203e+03
3.159795e+03,2.502140e+03
3.162687e+03,2.451833e+03
3.165580e+03,2.464778e+03
3.168473e+03,2.488477e+03
3.171365e+03,2.494542e+03
3.174258e+03,2.475829e+03
3.177151e+03,2.515136e+03
3.180043e+03,2.504139e+03
3.182936e+03,2.449525e+03
3.185829e+03,2.504257e+03
3.188722e+03,2.536678e+03
3.191614e+03,2.500030e+03
3.194507e+03,2.441036e+03
3.197400e+03,2.480697e+03
3.200292e+03,2.553432e+03
3.203185e+03,0.000000e+00
3.206078e+03,0.000000e+00
3.208970e+03,0.000000e+00
3.211863e+03,0.000000e+00
3.214756e+03,0.000000e+00
3.217649e+03,0.000000e+00
3.220541e+03,0.000000e+00
3.223434e+03,0.000000e+00
3.226327e+03,0.000000e+00
3.229219e+03,0.000000e+00
3.232112e+03,0.000000e+00
3.235005e+03,0.000000e+00
3.237897e+03,0.000000e+00
3.240790e+03,0.000000e+00
3.243683e+03,0.000000e+00
3.246576e+03,0.000000e+00
3.249468e+03,0.000000e+00
3.252361e+03,0.000000e+00
3.255254e+03,0.000000e+00
3.258146e+03,0.000000e+00
3.261039e+03,0.000000e+00
3.263932e+03,0.000000e+00
3.266824e+03,0.000000e+00
3.269717e+03,0.000000e+00
3.272610e+03,0.000000e+00
3.275503e+03,0.000000e+00
3.278395e+03,0.000000e+00
3.281288e+03,0.000000e+00
3.284181e+03,0.000000e+00
3.287073e+03,0.000000e+00
3.289966e+03,0.000000e+00
3.292859e+03,0.000000e+00
3.295751e+03,0.000000e+00
3.298644e+03,0.000000e+00
3.301537e+03,0.000000e+00
3.304430e+03,0.000000e+00
3.307322e+03,0.000000e+00
3.310215e+03,0.000000e+00
3.313108e+03,0.000000e+00
3.316000e+03,0.000000e+00
3.318893e+03,0.000000e+00
3.321786e+03,0.000000e+00
3.324678e+03,0.000000e+00
3.327571e+03,0.000000e+00
3.330464e+03,0.000000e+00
3.333357e+03,0.000000e+00
3.336249e+03,0.000000e+00
3.339142e+03,0.000000e+00
3.342035e+03,0.000000e+00
3.344927e+03,0.000000e+00
3.347820e+03,0.000000e+00
3.350713e+03,0.000000e+00
3.353605e+03,0.000000e+00
3.356498e+03,0.000000e+00
3.359391e+03,0.000000e+00
3.362284e+03,0.000000e+00
3.365176e+03,0.000000e+00
3.368069e+03,0.000000e+00
3.370962e+03,0.000000e+00
3.373854e+03,0.000000e+00
3.376747e+03,0.000000e+00
3.379640e+03,0.000000e+00
3.382532e+03,0.000000e+00
3.385425e+03,0.000000e+00
3.388318e+03,0.000000e+00
3.391211e+03,0.000000e+00
3.394103e+03,0.000000e+00
3.396996e+03,0.000000e+00
3.399889e+03,0.000000e+00
3.402781e+03,0.000000e+00
3.405674e+03,0.000000e+00
3.408567e+03,0.000000e+00
3.411459e+03,0.000000e+00
3.414352e+03,0.000000e+00
3.417245e+03,0.000000e+00
3.420138e+03,0.000000e+00
3.423030e+03,0.000000e+00
3.425923e+03,0.000000e+00
3.428816e+03,0.000000e+00
3.431708e+03,0.000000e+00
3.434601e+03,0.000000e+00
3.437494e+03,0.000000e+00
3.440386e+03,0.000000e+00
3.443279e+03,0.000000e+00
3.446172e+03,0.000000e+00
3.449065e+03,0.000000e+00
3.451957e+03,0.000000e+00
3.454850e+03,0.000000e+00
3.457743e+03,0.000000e+00
3.460635e+03,0.000000e+00
3.463528e+03,0.000000e+00
3.466421e+03,0.000000e+00
3.469313e+03,0.000000e+00
3.472206e+03,0.000000e+00
3.475099e+03,0.000000e+00
3.477992e+03,0.000000e+00
3.480884e+03,0.000000e+00
3.483777e+03,0.000000e+00
3.486670e+03,0.000000e+00
3.489563e+03,0.000000e+00
3.492455e+03,0.000000e+00
3.495348e+03,0.000000e+00
3.498240e+03,0.000000e+00
3.500169e+03,0.000000e+00