File: RAMAN_data/19072023_r3/black fibre3.CSV
9.931763e+01,0.000000e+00
1.022103e+02,0.000000e+00
1.051030e+02,0.000000e+00
1.079957e+02,0.000000e+00
1.108884e+02,0.000000e+00
1.137811e+02,0.000000e+00
1.166738e+02,0.000000e+00
1.195665e+02,0.000000e+00
1.224592e+02,0.000000e+00
1.253519e+02,0.000000e+00
1.282446e+02,0.000000e+00
1.311373e+02,0.000000e+00
1.340300e+02,0.000000e+00
1.369227e+02,0.000000e+00
1.398154e+02,0.000000e+00
1.427081e+02,0.000000e+00
1.456008e+02,0.000000e+00
1.484935e+02,0.000000e+00
1.513862e+02,0.000000e+00
1.542789e+02,0.000000e+00
1.571716e+02,0.000000e+00
1.600643e+02,0.000000e+00
1.629570e+02,0.000000e+00
1.658497e+02,0.000000e+00
1.687424e+02,0.000000e+00
1.716351e+02,0.000000e+00
1.745278e+02,0.000000e+00
1.774205e+02,0.000000e+00
1.803132e+02,0.000000e+00
1.832059e+02,0.000000e+00
1.860986e+02,0.000000e+00
1.889913e+02,0.000000e+00
1.918840e+02,0.000000e+00
1.947767e+02,0.000000e+00
1.976694e+02,0.000000e+00
2.005621e+02,1.565465e+03
2.034548e+02,1.566784e+03
2.063475e+02,1.580613e+03
2.092402e+02,1.576950e+03
2.121329e+02,1.567214e+03
2.150256e+02,1.579552e+03
2.179183e+02,1.574784e+03
2.208110e+02,1.579638e+03
2.237037e+02,1.578621e+03
2.265964e+02,1.572121e+03
2.294892e+02,1.575950e+03
2.323819e+02,1.574252e+03
2.352746e+02,1.587231e+03
2.381673e+02,1.589472e+03
2.410600e+02,1.585802e+03
2.439527e+02,1.569709e+03
2.468454e+02,1.591242e+03
2.497381e+02,1.584741e+03
2.526308e+02,1.592661e+03
2.555235e+02,1.594411e+03
2.584161e+02,1.587264e+03
2.613088e+02,1.580172e+03
2.642015e+02,1.591438e+03
2.670942e+02,1.593383e+03
2.699869e+02,1.594185e+03
2.728796e+02,1.596624e+03
2.757723e+02,1.589371e+03
2.786650e+02,1.595779e+03
2.815577e+02,1.605947e+03
2.844504e+02,1.583434e+03
2.873431e+02,1.598799e+03
2.902358e+02,1.600868e+03
2.931285e+02,1.597640e+03
2.960212e+02,1.599387e+03
2.989139e+02,1.602969e+03
3.018066e+02,1.602986e+03
3.046993e+02,1.606962e+03
3.075920e+02,1.594548e+03
3.104847e+02,1.597103e+03
3.133774e+02,1.604253e+03
3.162701e+02,1.599730e+03
3.191628e+02,1.608074e+03
3.220555e+02,1.604840e+03
3.249482e+02,1.617153e+03
3.278409e+02,1.610254e+03
3.307336e+02,1.602781e+03
3.336263e+02,1.603907e+03
3.365190e+02,1.603736e+03
3.394117e+02,1.601112e+03
3.423044e+02,1.617025e+03
3.451971e+02,1.601920e+03
3.480898e+02,1.602068e+03
3.509825e+02,1.603257e+03
3.538752e+02,1.611172e+03
3.567680e+02,1.610939e+03
3.596607e+02,1.611421e+03
3.625534e+02,1.613937e+03
3.654461e+02,1.601197e+03
3.683388e+02,1.605241e+03
3.712315e+02,1.621378e+03
3.741242e+02,1.625203e+03
3.770169e+02,1.617154e+03
3.799096e+02,1.616959e+03
3.828023e+02,1.612299e+03
3.856950e+02,1.606770e+03
3.885877e+02,1.606543e+03
3.914804e+02,1.592188e+03
3.943731e+02,1.592899e+03
3.972658e+02,1.590088e+03
4.001585e+02,1.601141e+03
4.030512e+02,1.613093e+03
4.059439e+02,1.602998e+03
4.088366e+02,1.607641e+03
4.117293e+02,1.601848e+03
4.146220e+02,1.596489e+03
4.175147e+02,1.597152e+03
4.204074e+02,1.606578e+03
4.233001e+02,1.612068e+03
4.261928e+02,1.592475e+03
4.290855e+02,1.599808e+03
4.319782e+02,1.607394e+03
4.348709e+02,1.610515e+03
4.377636e+02,1.606996e+03
4.406563e+02,1.602015e+03
4.435490e+02,1.603227e+03
4.464417e+02,1.599363e+03
4.493344e+02,1.597680e+03
4.522271e+02,1.592926e+03
4.551198e+02,1.602996e+03
4.580125e+02,1.593509e+03
4.609052e+02,1.597647e+03
4.637979e+02,1.602898e+03
4.666906e+02,1.595640e+03
4.695833e+02,1.599182e+03
4.724760e+02,1.591652e+03
4.753687e+02,1.588198e+03
4.782614e+02,1.580664e+03
4.811541e+02,1.587968e+03
4.840468e+02,1.577999e+03
4.869395e+02,1.591448e+03
4.898322e+02,1.594268e+03
4.927249e+02,1.586415e+03
4.956176e+02,1.587753e+03
4.985103e+02,1.590020e+03
5.014030e+02,1.586488e+03
5.042957e+02,1.574929e+03
5.071884e+02,1.572841e+03
5.100811e+02,1.570826e+03
5.129738e+02,1.573401e+03
5.158665e+02,1.579796e+03
5.187592e+02,1.584895e+03
5.216519e+02,1.569925e+03
5.245446e+02,1.567918e+03
5.274373e+02,1.571507e+03
5.303300e+02,1.577095e+03
5.332227e+02,1.558457e+03
5.361154e+02,1.573410e+03
5.390081e+02,1.563840e+03
5.419008e+02,1.559460e+03
5.447935e+02,1.563437e+03
5.476862e+02,1.558078e+03
5.505789e+02,1.570988e+03
5.534716e+02,1.568158e+03
5.563643e+02,1.549795e+03
5.592570e+02,1.563414e+03
5.621497e+02,1.549195e+03
5.650424e+02,1.545504e+03
5.679351e+02,1.561052e+03
5.708278e+02,1.545141e+03
5.737205e+02,1.546858e+03
5.766132e+02,1.557322e+03
5.795059e+02,1.536393e+03
5.823986e+02,1.548692e+03
5.852913e+02,1.538375e+03
5.881840e+02,1.542343e+03
5.910767e+02,1.545211e+03
5.939694e+02,1.543965e+03
5.968621e+02,1.539987e+03
5.997548e+02,1.539477e+03
6.026475e+02,1.535900e+03
6.055402e+02,1.537439e+03
6.084329e+02,1.547470e+03
6.113256e+02,1.536889e+03
6.142183e+02,1.525268e+03
6.171110e+02,1.544560e+03
6.200037e+02,1.530206e+03
6.228964e+02,1.529422e+03
6.257891e+02,1.533960e+03
6.286818e+02,1.527718e+03
6.315745e+02,1.522479e+03
6.344672e+02,1.508531e+03
6.373599e+02,1.510783e+03
6.402526e+02,1.502631e+03
6.431453e+02,1.517078e+03
6.460380e+02,1.500527e+03
6.489307e+02,1.507034e+03
6.518234e+02,1.500881e+03
6.547161e+02,1.505803e+03
6.576088e+02,1.503660e+03
6.605015e+02,1.488792e+03
6.633942e+02,1.501914e+03
6.662869e+02,1.497446e+03
6.691796e+02,1.497008e+03
6.720723e+02,1.494764e+03
6.749650e+02,1.500516e+03
6.778577e+02,1.482414e+03
6.807504e+02,1.485016e+03
6.836431e+02,1.476202e+03
6.865358e+02,1.483767e+03
6.894285e+02,1.479338e+03
6.923212e+02,1.477732e+03
6.952139e+02,1.483051e+03
6.981066e+02,1.486493e+03
7.009993e+02,1.481033e+03
7.038920e+02,1.465915e+03
7.067847e+02,1.465008e+03
7.096774e+02,1.469026e+03
7.125701e+02,1.472164e+03
7.154628e+02,1.466939e+03
7.183555e+02,1.474964e+03
7.212482e+02,1.464077e+03
7.241409e+02,1.457502e+03
7.270336e+02,1.472272e+03
7.299263e+02,1.453581e+03
7.328190e+02,1.458100e+03
7.357117e+02,1.444450e+03
7.386044e+02,1.447052e+03
7.414971e+02,1.453901e+03
7.443898e+02,1.453889e+03
7.472825e+02,1.460466e+03
7.501752e+02,1.443038e+03
7.530679e+02,1.446685e+03
7.559606e+02,1.440031e+03
7.588533e+02,1.438734e+03
7.617460e+02,1.440475e+03
7.646387e+02,1.441590e+03
7.675314e+02,1.445342e+03
7.704241e+02,1.433506e+03
7.733168e+02,1.418587e+03
7.762095e+02,1.425505e+03
7.791022e+02,1.426089e+03
7.819949e+02,1.423310e+03
7.848876e+02,1.413382e+03
7.877803e+02,1.416608e+03
7.906730e+02,1.417055e+03
7.935657e+02,1.411925e+03
7.964584e+02,1.427749e+03
7.993511e+02,1.409484e+03
8.022438e+02,1.406429e+03
8.051365e+02,1.407113e+03
8.080292e+02,1.414422e+03
8.109219e+02,1.399261e+03
8.138146e+02,1.401382e+03
8.167073e+02,1.410509e+03
8.196000e+02,1.402148e+03
8.224927e+02,1.395922e+03
8.253854e+02,1.394196e+03
8.282781e+02,1.398997e+03
8.311708e+02,1.392792e+03
8.340635e+02,1.398923e+03
8.369562e+02,1.393146e+03
8.398489e+02,1.389053e+03
8.427416e+02,1.397070e+03
8.456343e+02,1.379814e+03
8.485270e+02,1.383918e+03
8.514197e+02,1.372314e+03
8.543124e+02,1.378280e+03
8.572051e+02,1.384152e+03
8.600978e+02,1.371016e+03
8.629905e+02,1.387720e+03
8.658832e+02,1.372688e+03
8.687759e+02,1.374831e+03
8.716686e+02,1.372518e+03
8.745613e+02,1.383723e+03
8.774540e+02,1.380474e+03
8.803467e+02,1.378048e+03
8.832394e+02,1.373229e+03
8.861321e+02,1.364450e+03
8.890248e+02,1.367777e+03
8.919175e+02,1.364720e+03
8.948102e+02,1.364738e+03
8.977029e+02,1.354183e+03
9.005956e+02,1.352789e+03
9.034883e+02,1.353133e+03
9.063810e+02,1.340694e+03
9.092737e+02,1.346531e+03
9.121664e+02,1.340083e+03
9.150591e+02,1.335755e+03
9.179518e+02,1.339530e+03
9.208445e+02,1.338743e+03
9.237372e+02,1.333324e+03
9.266299e+02,1.325369e+03
9.295226e+02,1.324137e+03
9.324153e+02,1.325432e+03
9.353080e+02,1.324118e+03
9.382007e+02,1.329538e+03
9.410934e+02,1.321759e+03
9.439861e+02,1.328661e+03
9.468788e+02,1.319825e+03
9.497715e+02,1.322699e+03
9.526642e+02,1.315215e+03
9.555569e+02,1.313317e+03
9.584496e+02,1.316159e+03
9.613423e+02,1.309750e+03
9.642350e+02,1.312841e+03
9.671277e+02,1.304428e+03
9.700204e+02,1.304945e+03
9.729131e+02,1.305466e+03
9.758058e+02,1.308886e+03
9.786985e+02,1.300479e+03
9.815912e+02,1.302876e+03
9.844839e+02,1.293595e+03
9.873766e+02,1.296129e+03
9.902693e+02,1.303298e+03
9.931620e+02,1.295132e+03
9.960547e+02,1.292985e+03
9.989474e+02,1.296129e+03
1.001840e+03,1.287216e+03
1.004733e+03,1.280985e+03
1.007626e+03,1.283299e+03
1.010518e+03,1.279394e+03
1.013411e+03,1.289500e+03
1.016304e+03,1.262684e+03
1.019196e+03,1.273840e+03
1.022089e+03,1.274718e+03
1.024982e+03,1.273314e+03
1.027875e+03,1.278517e+03
1.030767e+03,1.268129e+03
1.033660e+03,1.272681e+03
1.036552e+03,1.273676e+03
1.039445e+03,1.262923e+03
1.042338e+03,1.259355e+03
1.045231e+03,1.269182e+03
1.048123e+03,1.269834e+03
1.051016e+03,1.259760e+03
1.053909e+03,1.257941e+03
1.056802e+03,1.268897e+03
1.059694e+03,1.253705e+03
1.062587e+03,1.253360e+03
1.065479e+03,1.264529e+03
1.068372e+03,1.254964e+03
1.071265e+03,1.248831e+03
1.074158e+03,1.263281e+03
1.077050e+03,1.242122e+03
1.079943e+03,1.243911e+03
1.082836e+03,1.254113e+03
1.085729e+03,1.255770e+03
1.088621e+03,1.267127e+03
1.091514e+03,1.266527e+03
1.094406e+03,1.257542e+03
1.097299e+03,1.258580e+03
1.100192e+03,1.242320e+03
1.103085e+03,1.242679e+03
1.105977e+03,1.242454e+03
1.108870e+03,1.239733e+03
1.111763e+03,1.241550e+03
1.114656e+03,1.239208e+03
1.117548e+03,1.243722e+03
1.120441e+03,1.238290e+03
1.123334e+03,1.234255e+03
1.126226e+03,1.228542e+03
1.129119e+03,1.225745e+03
1.132012e+03,1.220413e+03
1.134904e+03,1.217560e+03
1.137797e+03,1.233018e+03
1.140690e+03,1.215174e+03
1.143583e+03,1.206498e+03
1.146475e+03,1.210910e+03
1.149368e+03,1.215727e+03
1.152261e+03,1.212766e+03
1.155153e+03,1.210237e+03
1.158046e+03,1.202056e+03
1.160939e+03,1.202023e+03
1.163831e+03,1.202645e+03
1.166724e+03,1.195695e+03
1.169617e+03,1.190591e+03
1.172510e+03,1.190953e+03
1.175402e+03,1.190332e+03
1.178295e+03,1.194605e+03
1.181188e+03,1.193952e+03
1.184080e+03,1.183284e+03
1.186973e+03,1.185282e+03
1.189866e+03,1.174284e+03
1.192758e+03,1.185998e+03
1.195651e+03,1.175343e+03
1.198544e+03,1.181648e+03
1.201437e+03,1.183693e+03
1.204329e+03,1.168702e+03
1.207222e+03,1.177682e+03
1.210115e+03,1.175797e+03
1.213007e+03,1.184525e+03
1.215900e+03,1.167167e+03
1.218793e+03,1.167615e+03
1.221685e+03,1.170141e+03
1.224578e+03,1.168717e+03
1.227471e+03,1.168660e+03
1.230364e+03,1.171923e+03
1.233256e+03,1.166393e+03
1.236149e+03,1.160263e+03
1.239042e+03,1.160590e+03
1.241934e+03,1.166508e+03
1.244827e+03,1.152713e+03
1.247720e+03,1.167054e+03
1.250612e+03,1.159145e+03
1.253505e+03,1.155253e+03
1.256398e+03,1.160721e+03
1.259291e+03,1.166606e+03
1.262183e+03,1.157199e+03
1.265076e+03,1.160274e+03
1.267969e+03,1.150790e+03
1.270861e+03,1.154995e+03
1.273754e+03,1.161083e+03
1.276647e+03,1.151749e+03
1.279539e+03,1.150391e+03
1.282432e+03,1.141406e+03
1.285325e+03,1.151684e+03
1.288218e+03,1.147691e+03
1.291110e+03,1.156314e+03
1.294003e+03,1.149972e+03
1.296896e+03,1.135085e+03
1.299788e+03,1.139674e+03
1.302681e+03,1.140233e+03
1.305574e+03,1.149176e+03
1.308466e+03,1.135572e+03
1.311359e+03,1.146242e+03
1.314252e+03,1.139172e+03
1.317145e+03,1.143876e+03
1.320037e+03,1.147458e+03
1.322930e+03,1.131521e+03
1.325823e+03,1.138935e+03
1.328715e+03,1.139212e+03
1.331608e+03,1.137379e+03
1.334501e+03,1.136842e+03
1.337393e+03,1.140293e+03
1.340286e+03,1.135973e+03
1.343179e+03,1.133990e+03
1.346072e+03,1.124271e+03
1.348964e+03,1.128099e+03
1.351857e+03,1.125665e+03
1.354750e+03,1.126265e+03
1.357642e+03,1.118118e+03
1.360535e+03,1.130341e+03
1.363428e+03,1.125437e+03
1.366320e+03,1.125823e+03
1.369213e+03,1.121981e+03
1.372106e+03,1.128931e+03
1.374999e+03,1.120907e+03
1.377891e+03,1.119945e+03
1.380784e+03,1.120415e+03
1.383677e+03,1.112889e+03
1.386569e+03,1.108511e+03
1.389462e+03,1.108444e+03
1.392355e+03,1.098838e+03
1.395247e+03,1.102988e+03
1.398140e+03,1.103545e+03
1.401033e+03,1.094952e+03
1.403926e+03,1.104511e+03
1.406818e+03,1.098478e+03
1.409711e+03,1.099409e+03
1.412604e+03,1.096093e+03
1.415496e+03,1.091078e+03
1.418389e+03,1.085349e+03
1.421282e+03,1.086850e+03
1.424174e+03,1.088679e+03
1.427067e+03,1.085929e+03
1.429960e+03,1.082699e+03
1.432853e+03,1.081622e+03
1.435745e+03,1.080175e+03
1.438638e+03,1.075582e+03
1.441531e+03,1.074939e+03
1.444423e+03,1.080138e+03
1.447316e+03,1.075742e+03
1.450209e+03,1.069523e+03
1.453101e+03,1.070647e+03
1.455994e+03,1.069328e+03
1.458887e+03,1.077893e+03
1.461780e+03,1.075341e+03
1.464672e+03,1.068605e+03
1.467565e+03,1.070045e+03
1.470458e+03,1.066176e+03
1.473350e+03,1.078245e+03
1.476243e+03,1.066840e+03
1.479136e+03,1.063960e+03
1.482028e+03,1.060306e+03
1.484921e+03,1.063103e+03
1.487814e+03,1.059882e+03
1.490707e+03,1.073950e+03
1.493599e+03,1.053425e+03
1.496492e+03,1.048699e+03
1.499385e+03,1.040934e+03
1.502277e+03,1.043103e+03
1.505170e+03,1.044701e+03
1.508063e+03,1.048305e+03
1.510955e+03,1.040863e+03
1.513848e+03,1.042881e+03
1.516741e+03,1.047768e+03
1.519634e+03,1.047240e+03
1.522526e+03,1.045583e+03
1.525419e+03,1.045928e+03
1.528312e+03,1.028109e+03
1.531204e+03,1.034379e+03
1.534097e+03,1.038565e+03
1.536990e+03,1.039110e+03
1.539882e+03,1.027418e+03
1.542775e+03,1.042340e+03
1.545668e+03,1.023284e+03
1.548561e+03,1.034206e+03
1.551453e+03,1.034217e+03
1.554346e+03,1.025188e+03
1.557239e+03,1.031719e+03
1.560131e+03,1.012979e+03
1.563024e+03,1.026858e+03
1.565917e+03,1.026251e+03
1.568809e+03,1.029076e+03
1.571702e+03,1.015319e+03
1.574595e+03,1.011300e+03
1.577488e+03,1.014238e+03
1.580380e+03,1.012884e+03
1.583273e+03,1.008238e+03
1.586166e+03,1.004544e+03
1.589058e+03,1.007525e+03
1.591951e+03,1.006084e+03
1.594844e+03,1.001294e+03
1.597736e+03,1.000360e+03
1.600629e+03,1.002975e+03
1.603522e+03,1.006695e+03
1.606415e+03,9.931141e+02
1.609307e+03,9.913162e+02
1.612200e+03,9.893172e+02
1.615093e+03,9.834457e+02
1.617985e+03,9.947952e+02
1.620878e+03,9.986377e+02
1.623771e+03,9.816865e+02
1.626663e+03,9.828176e+02
1.629556e+03,9.838422e+02
1.632449e+03,9.794789e+02
1.635342e+03,9.812990e+02
1.638234e+03,9.738680e+02
1.641127e+03,9.635510e+02
1.644020e+03,9.631610e+02
1.646912e+03,9.684840e+02
1.649805e+03,9.765852e+02
1.652698e+03,9.662366e+02
1.655590e+03,9.679335e+02
1.658483e+03,9.594395e+02
1.661376e+03,9.441549e+02
1.664269e+03,9.573613e+02
1.667161e+03,9.502415e+02
1.670054e+03,9.479616e+02
1.672947e+03,9.540728e+02
1.675839e+03,9.518039e+02
1.678732e+03,9.435125e+02
1.681625e+03,9.396816e+02
1.684517e+03,9.485251e+02
1.687410e+03,9.372266e+02
1.690303e+03,9.381478e+02
1.693196e+03,9.458774e+02
1.696088e+03,9.465321e+02
1.698981e+03,9.424232e+02
1.701874e+03,9.319384e+02
1.704766e+03,9.320038e+02
1.707659e+03,9.332716e+02
1.710552e+03,9.311102e+02
1.713444e+03,9.192596e+02
1.716337e+03,9.293599e+02
1.719230e+03,9.298641e+02
1.722123e+03,9.216602e+02
1.725015e+03,9.237763e+02
1.727908e+03,9.181699e+02
1.730801e+03,9.247665e+02
1.733693e+03,9.206104e+02
1.736586e+03,9.155628e+02
1.739479e+03,9.119922e+02
1.742371e+03,9.151424e+02
1.745264e+03,8.981106e+02
1.748157e+03,9.113283e+02
1.751050e+03,9.027878e+02
1.753942e+03,9.079271e+02
1.756835e+03,9.048662e+02
1.759728e+03,9.031175e+02
1.762620e+03,9.013455e+02
1.765513e+03,8.947405e+02
1.768406e+03,9.040657e+02
1.771298e+03,8.980317e+02
1.774191e+03,8.856214e+02
1.777084e+03,8.921937e+02
1.779977e+03,8.874283e+02
1.782869e+03,8.957589e+02
1.785762e+03,8.990587e+02
1.788655e+03,8.774395e+02
1.791547e+03,8.776426e+02
1.794440e+03,8.838527e+02
1.797333e+03,8.824150e+02
1.800225e+03,8.760775e+02
1.803118e+03,8.695599e+02
1.806011e+03,8.783447e+02
1.808904e+03,8.779629e+02
1.811796e+03,8.634648e+02
1.814689e+03,8.738884e+02
1.817582e+03,8.713225e+02
1.820474e+03,8.653839e+02
1.823367e+03,8.594846e+02
1.826260e+03,8.701887e+02
1.829152e+03,8.637318e+02
1.832045e+03,8.607779e+02
1.834938e+03,8.557825e+02
1.837831e+03,8.521760e+02
1.840723e+03,8.406301e+02
1.843616e+03,8.507430e+02
1.846509e+03,8.592990e+02
1.849401e+03,8.576215e+02
1.852294e+03,8.498170e+02
1.855187e+03,8.483632e+02
1.858079e+03,8.507693e+02
1.860972e+03,8.493148e+02
1.863865e+03,8.481906e+02
1.866758e+03,8.503447e+02
1.869650e+03,8.308369e+02
1.872543e+03,8.318820e+02
1.875436e+03,8.349900e+02
1.878328e+03,8.381561e+02
1.881221e+03,8.239376e+02
1.884114e+03,8.311570e+02
1.887006e+03,8.344983e+02
1.889899e+03,8.183514e+02
1.892792e+03,8.203936e+02
1.895685e+03,8.292247e+02
1.898577e+03,8.279537e+02
1.901470e+03,8.162949e+02
1.904363e+03,8.174352e+02
1.907255e+03,8.240641e+02
1.910148e+03,8.191671e+02
1.913041e+03,8.201638e+02
1.915933e+03,8.052566e+02
1.918826e+03,8.065565e+02
1.921719e+03,8.038648e+02
1.924612e+03,8.100240e+02
1.927504e+03,8.080326e+02
1.930397e+03,8.025353e+02
1.933290e+03,8.035311e+02
1.936182e+03,8.001213e+02
1.939075e+03,7.898027e+02
1.941968e+03,7.957616e+02
1.944860e+03,7.905923e+02
1.947753e+03,7.960491e+02
1.950646e+03,7.927833e+02
1.953539e+03,7.931635e+02
1.956431e+03,7.903961e+02
1.959324e+03,7.849124e+02
1.962217e+03,7.860953e+02
1.965109e+03,7.785047e+02
1.968002e+03,7.759650e+02
1.970895e+03,7.729034e+02
1.973787e+03,7.799670e+02
1.976680e+03,7.704993e+02
1.979573e+03,7.819205e+02
1.982466e+03,7.767081e+02
1.985358e+03,7.847160e+02
1.988251e+03,7.784994e+02
1.991144e+03,7.641523e+02
1.994036e+03,7.714460e+02
1.996929e+03,7.661667e+02
1.999822e+03,7.649094e+02
2.002714e+03,7.587384e+02
2.005607e+03,7.629318e+02
2.008500e+03,7.620663e+02
2.011393e+03,7.551324e+02
2.014285e+03,7.520704e+02
2.017178e+03,7.543937e+02
2.020071e+03,7.593229e+02
2.022963e+03,7.452008e+02
2.025856e+03,7.407141e+02
2.028749e+03,7.548924e+02
2.031641e+03,7.460844e+02
2.034534e+03,7.468509e+02
2.037427e+03,7.317222e+02
2.040320e+03,7.305258e+02
2.043212e+03,7.307070e+02
2.046105e+03,7.324775e+02
2.048998e+03,7.355398e+02
2.051890e+03,7.409946e+02
2.054783e+03,7.221078e+02
2.057676e+03,7.303910e+02
2.060568e+03,7.319905e+02
2.063461e+03,7.281603e+02
2.066354e+03,7.307019e+02
2.069247e+03,7.376104e+02
2.072139e+03,7.213234e+02
2.075032e+03,7.218776e+02
2.077925e+03,7.117050e+02
2.080817e+03,7.317185e+02
2.083710e+03,7.171477e+02
2.086603e+03,7.107919e+02
2.089496e+03,7.166080e+02
2.092388e+03,6.992353e+02
2.095281e+03,7.061603e+02
2.098174e+03,7.020308e+02
2.101066e+03,7.059669e+02
2.103959e+03,7.053430e+02
2.106852e+03,7.092840e+02
2.109744e+03,7.024998e+02
2.112637e+03,6.932373e+02
2.115530e+03,6.977471e+02
2.118422e+03,7.023270e+02
2.121315e+03,7.027332e+02
2.124208e+03,6.936995e+02
2.127101e+03,6.942852e+02
2.129993e+03,6.916473e+02
2.132886e+03,6.964933e+02
2.135779e+03,6.895410e+02
2.138671e+03,6.820641e+02
2.141564e+03,6.802309e+02
2.144457e+03,6.803249e+02
2.147350e+03,6.862662e+02
2.150242e+03,6.863367e+02
2.153135e+03,6.702831e+02
2.156028e+03,6.762947e+02
2.158920e+03,6.728676e+02
2.161813e+03,6.720885e+02
2.164706e+03,6.689573e+02
2.167598e+03,6.708538e+02
2.170491e+03,6.634658e+02
2.173384e+03,6.609488e+02
2.176277e+03,6.600285e+02
2.179169e+03,6.577897e+02
2.182062e+03,6.623035e+02
2.184955e+03,6.675124e+02
2.187847e+03,6.687678e+02
2.190740e+03,6.624366e+02
2.193633e+03,6.539133e+02
2.196525e+03,6.493405e+02
2.199418e+03,6.517227e+02
2.202311e+03,6.471432e+02
2.205204e+03,6.577617e+02
2.208096e+03,6.392351e+02
2.210989e+03,6.356470e+02
2.213882e+03,6.376253e+02
2.216774e+03,6.399008e+02
2.219667e+03,6.397884e+02
2.222560e+03,6.368881e+02
2.225452e+03,6.417639e+02
2.228345e+03,6.383031e+02
2.231238e+03,6.280566e+02
2.234131e+03,6.447121e+02
2.237023e+03,6.332747e+02
2.239916e+03,6.306449e+02
2.242809e+03,6.300350e+02
2.245701e+03,6.241964e+02
2.248594e+03,6.209133e+02
2.251487e+03,6.157650e+02
2.254379e+03,6.253868e+02
2.257272e+03,6.184375e+02
2.260165e+03,6.199193e+02
2.263058e+03,6.238977e+02
2.265950e+03,6.181497e+02
2.268843e+03,6.115927e+02
2.271736e+03,6.088004e+02
2.274628e+03,5.993710e+02
2.277521e+03,6.018519e+02
2.280414e+03,6.094780e+02
2.283306e+03,6.007560e+02
2.286199e+03,6.034379e+02
2.289092e+03,5.971822e+02
2.291985e+03,5.996232e+02
2.294877e+03,5.986404e+02
2.297770e+03,6.002800e+02
2.300663e+03,5.958605e+02
2.303555e+03,5.981122e+02
2.306448e+03,6.005765e+02
2.309341e+03,5.959841e+02
2.312233e+03,5.893350e+02
2.315126e+03,5.886584e+02
2.318019e+03,5.826043e+02
2.320912e+03,5.992070e+02
2.323804e+03,5.811568e+02
2.326697e+03,5.840911e+02
2.329590e+03,5.848435e+02
2.332482e+03,5.801161e+02
2.335375e+03,5.682404e+02
2.338268e+03,5.694547e+02
2.341160e+03,5.714725e+02
2.344053e+03,5.770480e+02
2.346946e+03,5.789095e+02
2.349839e+03,5.665076e+02
2.352731e+03,5.836005e+02
2.355624e+03,5.716058e+02
2.358517e+03,5.623885e+02
2.361409e+03,5.717612e+02
2.364302e+03,5.759062e+02
2.367195e+03,5.674016e+02
2.370087e+03,5.675729e+02
2.372980e+03,5.587905e+02
2.375873e+03,5.581252e+02
2.378766e+03,5.533154e+02
2.381658e+03,5.606941e+02
2.384551e+03,5.512549e+02
2.387444e+03,5.578907e+02
2.390336e+03,5.573388e+02
2.393229e+03,5.740241e+02
2.396122e+03,5.453113e+02
2.399014e+03,5.521818e+02
2.401907e+03,5.500013e+02
2.404800e+03,5.484131e+02
2.407693e+03,5.493076e+02
2.410585e+03,5.442715e+02
2.413478e+03,5.403594e+02
2.416371e+03,5.441545e+02
2.419263e+03,5.448746e+02
2.422156e+03,5.370084e+02
2.425049e+03,5.345256e+02
2.427941e+03,5.427452e+02
2.430834e+03,5.383869e+02
2.433727e+03,5.318703e+02
2.436620e+03,5.376263e+02
2.439512e+03,5.333458e+02
2.442405e+03,5.254488e+02
2.445298e+03,5.343210e+02
2.448190e+03,5.188405e+02
2.451083e+03,5.356656e+02
2.453976e+03,5.318195e+02
2.456868e+03,5.215701e+02
2.459761e+03,5.137110e+02
2.462654e+03,5.251595e+02
2.465547e+03,5.201533e+02
2.468439e+03,5.095583e+02
2.471332e+03,5.111559e+02
2.474225e+03,5.159906e+02
2.477117e+03,5.224504e+02
2.480010e+03,5.329327e+02
2.482903e+03,5.214558e+02
2.485795e+03,5.115394e+02
2.488688e+03,5.224701e+02
2.491581e+03,5.193634e+02
2.494474e+03,5.079890e+02
2.497366e+03,5.278819e+02
2.500259e+03,5.064039e+02
2.503152e+03,5.099440e+02
2.506044e+03,5.144814e+02
2.508937e+03,5.106240e+02
2.511830e+03,5.129294e+02
2.514722e+03,5.172206e+02
2.517615e+03,5.044235e+02
2.520508e+03,5.055004e+02
2.523401e+03,4.876143e+02
2.526293e+03,4.968939e+02
2.529186e+03,4.899926e+02
2.532079e+03,5.064813e+02
2.534971e+03,4.824474e+02
2.537864e+03,4.918239e+02
2.540757e+03,4.984411e+02
2.543649e+03,4.903833e+02
2.546542e+03,5.116708e+02
2.549435e+03,4.914350e+02
2.552328e+03,5.019092e+02
2.555220e+03,5.077195e+02
2.558113e+03,4.980243e+02
2.561006e+03,5.030793e+02
2.563898e+03,4.832790e+02
2.566791e+03,4.985718e+02
2.569684e+03,4.955206e+02
2.572576e+03,4.901617e+02
2.575469e+03,4.822763e+02
2.578362e+03,4.877678e+02
2.581255e+03,4.798931e+02
2.584147e+03,4.910660e+02
2.587040e+03,4.867433e+02
2.589933e+03,4.794094e+02
2.592825e+03,4.817215e+02
2.595718e+03,4.726929e+02
2.598611e+03,4.706803e+02
2.601503e+03,4.750279e+02
2.604396e+03,4.806138e+02
2.607289e+03,4.699119e+02
2.610182e+03,4.671062e+02
2.613074e+03,4.635020e+02
2.615967e+03,4.686827e+02
2.618860e+03,4.712286e+02
2.621752e+03,4.761388e+02
2.624645e+03,4.706463e+02
2.627538e+03,4.653361e+02
2.630430e+03,4.660009e+02
2.633323e+03,4.711288e+02
2.636216e+03,4.684578e+02
2.639109e+03,4.650860e+02
2.642001e+03,4.564100e+02
2.644894e+03,4.593791e+02
2.647787e+03,4.616914e+02
2.650679e+03,4.641444e+02
2.653572e+03,4.590104e+02
2.656465e+03,4.676260e+02
2.659357e+03,4.537048e+02
2.662250e+03,4.580832e+02
2.665143e+03,4.726935e+02
2.668036e+03,4.492335e+02
2.670928e+03,4.450620e+02
2.673821e+03,4.519179e+02
2.676714e+03,4.568102e+02
2.679606e+03,4.523286e+02
2.682499e+03,4.552762e+02
2.685392e+03,4.562254e+02
2.688284e+03,4.510811e+02
2.691177e+03,4.487094e+02
2.694070e+03,4.529992e+02
2.696963e+03,4.434462e+02
2.699855e+03,4.427271e+02
2.702748e+03,4.383315e+02
2.705641e+03,4.556677e+02
2.708533e+03,4.444953e+02
2.711426e+03,4.297110e+02
2.714319e+03,4.464948e+02
2.717211e+03,4.483257e+02
2.720104e+03,4.434973e+02
2.722997e+03,4.373602e+02
2.725890e+03,4.459844e+02
2.728782e+03,4.449554e+02
2.731675e+03,4.405053e+02
2.734568e+03,4.463474e+02
2.737460e+03,4.302315e+02
2.740353e+03,4.414323e+02
2.743246e+03,4.442298e+02
2.746138e+03,4.328546e+02
2.749031e+03,4.475617e+02
2.751924e+03,4.379083e+02
2.754817e+03,4.299109e+02
2.757709e+03,4.269063e+02
2.760602e+03,4.258070e+02
2.763495e+03,4.278618e+02
2.766387e+03,4.268241e+02
2.769280e+03,4.343347e+02
2.772173e+03,4.170975e+02
2.775065e+03,4.341269e+02
2.777958e+03,4.333480e+02
2.780851e+03,4.251327e+02
2.783744e+03,4.371026e+02
2.786636e+03,4.237333e+02
2.789529e+03,4.333661e+02
2.792422e+03,4.220291e+02
2.795314e+03,4.265893e+02
2.798207e+03,4.226274e+02
2.801100e+03,4.174567e+02
2.803992e+03,4.261984e+02
2.806885e+03,4.291671e+02
2.809778e+03,4.216440e+02
2.812671e+03,4.082226e+02
2.815563e+03,4.203580e+02
2.818456e+03,4.281688e+02
2.821349e+03,4.155819e+02
2.824241e+03,4.177650e+02
2.827134e+03,4.174870e+02
2.830027e+03,4.141933e+02
2.832919e+03,4.157159e+02
2.835812e+03,4.294839e+02
2.838705e+03,4.156874e+02
2.841598e+03,4.195805e+02
2.844490e+03,4.148673e+02
2.847383e+03,4.059645e+02
2.850276e+03,4.172569e+02
2.853168e+03,4.161480e+02
2.856061e+03,4.124581e+02
2.858954e+03,4.228404e+02
2.861846e+03,4.182217e+02
2.864739e+03,4.050453e+02
2.867632e+03,4.205679e+02
2.870525e+03,4.193001e+02
2.873417e+03,4.110007e+02
2.876310e+03,4.338970e+02
2.879203e+03,4.267153e+02
2.882095e+03,4.324981e+02
2.884988e+03,4.367422e+02
2.887881e+03,4.208434e+02
2.890773e+03,4.304335e+02
2.893666e+03,4.233801e+02
2.896559e+03,4.427821e+02
2.899452e+03,4.192884e+02
2.902344e+03,4.272510e+02
2.905237e+03,4.274799e+02
2.908130e+03,4.326338e+02
2.911022e+03,4.088323e+02
2.913915e+03,4.066732e+02
2.916808e+03,4.305942e+02
2.919700e+03,4.244323e+02
2.922593e+03,4.084579e+02
2.925486e+03,4.174550e+02
2.928379e+03,4.141721e+02
2.931271e+03,4.203990e+02
2.934164e+03,4.104939e+02
2.937057e+03,4.122769e+02
2.939949e+03,4.132305e+02
2.942842e+03,4.059945e+02
2.945735e+03,3.962591e+02
2.948627e+03,4.135749e+02
2.951520e+03,4.118161e+02
2.954413e+03,4.155756e+02
2.957306e+03,4.418122e+02
2.960198e+03,4.165672e+02
2.963091e+03,3.925562e+02
2.965984e+03,3.942725e+02
2.968876e+03,3.922798e+02
2.971769e+03,3.835431e+02
2.974662e+03,3.842174e+02
2.977554e+03,3.860905e+02
2.980447e+03,3.952745e+02
2.983340e+03,3.812684e+02
2.986233e+03,3.738604e+02
2.989125e+03,3.865964e+02
2.992018e+03,3.902779e+02
2.994911e+03,3.747738e+02
2.997803e+03,4.057068e+02
3.000696e+03,3.632192e+02
3.003589e+03,3.698193e+02
3.006481e+03,3.792491e+02
3.009374e+03,3.766792e+02
3.012267e+03,3.994263e+02
3.015160e+03,3.915072e+02
3.018052e+03,3.861919e+02
3.020945e+03,3.842571e+02
3.023838e+03,3.773236e+02
3.026730e+03,3.821319e+02
3.029623e+03,3.924836e+02
3.032516e+03,3.772409e+02
3.035408e+03,3.774361e+02
3.038301e+03,3.830794e+02
3.041194e+03,3.614255e+02
3.044087e+03,3.689271e+02
3.046979e+03,3.679533e+02
3.049872e+03,3.541543e+02
3.052765e+03,3.676548e+02
3.055657e+03,3.977978e+02
3.058550e+03,4.032133e+02
3.061443e+03,3.849851e+02
3.064335e+03,3.703523e+02
3.067228e+03,3.452568e+02
3.070121e+03,3.630631e+02
3.073014e+03,3.884238e+02
3.075906e+03,3.796246e+02
3.078799e+03,3.820593e+02
3.081692e+03,3.724893e+02
3.084584e+03,3.713018e+02
3.087477e+03,3.722172e+02
3.090370e+03,3.645426e+02
3.093262e+03,3.811607e+02
3.096155e+03,3.626664e+02
3.099048e+03,3.729202e+02
3.101941e+03,3.731092e+02
3.104833e+03,3.553314e+02
3.107726e+03,3.825075e+02
3.110619e+03,3.610010e+02
3.113511e+03,3.742863e+02
3.116404e+03,3.974554e+02
3.119297e+03,3.736540e+02
3.122189e+03,3.964292e+02
3.125082e+03,3.826322e+02
3.127975e+03,3.767777e+02
3.130868e+03,4.061775e+02
3.133760e+03,3.572886e+02
3.136653e+03,3.910331e+02
3.139546e+03,3.768881e+02
3.142438e+03,3.842997e+02
3.145331e+03,3.610748e+02
3.148224e+03,3.572545e+02
3.151116e+03,3.871070e+02
3.154009e+03,3.718838e+02
3.156902e+03,3.779630e+02
3.159795e+03,3.680883e+02
3.162687e+03,3.771997e+02
3.165580e+03,3.798433e+02
3.168473e+03,3.633047e+02
3.171365e+03,3.834269e+02
3.174258e+03,4.064632e+02
3.177151e+03,3.603171e+02
3.180043e+03,3.509877e+02
3.182936e+03,3.632268e+02
3.185829e+03,3.822498e+02
3.188722e+03,3.624601e+02
3.191614e+03,3.851701e+02
3.194507e+03,3.785149e+02
3.197400e+03,3.680146e+02
3.200292e+03,3.937755e+02
3.203185e+03,0.000000e+00
3.206078e+03,0.000000e+00
3.208970e+03,0.000000e+00
3.211863e+03,0.000000e+00
3.214756e+03,0.000000e+00
3.217649e+03,0.000000e+00
3.220541e+03,0.000000e+00
3.223434e+03,0.000000e+00
3.226327e+03,0.000000e+00
3.229219e+03,0.000000e+00
3.232112e+03,0.000000e+00
3.235005e+03,0.000000e+00
3.237897e+03,0.000000e+00
3.240790e+03,0.000000e+00
3.243683e+03,0.000000e+00
3.246576e+03,0.000000e+00
3.249468e+03,0.000000e+00
3.252361e+03,0.000000e+00
3.255254e+03,0.000000e+00
3.258146e+03,0.000000e+00
3.261039e+03,0.000000e+00
3.263932e+03,0.000000e+00
3.266824e+03,0.000000e+00
3.269717e+03,0.000000e+00
3.272610e+03,0.000000e+00
3.275503e+03,0.000000e+00
3.278395e+03,0.000000e+00
3.281288e+03,0.000000e+00
3.284181e+03,0.000000e+00
3.287073e+03,0.000000e+00
3.289966e+03,0.000000e+00
3.292859e+03,0.000000e+00
3.295751e+03,0.000000e+00
3.298644e+03,0.000000e+00
3.301537e+03,0.000000e+00
3.304430e+03,0.000000e+00
3.307322e+03,0.000000e+00
3.310215e+03,0.000000e+00
3.313108e+03,0.000000e+00
3.316000e+03,0.000000e+00
3.318893e+03,0.000000e+00
3.321786e+03,0.000000e+00
3.324678e+03,0.000000e+00
3.327571e+03,0.000000e+00
3.330464e+03,0.000000e+00
3.333357e+03,0.000000e+00
3.336249e+03,0.000000e+00
3.339142e+03,0.000000e+00
3.342035e+03,0.000000e+00
3.344927e+03,0.000000e+00
3.347820e+03,0.000000e+00
3.350713e+03,0.000000e+00
3.353605e+03,0.000000e+00
3.356498e+03,0.000000e+00
3.359391e+03,0.000000e+00
3.362284e+03,0.000000e+00
3.365176e+03,0.000000e+00
3.368069e+03,0.000000e+00
3.370962e+03,0.000000e+00
3.373854e+03,0.000000e+00
3.376747e+03,0.000000e+00
3.379640e+03,0.000000e+00
3.382532e+03,0.000000e+00
3.385425e+03,0.000000e+00
3.388318e+03,0.000000e+00
3.391211e+03,0.000000e+00
3.394103e+03,0.000000e+00
3.396996e+03,0.000000e+00
3.399889e+03,0.000000e+00
3.402781e+03,0.000000e+00
3.405674e+03,0.000000e+00
3.408567e+03,0.000000e+00
3.411459e+03,0.000000e+00
3.414352e+03,0.000000e+00
3.417245e+03,0.000000e+00
3.420138e+03,0.000000e+00
3.423030e+03,0.000000e+00
3.425923e+03,0.000000e+00
3.428816e+03,0.000000e+00
3.431708e+03,0.000000e+00
3.434601e+03,0.000000e+00
3.437494e+03,0.000000e+00
3.440386e+03,0.000000e+00
3.443279e+03,0.000000e+00
3.446172e+03,0.000000e+00
3.449065e+03,0.000000e+00
3.451957e+03,0.000000e+00
3.454850e+03,0.000000e+00
3.457743e+03,0.000000e+00
3.460635e+03,0.000000e+00
3.463528e+03,0.000000e+00
3.466421e+03,0.000000e+00
3.469313e+03,0.000000e+00
3.472206e+03,0.000000e+00
3.475099e+03,0.000000e+00
3.477992e+03,0.000000e+00
3.480884e+03,0.000000e+00
3.483777e+03,0.000000e+00
3.486670e+03,0.000000e+00
3.489563e+03,0.000000e+00
3.492455e+03,0.000000e+00
3.495348e+03,0.000000e+00
3.498240e+03,0.000000e+00
3.500169e+03,0.000000e+00