File: RAMAN_data/19072023_r3/black fibre1.CSV
9.931763e+01,0.000000e+00
1.022103e+02,0.000000e+00
1.051030e+02,0.000000e+00
1.079957e+02,0.000000e+00
1.108884e+02,0.000000e+00
1.137811e+02,0.000000e+00
1.166738e+02,0.000000e+00
1.195665e+02,0.000000e+00
1.224592e+02,0.000000e+00
1.253519e+02,0.000000e+00
1.282446e+02,0.000000e+00
1.311373e+02,0.000000e+00
1.340300e+02,0.000000e+00
1.369227e+02,0.000000e+00
1.398154e+02,0.000000e+00
1.427081e+02,0.000000e+00
1.456008e+02,0.000000e+00
1.484935e+02,0.000000e+00
1.513862e+02,0.000000e+00
1.542789e+02,0.000000e+00
1.571716e+02,0.000000e+00
1.600643e+02,0.000000e+00
1.629570e+02,0.000000e+00
1.658497e+02,0.000000e+00
1.687424e+02,0.000000e+00
1.716351e+02,0.000000e+00
1.745278e+02,0.000000e+00
1.774205e+02,0.000000e+00
1.803132e+02,0.000000e+00
1.832059e+02,0.000000e+00
1.860986e+02,0.000000e+00
1.889913e+02,0.000000e+00
1.918840e+02,0.000000e+00
1.947767e+02,0.000000e+00
1.976694e+02,0.000000e+00
2.005621e+02,3.711019e+03
2.034548e+02,3.730942e+03
2.063475e+02,3.743044e+03
2.092402e+02,3.741735e+03
2.121329e+02,3.728838e+03
2.150256e+02,3.746237e+03
2.179183e+02,3.772000e+03
2.208110e+02,3.783566e+03
2.237037e+02,3.791397e+03
2.265964e+02,3.782606e+03
2.294892e+02,3.797501e+03
2.323819e+02,3.818687e+03
2.352746e+02,3.828565e+03
2.381673e+02,3.831118e+03
2.410600e+02,3.841847e+03
2.439527e+02,3.877323e+03
2.468454e+02,3.911581e+03
2.497381e+02,3.911402e+03
2.526308e+02,3.904022e+03
2.555235e+02,3.899718e+03
2.584161e+02,3.899200e+03
2.613088e+02,3.929692e+03
2.642015e+02,3.940544e+03
2.670942e+02,3.948815e+03
2.699869e+02,3.957544e+03
2.728796e+02,3.975968e+03
2.757723e+02,4.000980e+03
2.786650e+02,4.004209e+03
2.815577e+02,3.993236e+03
2.844504e+02,3.996182e+03
2.873431e+02,3.996815e+03
2.902358e+02,3.993935e+03
2.931285e+02,3.990344e+03
2.960212e+02,3.995775e+03
2.989139e+02,4.006314e+03
3.018066e+02,4.012359e+03
3.046993e+02,4.010714e+03
3.075920e+02,4.010700e+03
3.104847e+02,4.023945e+03
3.133774e+02,4.029220e+03
3.162701e+02,4.015918e+03
3.191628e+02,4.043521e+03
3.220555e+02,4.045594e+03
3.249482e+02,4.052802e+03
3.278409e+02,4.068989e+03
3.307336e+02,4.059752e+03
3.336263e+02,4.072199e+03
3.365190e+02,4.074738e+03
3.394117e+02,4.085209e+03
3.423044e+02,4.082953e+03
3.451971e+02,4.077089e+03
3.480898e+02,4.108570e+03
3.509825e+02,4.093954e+03
3.538752e+02,4.100444e+03
3.567680e+02,4.127600e+03
3.596607e+02,4.141064e+03
3.625534e+02,4.130181e+03
3.654461e+02,4.141118e+03
3.683388e+02,4.137773e+03
3.712315e+02,4.144403e+03
3.741242e+02,4.167373e+03
3.770169e+02,4.184730e+03
3.799096e+02,4.166872e+03
3.828023e+02,4.169759e+03
3.856950e+02,4.173415e+03
3.885877e+02,4.153075e+03
3.914804e+02,4.167521e+03
3.943731e+02,4.187989e+03
3.972658e+02,4.165590e+03
4.001585e+02,4.173646e+03
4.030512e+02,4.195400e+03
4.059439e+02,4.190136e+03
4.088366e+02,4.202315e+03
4.117293e+02,4.198031e+03
4.146220e+02,4.191357e+03
4.175147e+02,4.194479e+03
4.204074e+02,4.203175e+03
4.233001e+02,4.217342e+03
4.261928e+02,4.215640e+03
4.290855e+02,4.213302e+03
4.319782e+02,4.225176e+03
4.348709e+02,4.220651e+03
4.377636e+02,4.241901e+03
4.406563e+02,4.238178e+03
4.435490e+02,4.254759e+03
4.464417e+02,4.272165e+03
4.493344e+02,4.238431e+03
4.522271e+02,4.246369e+03
4.551198e+02,4.253038e+03
4.580125e+02,4.244412e+03
4.609052e+02,4.251479e+03
4.637979e+02,4.256665e+03
4.666906e+02,4.242663e+03
4.695833e+02,4.269731e+03
4.724760e+02,4.254393e+03
4.753687e+02,4.248078e+03
4.782614e+02,4.265894e+03
4.811541e+02,4.272241e+03
4.840468e+02,4.271271e+03
4.869395e+02,4.277759e+03
4.898322e+02,4.282696e+03
4.927249e+02,4.267630e+03
4.956176e+02,4.289559e+03
4.985103e+02,4.288245e+03
5.014030e+02,4.288402e+03
5.042957e+02,4.280831e+03
5.071884e+02,4.302494e+03
5.100811e+02,4.283771e+03
5.129738e+02,4.299121e+03
5.158665e+02,4.319553e+03
5.187592e+02,4.295448e+03
5.216519e+02,4.313948e+03
5.245446e+02,4.303158e+03
5.274373e+02,4.303451e+03
5.303300e+02,4.323322e+03
5.332227e+02,4.356384e+03
5.361154e+02,4.353237e+03
5.390081e+02,4.385204e+03
5.419008e+02,4.383766e+03
5.447935e+02,4.401376e+03
5.476862e+02,4.404364e+03
5.505789e+02,4.388167e+03
5.534716e+02,4.366107e+03
5.563643e+02,4.379824e+03
5.592570e+02,4.375756e+03
5.621497e+02,4.391915e+03
5.650424e+02,4.367941e+03
5.679351e+02,4.329766e+03
5.708278e+02,4.311916e+03
5.737205e+02,4.312746e+03
5.766132e+02,4.336528e+03
5.795059e+02,4.311636e+03
5.823986e+02,4.317062e+03
5.852913e+02,4.308566e+03
5.881840e+02,4.343926e+03
5.910767e+02,4.340964e+03
5.939694e+02,4.346946e+03
5.968621e+02,4.361566e+03
5.997548e+02,4.357886e+03
6.026475e+02,4.352151e+03
6.055402e+02,4.374228e+03
6.084329e+02,4.384114e+03
6.113256e+02,4.386756e+03
6.142183e+02,4.345777e+03
6.171110e+02,4.335405e+03
6.200037e+02,4.331911e+03
6.228964e+02,4.323509e+03
6.257891e+02,4.345107e+03
6.286818e+02,4.330172e+03
6.315745e+02,4.314615e+03
6.344672e+02,4.305477e+03
6.373599e+02,4.333111e+03
6.402526e+02,4.297449e+03
6.431453e+02,4.306951e+03
6.460380e+02,4.296669e+03
6.489307e+02,4.301248e+03
6.518234e+02,4.317548e+03
6.547161e+02,4.327276e+03
6.576088e+02,4.288724e+03
6.605015e+02,4.289500e+03
6.633942e+02,4.294028e+03
6.662869e+02,4.311092e+03
6.691796e+02,4.315769e+03
6.720723e+02,4.305819e+03
6.749650e+02,4.301662e+03
6.778577e+02,4.269266e+03
6.807504e+02,4.291713e+03
6.836431e+02,4.301054e+03
6.865358e+02,4.298260e+03
6.894285e+02,4.273312e+03
6.923212e+02,4.271940e+03
6.952139e+02,4.263985e+03
6.981066e+02,4.289498e+03
7.009993e+02,4.265122e+03
7.038920e+02,4.275965e+03
7.067847e+02,4.268943e+03
7.096774e+02,4.262688e+03
7.125701e+02,4.252698e+03
7.154628e+02,4.255459e+03
7.183555e+02,4.255149e+03
7.212482e+02,4.252770e+03
7.241409e+02,4.248235e+03
7.270336e+02,4.255146e+03
7.299263e+02,4.246319e+03
7.328190e+02,4.248911e+03
7.357117e+02,4.226863e+03
7.386044e+02,4.219274e+03
7.414971e+02,4.226672e+03
7.443898e+02,4.247238e+03
7.472825e+02,4.238886e+03
7.501752e+02,4.240457e+03
7.530679e+02,4.227914e+03
7.559606e+02,4.219969e+03
7.588533e+02,4.221268e+03
7.617460e+02,4.233632e+03
7.646387e+02,4.226787e+03
7.675314e+02,4.208895e+03
7.704241e+02,4.208907e+03
7.733168e+02,4.208647e+03
7.762095e+02,4.233920e+03
7.791022e+02,4.238102e+03
7.819949e+02,4.210585e+03
7.848876e+02,4.208899e+03
7.877803e+02,4.199568e+03
7.906730e+02,4.192281e+03
7.935657e+02,4.193181e+03
7.964584e+02,4.172018e+03
7.993511e+02,4.180978e+03
8.022438e+02,4.174568e+03
8.051365e+02,4.171981e+03
8.080292e+02,4.164921e+03
8.109219e+02,4.143596e+03
8.138146e+02,4.154717e+03
8.167073e+02,4.167946e+03
8.196000e+02,4.143698e+03
8.224927e+02,4.157006e+03
8.253854e+02,4.139952e+03
8.282781e+02,4.145181e+03
8.311708e+02,4.129188e+03
8.340635e+02,4.126043e+03
8.369562e+02,4.125703e+03
8.398489e+02,4.130276e+03
8.427416e+02,4.114411e+03
8.456343e+02,4.100596e+03
8.485270e+02,4.108025e+03
8.514197e+02,4.106088e+03
8.543124e+02,4.116998e+03
8.572051e+02,4.093465e+03
8.600978e+02,4.087134e+03
8.629905e+02,4.075954e+03
8.658832e+02,4.079912e+03
8.687759e+02,4.084305e+03
8.716686e+02,4.086855e+03
8.745613e+02,4.076767e+03
8.774540e+02,4.079293e+03
8.803467e+02,4.066622e+03
8.832394e+02,4.060387e+03
8.861321e+02,4.053695e+03
8.890248e+02,4.044028e+03
8.919175e+02,4.052771e+03
8.948102e+02,4.044859e+03
8.977029e+02,4.051229e+03
9.005956e+02,4.046451e+03
9.034883e+02,4.023362e+03
9.063810e+02,4.004865e+03
9.092737e+02,4.014868e+03
9.121664e+02,4.000998e+03
9.150591e+02,4.018306e+03
9.179518e+02,4.003466e+03
9.208445e+02,3.992314e+03
9.237372e+02,3.989546e+03
9.266299e+02,3.967698e+03
9.295226e+02,3.968531e+03
9.324153e+02,3.985635e+03
9.353080e+02,3.968604e+03
9.382007e+02,3.963965e+03
9.410934e+02,3.965165e+03
9.439861e+02,3.949467e+03
9.468788e+02,3.956859e+03
9.497715e+02,3.948002e+03
9.526642e+02,3.932567e+03
9.555569e+02,3.932898e+03
9.584496e+02,3.926540e+03
9.613423e+02,3.928237e+03
9.642350e+02,3.924018e+03
9.671277e+02,3.897859e+03
9.700204e+02,3.894248e+03
9.729131e+02,3.907803e+03
9.758058e+02,3.885810e+03
9.786985e+02,3.894396e+03
9.815912e+02,3.892088e+03
9.844839e+02,3.885988e+03
9.873766e+02,3.870090e+03
9.902693e+02,3.875593e+03
9.931620e+02,3.876779e+03
9.960547e+02,3.868546e+03
9.989474e+02,3.834734e+03
1.001840e+03,3.854390e+03
1.004733e+03,3.840329e+03
1.007626e+03,3.848429e+03
1.010518e+03,3.843909e+03
1.013411e+03,3.847383e+03
1.016304e+03,3.817691e+03
1.019196e+03,3.813243e+03
1.022089e+03,3.810993e+03
1.024982e+03,3.819739e+03
1.027875e+03,3.809688e+03
1.030767e+03,3.804117e+03
1.033660e+03,3.792254e+03
1.036552e+03,3.792368e+03
1.039445e+03,3.807721e+03
1.042338e+03,3.784718e+03
1.045231e+03,3.796808e+03
1.048123e+03,3.777692e+03
1.051016e+03,3.769356e+03
1.053909e+03,3.782024e+03
1.056802e+03,3.761806e+03
1.059694e+03,3.752783e+03
1.062587e+03,3.755706e+03
1.065479e+03,3.746594e+03
1.068372e+03,3.768766e+03
1.071265e+03,3.775690e+03
1.074158e+03,3.789515e+03
1.077050e+03,3.754566e+03
1.079943e+03,3.746573e+03
1.082836e+03,3.762979e+03
1.085729e+03,3.746883e+03
1.088621e+03,3.758065e+03
1.091514e+03,3.740831e+03
1.094406e+03,3.735983e+03
1.097299e+03,3.728021e+03
1.100192e+03,3.700154e+03
1.103085e+03,3.701791e+03
1.105977e+03,3.707370e+03
1.108870e+03,3.696912e+03
1.111763e+03,3.675321e+03
1.114656e+03,3.675430e+03
1.117548e+03,3.700767e+03
1.120441e+03,3.670358e+03
1.123334e+03,3.665535e+03
1.126226e+03,3.652527e+03
1.129119e+03,3.664483e+03
1.132012e+03,3.641009e+03
1.134904e+03,3.630151e+03
1.137797e+03,3.645136e+03
1.140690e+03,3.636292e+03
1.143583e+03,3.615082e+03
1.146475e+03,3.627625e+03
1.149368e+03,3.601295e+03
1.152261e+03,3.603806e+03
1.155153e+03,3.578997e+03
1.158046e+03,3.577948e+03
1.160939e+03,3.575747e+03
1.163831e+03,3.588288e+03
1.166724e+03,3.566358e+03
1.169617e+03,3.572286e+03
1.172510e+03,3.588151e+03
1.175402e+03,3.566772e+03
1.178295e+03,3.559309e+03
1.181188e+03,3.563494e+03
1.184080e+03,3.539318e+03
1.186973e+03,3.531447e+03
1.189866e+03,3.519616e+03
1.192758e+03,3.537460e+03
1.195651e+03,3.537122e+03
1.198544e+03,3.547703e+03
1.201437e+03,3.507990e+03
1.204329e+03,3.504498e+03
1.207222e+03,3.503449e+03
1.210115e+03,3.533916e+03
1.213007e+03,3.536049e+03
1.215900e+03,3.501919e+03
1.218793e+03,3.512948e+03
1.221685e+03,3.521152e+03
1.224578e+03,3.506467e+03
1.227471e+03,3.511968e+03
1.230364e+03,3.515453e+03
1.233256e+03,3.481829e+03
1.236149e+03,3.491531e+03
1.239042e+03,3.483294e+03
1.241934e+03,3.487999e+03
1.244827e+03,3.480759e+03
1.247720e+03,3.471372e+03
1.250612e+03,3.466362e+03
1.253505e+03,3.467364e+03
1.256398e+03,3.464770e+03
1.259291e+03,3.455202e+03
1.262183e+03,3.436142e+03
1.265076e+03,3.419451e+03
1.267969e+03,3.409499e+03
1.270861e+03,3.412448e+03
1.273754e+03,3.427594e+03
1.276647e+03,3.415993e+03
1.279539e+03,3.396425e+03
1.282432e+03,3.405967e+03
1.285325e+03,3.402332e+03
1.288218e+03,3.423059e+03
1.291110e+03,3.400464e+03
1.294003e+03,3.394903e+03
1.296896e+03,3.377309e+03
1.299788e+03,3.381239e+03
1.302681e+03,3.389718e+03
1.305574e+03,3.397693e+03
1.308466e+03,3.400337e+03
1.311359e+03,3.385614e+03
1.314252e+03,3.366877e+03
1.317145e+03,3.370652e+03
1.320037e+03,3.398673e+03
1.322930e+03,3.391584e+03
1.325823e+03,3.380715e+03
1.328715e+03,3.370267e+03
1.331608e+03,3.381469e+03
1.334501e+03,3.385615e+03
1.337393e+03,3.384517e+03
1.340286e+03,3.362118e+03
1.343179e+03,3.355060e+03
1.346072e+03,3.363254e+03
1.348964e+03,3.358640e+03
1.351857e+03,3.363579e+03
1.354750e+03,3.372172e+03
1.357642e+03,3.363546e+03
1.360535e+03,3.346542e+03
1.363428e+03,3.366562e+03
1.366320e+03,3.352271e+03
1.369213e+03,3.348780e+03
1.372106e+03,3.349433e+03
1.374999e+03,3.332716e+03
1.377891e+03,3.328215e+03
1.380784e+03,3.321825e+03
1.383677e+03,3.320547e+03
1.386569e+03,3.318312e+03
1.389462e+03,3.285370e+03
1.392355e+03,3.288849e+03
1.395247e+03,3.288097e+03
1.398140e+03,3.285430e+03
1.401033e+03,3.276037e+03
1.403926e+03,3.279759e+03
1.406818e+03,3.283562e+03
1.409711e+03,3.272321e+03
1.412604e+03,3.248825e+03
1.415496e+03,3.240093e+03
1.418389e+03,3.251647e+03
1.421282e+03,3.242568e+03
1.424174e+03,3.224256e+03
1.427067e+03,3.240979e+03
1.429960e+03,3.217159e+03
1.432853e+03,3.228501e+03
1.435745e+03,3.195503e+03
1.438638e+03,3.214809e+03
1.441531e+03,3.217395e+03
1.444423e+03,3.209133e+03
1.447316e+03,3.211406e+03
1.450209e+03,3.220595e+03
1.453101e+03,3.198414e+03
1.455994e+03,3.204076e+03
1.458887e+03,3.186710e+03
1.461780e+03,3.186371e+03
1.464672e+03,3.179181e+03
1.467565e+03,3.171639e+03
1.470458e+03,3.153660e+03
1.473350e+03,3.164274e+03
1.476243e+03,3.166753e+03
1.479136e+03,3.150851e+03
1.482028e+03,3.141003e+03
1.484921e+03,3.141996e+03
1.487814e+03,3.122663e+03
1.490707e+03,3.121479e+03
1.493599e+03,3.128344e+03
1.496492e+03,3.113415e+03
1.499385e+03,3.128054e+03
1.502277e+03,3.126936e+03
1.505170e+03,3.119579e+03
1.508063e+03,3.108661e+03
1.510955e+03,3.088469e+03
1.513848e+03,3.103998e+03
1.516741e+03,3.094161e+03
1.519634e+03,3.080402e+03
1.522526e+03,3.078018e+03
1.525419e+03,3.088968e+03
1.528312e+03,3.054756e+03
1.531204e+03,3.039070e+03
1.534097e+03,3.053388e+03
1.536990e+03,3.040510e+03
1.539882e+03,3.039270e+03
1.542775e+03,3.045773e+03
1.545668e+03,3.044118e+03
1.548561e+03,3.030549e+03
1.551453e+03,3.042076e+03
1.554346e+03,3.038682e+03
1.557239e+03,3.070316e+03
1.560131e+03,3.077425e+03
1.563024e+03,3.072365e+03
1.565917e+03,3.118374e+03
1.568809e+03,3.140685e+03
1.571702e+03,3.149177e+03
1.574595e+03,3.094457e+03
1.577488e+03,3.097675e+03
1.580380e+03,3.092724e+03
1.583273e+03,3.075215e+03
1.586166e+03,3.044564e+03
1.589058e+03,2.996801e+03
1.591951e+03,2.996298e+03
1.594844e+03,2.979520e+03
1.597736e+03,2.982563e+03
1.600629e+03,2.964845e+03
1.603522e+03,2.951710e+03
1.606415e+03,2.959486e+03
1.609307e+03,2.955214e+03
1.612200e+03,2.947195e+03
1.615093e+03,2.932877e+03
1.617985e+03,2.951478e+03
1.620878e+03,2.958075e+03
1.623771e+03,2.951452e+03
1.626663e+03,2.938524e+03
1.629556e+03,2.930758e+03
1.632449e+03,2.918375e+03
1.635342e+03,2.900859e+03
1.638234e+03,2.901003e+03
1.641127e+03,2.900324e+03
1.644020e+03,2.878821e+03
1.646912e+03,2.885553e+03
1.649805e+03,2.893309e+03
1.652698e+03,2.847579e+03
1.655590e+03,2.866155e+03
1.658483e+03,2.872069e+03
1.661376e+03,2.849036e+03
1.664269e+03,2.853816e+03
1.667161e+03,2.847463e+03
1.670054e+03,2.834674e+03
1.672947e+03,2.858269e+03
1.675839e+03,2.839318e+03
1.678732e+03,2.843168e+03
1.681625e+03,2.840140e+03
1.684517e+03,2.817920e+03
1.687410e+03,2.832191e+03
1.690303e+03,2.825701e+03
1.693196e+03,2.819207e+03
1.696088e+03,2.812092e+03
1.698981e+03,2.830230e+03
1.701874e+03,2.814600e+03
1.704766e+03,2.811808e+03
1.707659e+03,2.784006e+03
1.710552e+03,2.792452e+03
1.713444e+03,2.774001e+03
1.716337e+03,2.765945e+03
1.719230e+03,2.774452e+03
1.722123e+03,2.786355e+03
1.725015e+03,2.772887e+03
1.727908e+03,2.757368e+03
1.730801e+03,2.749626e+03
1.733693e+03,2.755566e+03
1.736586e+03,2.775836e+03
1.739479e+03,2.756921e+03
1.742371e+03,2.733866e+03
1.745264e+03,2.735588e+03
1.748157e+03,2.721488e+03
1.751050e+03,2.736051e+03
1.753942e+03,2.725219e+03
1.756835e+03,2.734338e+03
1.759728e+03,2.695998e+03
1.762620e+03,2.719817e+03
1.765513e+03,2.709111e+03
1.768406e+03,2.724056e+03
1.771298e+03,2.709111e+03
1.774191e+03,2.689510e+03
1.777084e+03,2.709203e+03
1.779977e+03,2.680439e+03
1.782869e+03,2.688751e+03
1.785762e+03,2.680198e+03
1.788655e+03,2.696577e+03
1.791547e+03,2.664194e+03
1.794440e+03,2.676660e+03
1.797333e+03,2.667446e+03
1.800225e+03,2.664701e+03
1.803118e+03,2.666630e+03
1.806011e+03,2.650465e+03
1.808904e+03,2.650040e+03
1.811796e+03,2.639136e+03
1.814689e+03,2.637296e+03
1.817582e+03,2.654031e+03
1.820474e+03,2.623004e+03
1.823367e+03,2.625641e+03
1.826260e+03,2.649553e+03
1.829152e+03,2.609238e+03
1.832045e+03,2.628806e+03
1.834938e+03,2.628409e+03
1.837831e+03,2.602329e+03
1.840723e+03,2.578924e+03
1.843616e+03,2.613226e+03
1.846509e+03,2.591266e+03
1.849401e+03,2.575708e+03
1.852294e+03,2.581710e+03
1.855187e+03,2.565694e+03
1.858079e+03,2.574350e+03
1.860972e+03,2.588373e+03
1.863865e+03,2.569082e+03
1.866758e+03,2.576287e+03
1.869650e+03,2.557841e+03
1.872543e+03,2.568528e+03
1.875436e+03,2.551386e+03
1.878328e+03,2.548267e+03
1.881221e+03,2.560437e+03
1.884114e+03,2.526704e+03
1.887006e+03,2.538457e+03
1.889899e+03,2.525122e+03
1.892792e+03,2.536615e+03
1.895685e+03,2.513603e+03
1.898577e+03,2.508974e+03
1.901470e+03,2.517531e+03
1.904363e+03,2.512939e+03
1.907255e+03,2.521448e+03
1.910148e+03,2.493694e+03
1.913041e+03,2.489812e+03
1.915933e+03,2.479185e+03
1.918826e+03,2.470484e+03
1.921719e+03,2.491463e+03
1.924612e+03,2.496876e+03
1.927504e+03,2.462664e+03
1.930397e+03,2.479978e+03
1.933290e+03,2.446838e+03
1.936182e+03,2.469839e+03
1.939075e+03,2.451179e+03
1.941968e+03,2.437421e+03
1.944860e+03,2.458267e+03
1.947753e+03,2.434195e+03
1.950646e+03,2.428323e+03
1.953539e+03,2.443858e+03
1.956431e+03,2.417517e+03
1.959324e+03,2.407263e+03
1.962217e+03,2.413686e+03
1.965109e+03,2.413625e+03
1.968002e+03,2.426865e+03
1.970895e+03,2.399207e+03
1.973787e+03,2.403008e+03
1.976680e+03,2.384903e+03
1.979573e+03,2.379369e+03
1.982466e+03,2.381931e+03
1.985358e+03,2.406225e+03
1.988251e+03,2.374720e+03
1.991144e+03,2.365757e+03
1.994036e+03,2.353679e+03
1.996929e+03,2.362411e+03
1.999822e+03,2.369159e+03
2.002714e+03,2.339607e+03
2.005607e+03,2.354047e+03
2.008500e+03,2.350538e+03
2.011393e+03,2.328228e+03
2.014285e+03,2.329344e+03
2.017178e+03,2.331364e+03
2.020071e+03,2.313312e+03
2.022963e+03,2.311769e+03
2.025856e+03,2.307715e+03
2.028749e+03,2.316251e+03
2.031641e+03,2.303998e+03
2.034534e+03,2.327030e+03
2.037427e+03,2.297655e+03
2.040320e+03,2.297470e+03
2.043212e+03,2.278298e+03
2.046105e+03,2.286349e+03
2.048998e+03,2.286478e+03
2.051890e+03,2.274983e+03
2.054783e+03,2.279832e+03
2.057676e+03,2.265570e+03
2.060568e+03,2.261112e+03
2.063461e+03,2.254943e+03
2.066354e+03,2.252786e+03
2.069247e+03,2.239059e+03
2.072139e+03,2.250853e+03
2.075032e+03,2.254664e+03
2.077925e+03,2.234695e+03
2.080817e+03,2.232766e+03
2.083710e+03,2.226592e+03
2.086603e+03,2.213267e+03
2.089496e+03,2.224438e+03
2.092388e+03,2.228768e+03
2.095281e+03,2.221075e+03
2.098174e+03,2.214121e+03
2.101066e+03,2.192225e+03
2.103959e+03,2.174142e+03
2.106852e+03,2.185770e+03
2.109744e+03,2.187686e+03
2.112637e+03,2.172114e+03
2.115530e+03,2.162561e+03
2.118422e+03,2.173351e+03
2.121315e+03,2.190144e+03
2.124208e+03,2.160075e+03
2.127101e+03,2.150176e+03
2.129993e+03,2.167460e+03
2.132886e+03,2.137023e+03
2.135779e+03,2.147425e+03
2.138671e+03,2.151015e+03
2.141564e+03,2.138115e+03
2.144457e+03,2.133741e+03
2.147350e+03,2.102842e+03
2.150242e+03,2.113329e+03
2.153135e+03,2.120189e+03
2.156028e+03,2.097542e+03
2.158920e+03,2.096594e+03
2.161813e+03,2.108160e+03
2.164706e+03,2.077612e+03
2.167598e+03,2.094291e+03
2.170491e+03,2.092780e+03
2.173384e+03,2.100553e+03
2.176277e+03,2.082006e+03
2.179169e+03,2.076341e+03
2.182062e+03,2.081236e+03
2.184955e+03,2.060307e+03
2.187847e+03,2.066000e+03
2.190740e+03,2.042111e+03
2.193633e+03,2.047281e+03
2.196525e+03,2.035049e+03
2.199418e+03,2.050198e+03
2.202311e+03,2.050295e+03
2.205204e+03,2.046267e+03
2.208096e+03,2.019040e+03
2.210989e+03,2.003959e+03
2.213882e+03,2.026302e+03
2.216774e+03,2.022527e+03
2.219667e+03,2.017076e+03
2.222560e+03,1.993554e+03
2.225452e+03,1.998615e+03
2.228345e+03,2.000997e+03
2.231238e+03,2.014313e+03
2.234131e+03,2.000764e+03
2.237023e+03,1.984975e+03
2.239916e+03,1.959215e+03
2.242809e+03,1.965316e+03
2.245701e+03,1.975368e+03
2.248594e+03,1.963824e+03
2.251487e+03,1.978020e+03
2.254379e+03,1.959589e+03
2.257272e+03,1.950410e+03
2.260165e+03,1.921725e+03
2.263058e+03,1.958306e+03
2.265950e+03,1.932901e+03
2.268843e+03,1.921963e+03
2.271736e+03,1.910057e+03
2.274628e+03,1.915054e+03
2.277521e+03,1.908899e+03
2.280414e+03,1.915306e+03
2.283306e+03,1.914596e+03
2.286199e+03,1.906929e+03
2.289092e+03,1.899399e+03
2.291985e+03,1.909018e+03
2.294877e+03,1.902549e+03
2.297770e+03,1.891953e+03
2.300663e+03,1.883653e+03
2.303555e+03,1.878951e+03
2.306448e+03,1.865938e+03
2.309341e+03,1.881525e+03
2.312233e+03,1.867745e+03
2.315126e+03,1.865525e+03
2.318019e+03,1.859475e+03
2.320912e+03,1.861672e+03
2.323804e+03,1.856501e+03
2.326697e+03,1.865635e+03
2.329590e+03,1.864730e+03
2.332482e+03,1.839206e+03
2.335375e+03,1.838074e+03
2.338268e+03,1.817375e+03
2.341160e+03,1.813816e+03
2.344053e+03,1.844227e+03
2.346946e+03,1.829743e+03
2.349839e+03,1.798230e+03
2.352731e+03,1.801343e+03
2.355624e+03,1.804864e+03
2.358517e+03,1.802465e+03
2.361409e+03,1.814498e+03
2.364302e+03,1.782500e+03
2.367195e+03,1.801987e+03
2.370087e+03,1.783465e+03
2.372980e+03,1.786083e+03
2.375873e+03,1.777567e+03
2.378766e+03,1.781807e+03
2.381658e+03,1.761582e+03
2.384551e+03,1.763717e+03
2.387444e+03,1.773491e+03
2.390336e+03,1.757829e+03
2.393229e+03,1.771186e+03
2.396122e+03,1.758877e+03
2.399014e+03,1.747786e+03
2.401907e+03,1.732880e+03
2.404800e+03,1.753241e+03
2.407693e+03,1.744440e+03
2.410585e+03,1.727672e+03
2.413478e+03,1.729775e+03
2.416371e+03,1.715698e+03
2.419263e+03,1.714682e+03
2.422156e+03,1.723088e+03
2.425049e+03,1.712118e+03
2.427941e+03,1.723193e+03
2.430834e+03,1.705912e+03
2.433727e+03,1.691197e+03
2.436620e+03,1.703294e+03
2.439512e+03,1.697818e+03
2.442405e+03,1.691389e+03
2.445298e+03,1.696310e+03
2.448190e+03,1.684292e+03
2.451083e+03,1.685245e+03
2.453976e+03,1.671151e+03
2.456868e+03,1.677869e+03
2.459761e+03,1.659697e+03
2.462654e+03,1.661409e+03
2.465547e+03,1.641473e+03
2.468439e+03,1.655810e+03
2.471332e+03,1.646797e+03
2.474225e+03,1.638733e+03
2.477117e+03,1.657146e+03
2.480010e+03,1.648174e+03
2.482903e+03,1.654461e+03
2.485795e+03,1.629669e+03
2.488688e+03,1.639193e+03
2.491581e+03,1.649000e+03
2.494474e+03,1.628133e+03
2.497366e+03,1.625153e+03
2.500259e+03,1.628433e+03
2.503152e+03,1.628775e+03
2.506044e+03,1.620010e+03
2.508937e+03,1.605216e+03
2.511830e+03,1.612685e+03
2.514722e+03,1.612318e+03
2.517615e+03,1.610154e+03
2.520508e+03,1.592944e+03
2.523401e+03,1.586904e+03
2.526293e+03,1.608535e+03
2.529186e+03,1.602010e+03
2.532079e+03,1.600697e+03
2.534971e+03,1.567833e+03
2.537864e+03,1.561568e+03
2.540757e+03,1.578533e+03
2.543649e+03,1.560155e+03
2.546542e+03,1.588372e+03
2.549435e+03,1.571379e+03
2.552328e+03,1.577588e+03
2.555220e+03,1.569234e+03
2.558113e+03,1.567481e+03
2.561006e+03,1.565744e+03
2.563898e+03,1.548733e+03
2.566791e+03,1.543792e+03
2.569684e+03,1.561399e+03
2.572576e+03,1.545325e+03
2.575469e+03,1.545064e+03
2.578362e+03,1.538826e+03
2.581255e+03,1.538267e+03
2.584147e+03,1.535448e+03
2.587040e+03,1.520204e+03
2.589933e+03,1.542539e+03
2.592825e+03,1.516845e+03
2.595718e+03,1.508939e+03
2.598611e+03,1.521583e+03
2.601503e+03,1.512462e+03
2.604396e+03,1.511380e+03
2.607289e+03,1.502763e+03
2.610182e+03,1.494641e+03
2.613074e+03,1.478930e+03
2.615967e+03,1.510790e+03
2.618860e+03,1.509694e+03
2.621752e+03,1.514125e+03
2.624645e+03,1.480083e+03
2.627538e+03,1.495908e+03
2.630430e+03,1.493484e+03
2.633323e+03,1.458382e+03
2.636216e+03,1.500111e+03
2.639109e+03,1.479090e+03
2.642001e+03,1.465779e+03
2.644894e+03,1.479820e+03
2.647787e+03,1.472714e+03
2.650679e+03,1.463522e+03
2.653572e+03,1.457106e+03
2.656465e+03,1.469970e+03
2.659357e+03,1.441998e+03
2.662250e+03,1.447646e+03
2.665143e+03,1.447407e+03
2.668036e+03,1.478249e+03
2.670928e+03,1.432107e+03
2.673821e+03,1.456780e+03
2.676714e+03,1.433353e+03
2.679606e+03,1.435462e+03
2.682499e+03,1.445347e+03
2.685392e+03,1.438015e+03
2.688284e+03,1.416943e+03
2.691177e+03,1.412926e+03
2.694070e+03,1.418479e+03
2.696963e+03,1.435093e+03
2.699855e+03,1.409188e+03
2.702748e+03,1.416995e+03
2.705641e+03,1.415704e+03
2.708533e+03,1.432199e+03
2.711426e+03,1.394420e+03
2.714319e+03,1.410865e+03
2.717211e+03,1.406731e+03
2.720104e+03,1.399865e+03
2.722997e+03,1.388815e+03
2.725890e+03,1.410606e+03
2.728782e+03,1.392379e+03
2.731675e+03,1.386059e+03
2.734568e+03,1.399868e+03
2.737460e+03,1.384449e+03
2.740353e+03,1.394602e+03
2.743246e+03,1.385306e+03
2.746138e+03,1.375770e+03
2.749031e+03,1.374688e+03
2.751924e+03,1.384889e+03
2.754817e+03,1.387868e+03
2.757709e+03,1.368635e+03
2.760602e+03,1.361783e+03
2.763495e+03,1.384785e+03
2.766387e+03,1.344414e+03
2.769280e+03,1.360103e+03
2.772173e+03,1.361313e+03
2.775065e+03,1.357860e+03
2.777958e+03,1.345735e+03
2.780851e+03,1.343563e+03
2.783744e+03,1.342474e+03
2.786636e+03,1.329958e+03
2.789529e+03,1.335509e+03
2.792422e+03,1.338571e+03
2.795314e+03,1.317188e+03
2.798207e+03,1.326620e+03
2.801100e+03,1.344234e+03
2.803992e+03,1.342490e+03
2.806885e+03,1.324635e+03
2.809778e+03,1.360056e+03
2.812671e+03,1.314753e+03
2.815563e+03,1.305993e+03
2.818456e+03,1.319800e+03
2.821349e+03,1.315306e+03
2.824241e+03,1.318324e+03
2.827134e+03,1.313075e+03
2.830027e+03,1.297971e+03
2.832919e+03,1.284338e+03
2.835812e+03,1.325803e+03
2.838705e+03,1.304089e+03
2.841598e+03,1.272350e+03
2.844490e+03,1.280458e+03
2.847383e+03,1.313975e+03
2.850276e+03,1.298783e+03
2.853168e+03,1.293711e+03
2.856061e+03,1.298037e+03
2.858954e+03,1.282395e+03
2.861846e+03,1.294969e+03
2.864739e+03,1.304191e+03
2.867632e+03,1.281022e+03
2.870525e+03,1.298336e+03
2.873417e+03,1.266030e+03
2.876310e+03,1.262642e+03
2.879203e+03,1.284652e+03
2.882095e+03,1.273082e+03
2.884988e+03,1.311322e+03
2.887881e+03,1.294687e+03
2.890773e+03,1.295132e+03
2.893666e+03,1.312376e+03
2.896559e+03,1.280325e+03
2.899452e+03,1.266236e+03
2.902344e+03,1.274459e+03
2.905237e+03,1.291159e+03
2.908130e+03,1.264840e+03
2.911022e+03,1.267157e+03
2.913915e+03,1.287547e+03
2.916808e+03,1.264466e+03
2.919700e+03,1.252910e+03
2.922593e+03,1.263975e+03
2.925486e+03,1.250538e+03
2.928379e+03,1.282114e+03
2.931271e+03,1.255077e+03
2.934164e+03,1.248604e+03
2.937057e+03,1.256724e+03
2.939949e+03,1.231898e+03
2.942842e+03,1.233059e+03
2.945735e+03,1.242676e+03
2.948627e+03,1.232171e+03
2.951520e+03,1.229628e+03
2.954413e+03,1.231204e+03
2.957306e+03,1.279023e+03
2.960198e+03,1.210130e+03
2.963091e+03,1.213566e+03
2.965984e+03,1.208672e+03
2.968876e+03,1.218810e+03
2.971769e+03,1.219653e+03
2.974662e+03,1.183784e+03
2.977554e+03,1.222068e+03
2.980447e+03,1.193478e+03
2.983340e+03,1.197367e+03
2.986233e+03,1.196976e+03
2.989125e+03,1.187178e+03
2.992018e+03,1.178774e+03
2.994911e+03,1.178632e+03
2.997803e+03,1.172295e+03
3.000696e+03,1.174473e+03
3.003589e+03,1.156443e+03
3.006481e+03,1.198950e+03
3.009374e+03,1.184809e+03
3.012267e+03,1.203232e+03
3.015160e+03,1.192670e+03
3.018052e+03,1.142878e+03
3.020945e+03,1.169180e+03
3.023838e+03,1.175825e+03
3.026730e+03,1.171713e+03
3.029623e+03,1.136242e+03
3.032516e+03,1.141378e+03
3.035408e+03,1.153882e+03
3.038301e+03,1.159303e+03
3.041194e+03,1.172011e+03
3.044087e+03,1.168628e+03
3.046979e+03,1.126390e+03
3.049872e+03,1.144582e+03
3.052765e+03,1.156845e+03
3.055657e+03,1.160889e+03
3.058550e+03,1.125003e+03
3.061443e+03,1.131794e+03
3.064335e+03,1.157731e+03
3.067228e+03,1.130884e+03
3.070121e+03,1.130215e+03
3.073014e+03,1.144354e+03
3.075906e+03,1.140624e+03
3.078799e+03,1.179559e+03
3.081692e+03,1.146775e+03
3.084584e+03,1.138427e+03
3.087477e+03,1.123714e+03
3.090370e+03,1.137430e+03
3.093262e+03,1.169397e+03
3.096155e+03,1.096357e+03
3.099048e+03,1.108280e+03
3.101941e+03,1.166377e+03
3.104833e+03,1.120195e+03
3.107726e+03,1.124146e+03
3.110619e+03,1.108389e+03
3.113511e+03,1.079435e+03
3.116404e+03,1.124880e+03
3.119297e+03,1.124194e+03
3.122189e+03,1.135159e+03
3.125082e+03,1.133840e+03
3.127975e+03,1.142552e+03
3.130868e+03,1.136282e+03
3.133760e+03,1.124156e+03
3.136653e+03,1.117897e+03
3.139546e+03,1.182932e+03
3.142438e+03,1.113929e+03
3.145331e+03,1.116066e+03
3.148224e+03,1.103725e+03
3.151116e+03,1.130690e+03
3.154009e+03,1.126563e+03
3.156902e+03,1.109851e+03
3.159795e+03,1.104806e+03
3.162687e+03,1.156641e+03
3.165580e+03,1.109705e+03
3.168473e+03,1.133674e+03
3.171365e+03,1.106533e+03
3.174258e+03,1.115227e+03
3.177151e+03,1.115921e+03
3.180043e+03,1.104533e+03
3.182936e+03,1.121573e+03
3.185829e+03,1.144635e+03
3.188722e+03,1.082976e+03
3.191614e+03,1.119518e+03
3.194507e+03,1.126656e+03
3.197400e+03,1.102748e+03
3.200292e+03,1.117075e+03
3.203185e+03,0.000000e+00
3.206078e+03,0.000000e+00
3.208970e+03,0.000000e+00
3.211863e+03,0.000000e+00
3.214756e+03,0.000000e+00
3.217649e+03,0.000000e+00
3.220541e+03,0.000000e+00
3.223434e+03,0.000000e+00
3.226327e+03,0.000000e+00
3.229219e+03,0.000000e+00
3.232112e+03,0.000000e+00
3.235005e+03,0.000000e+00
3.237897e+03,0.000000e+00
3.240790e+03,0.000000e+00
3.243683e+03,0.000000e+00
3.246576e+03,0.000000e+00
3.249468e+03,0.000000e+00
3.252361e+03,0.000000e+00
3.255254e+03,0.000000e+00
3.258146e+03,0.000000e+00
3.261039e+03,0.000000e+00
3.263932e+03,0.000000e+00
3.266824e+03,0.000000e+00
3.269717e+03,0.000000e+00
3.272610e+03,0.000000e+00
3.275503e+03,0.000000e+00
3.278395e+03,0.000000e+00
3.281288e+03,0.000000e+00
3.284181e+03,0.000000e+00
3.287073e+03,0.000000e+00
3.289966e+03,0.000000e+00
3.292859e+03,0.000000e+00
3.295751e+03,0.000000e+00
3.298644e+03,0.000000e+00
3.301537e+03,0.000000e+00
3.304430e+03,0.000000e+00
3.307322e+03,0.000000e+00
3.310215e+03,0.000000e+00
3.313108e+03,0.000000e+00
3.316000e+03,0.000000e+00
3.318893e+03,0.000000e+00
3.321786e+03,0.000000e+00
3.324678e+03,0.000000e+00
3.327571e+03,0.000000e+00
3.330464e+03,0.000000e+00
3.333357e+03,0.000000e+00
3.336249e+03,0.000000e+00
3.339142e+03,0.000000e+00
3.342035e+03,0.000000e+00
3.344927e+03,0.000000e+00
3.347820e+03,0.000000e+00
3.350713e+03,0.000000e+00
3.353605e+03,0.000000e+00
3.356498e+03,0.000000e+00
3.359391e+03,0.000000e+00
3.362284e+03,0.000000e+00
3.365176e+03,0.000000e+00
3.368069e+03,0.000000e+00
3.370962e+03,0.000000e+00
3.373854e+03,0.000000e+00
3.376747e+03,0.000000e+00
3.379640e+03,0.000000e+00
3.382532e+03,0.000000e+00
3.385425e+03,0.000000e+00
3.388318e+03,0.000000e+00
3.391211e+03,0.000000e+00
3.394103e+03,0.000000e+00
3.396996e+03,0.000000e+00
3.399889e+03,0.000000e+00
3.402781e+03,0.000000e+00
3.405674e+03,0.000000e+00
3.408567e+03,0.000000e+00
3.411459e+03,0.000000e+00
3.414352e+03,0.000000e+00
3.417245e+03,0.000000e+00
3.420138e+03,0.000000e+00
3.423030e+03,0.000000e+00
3.425923e+03,0.000000e+00
3.428816e+03,0.000000e+00
3.431708e+03,0.000000e+00
3.434601e+03,0.000000e+00
3.437494e+03,0.000000e+00
3.440386e+03,0.000000e+00
3.443279e+03,0.000000e+00
3.446172e+03,0.000000e+00
3.449065e+03,0.000000e+00
3.451957e+03,0.000000e+00
3.454850e+03,0.000000e+00
3.457743e+03,0.000000e+00
3.460635e+03,0.000000e+00
3.463528e+03,0.000000e+00
3.466421e+03,0.000000e+00
3.469313e+03,0.000000e+00
3.472206e+03,0.000000e+00
3.475099e+03,0.000000e+00
3.477992e+03,0.000000e+00
3.480884e+03,0.000000e+00
3.483777e+03,0.000000e+00
3.486670e+03,0.000000e+00
3.489563e+03,0.000000e+00
3.492455e+03,0.000000e+00
3.495348e+03,0.000000e+00
3.498240e+03,0.000000e+00
3.500169e+03,0.000000e+00