File: RAMAN_data/19072023_r3/black fibre2.CSV
9.931763e+01,0.000000e+00
1.022103e+02,0.000000e+00
1.051030e+02,0.000000e+00
1.079957e+02,0.000000e+00
1.108884e+02,0.000000e+00
1.137811e+02,0.000000e+00
1.166738e+02,0.000000e+00
1.195665e+02,0.000000e+00
1.224592e+02,0.000000e+00
1.253519e+02,0.000000e+00
1.282446e+02,0.000000e+00
1.311373e+02,0.000000e+00
1.340300e+02,0.000000e+00
1.369227e+02,0.000000e+00
1.398154e+02,0.000000e+00
1.427081e+02,0.000000e+00
1.456008e+02,0.000000e+00
1.484935e+02,0.000000e+00
1.513862e+02,0.000000e+00
1.542789e+02,0.000000e+00
1.571716e+02,0.000000e+00
1.600643e+02,0.000000e+00
1.629570e+02,0.000000e+00
1.658497e+02,0.000000e+00
1.687424e+02,0.000000e+00
1.716351e+02,0.000000e+00
1.745278e+02,0.000000e+00
1.774205e+02,0.000000e+00
1.803132e+02,0.000000e+00
1.832059e+02,0.000000e+00
1.860986e+02,0.000000e+00
1.889913e+02,0.000000e+00
1.918840e+02,0.000000e+00
1.947767e+02,0.000000e+00
1.976694e+02,0.000000e+00
2.005621e+02,3.484182e+03
2.034548e+02,3.493247e+03
2.063475e+02,3.498957e+03
2.092402e+02,3.493161e+03
2.121329e+02,3.490519e+03
2.150256e+02,3.487481e+03
2.179183e+02,3.494481e+03
2.208110e+02,3.506424e+03
2.237037e+02,3.492632e+03
2.265964e+02,3.483477e+03
2.294892e+02,3.493949e+03
2.323819e+02,3.496761e+03
2.352746e+02,3.504632e+03
2.381673e+02,3.513820e+03
2.410600e+02,3.521950e+03
2.439527e+02,3.518811e+03
2.468454e+02,3.511302e+03
2.497381e+02,3.511306e+03
2.526308e+02,3.496784e+03
2.555235e+02,3.512329e+03
2.584161e+02,3.503487e+03
2.613088e+02,3.494558e+03
2.642015e+02,3.498012e+03
2.670942e+02,3.507925e+03
2.699869e+02,3.514456e+03
2.728796e+02,3.490435e+03
2.757723e+02,3.481929e+03
2.786650e+02,3.503938e+03
2.815577e+02,3.502874e+03
2.844504e+02,3.510570e+03
2.873431e+02,3.509566e+03
2.902358e+02,3.521165e+03
2.931285e+02,3.528184e+03
2.960212e+02,3.537357e+03
2.989139e+02,3.542447e+03
3.018066e+02,3.548938e+03
3.046993e+02,3.559163e+03
3.075920e+02,3.560016e+03
3.104847e+02,3.560757e+03
3.133774e+02,3.551352e+03
3.162701e+02,3.559724e+03
3.191628e+02,3.559661e+03
3.220555e+02,3.552104e+03
3.249482e+02,3.545330e+03
3.278409e+02,3.551468e+03
3.307336e+02,3.551943e+03
3.336263e+02,3.551059e+03
3.365190e+02,3.547813e+03
3.394117e+02,3.560738e+03
3.423044e+02,3.547031e+03
3.451971e+02,3.549468e+03
3.480898e+02,3.543340e+03
3.509825e+02,3.526573e+03
3.538752e+02,3.525112e+03
3.567680e+02,3.529231e+03
3.596607e+02,3.535209e+03
3.625534e+02,3.528481e+03
3.654461e+02,3.528198e+03
3.683388e+02,3.514293e+03
3.712315e+02,3.537876e+03
3.741242e+02,3.537848e+03
3.770169e+02,3.544117e+03
3.799096e+02,3.545682e+03
3.828023e+02,3.533200e+03
3.856950e+02,3.526521e+03
3.885877e+02,3.486153e+03
3.914804e+02,3.479536e+03
3.943731e+02,3.484475e+03
3.972658e+02,3.462544e+03
4.001585e+02,3.472210e+03
4.030512e+02,3.477434e+03
4.059439e+02,3.447079e+03
4.088366e+02,3.471059e+03
4.117293e+02,3.455824e+03
4.146220e+02,3.461599e+03
4.175147e+02,3.476461e+03
4.204074e+02,3.472771e+03
4.233001e+02,3.464476e+03
4.261928e+02,3.474053e+03
4.290855e+02,3.475917e+03
4.319782e+02,3.477093e+03
4.348709e+02,3.487525e+03
4.377636e+02,3.491880e+03
4.406563e+02,3.497840e+03
4.435490e+02,3.491253e+03
4.464417e+02,3.487048e+03
4.493344e+02,3.480050e+03
4.522271e+02,3.497464e+03
4.551198e+02,3.493560e+03
4.580125e+02,3.470632e+03
4.609052e+02,3.472651e+03
4.637979e+02,3.464613e+03
4.666906e+02,3.448369e+03
4.695833e+02,3.458910e+03
4.724760e+02,3.458179e+03
4.753687e+02,3.451818e+03
4.782614e+02,3.445489e+03
4.811541e+02,3.446835e+03
4.840468e+02,3.456737e+03
4.869395e+02,3.444435e+03
4.898322e+02,3.444468e+03
4.927249e+02,3.444001e+03
4.956176e+02,3.438793e+03
4.985103e+02,3.436620e+03
5.014030e+02,3.433016e+03
5.042957e+02,3.423246e+03
5.071884e+02,3.429345e+03
5.100811e+02,3.421016e+03
5.129738e+02,3.420373e+03
5.158665e+02,3.419848e+03
5.187592e+02,3.412302e+03
5.216519e+02,3.381000e+03
5.245446e+02,3.372993e+03
5.274373e+02,3.358200e+03
5.303300e+02,3.350264e+03
5.332227e+02,3.340232e+03
5.361154e+02,3.340031e+03
5.390081e+02,3.322972e+03
5.419008e+02,3.336516e+03
5.447935e+02,3.337073e+03
5.476862e+02,3.325846e+03
5.505789e+02,3.318156e+03
5.534716e+02,3.314269e+03
5.563643e+02,3.307990e+03
5.592570e+02,3.325475e+03
5.621497e+02,3.311134e+03
5.650424e+02,3.329573e+03
5.679351e+02,3.327221e+03
5.708278e+02,3.314981e+03
5.737205e+02,3.315691e+03
5.766132e+02,3.359356e+03
5.795059e+02,3.338930e+03
5.823986e+02,3.329251e+03
5.852913e+02,3.321523e+03
5.881840e+02,3.312911e+03
5.910767e+02,3.313138e+03
5.939694e+02,3.329060e+03
5.968621e+02,3.299292e+03
5.997548e+02,3.323601e+03
6.026475e+02,3.303092e+03
6.055402e+02,3.295663e+03
6.084329e+02,3.294508e+03
6.113256e+02,3.280129e+03
6.142183e+02,3.272827e+03
6.171110e+02,3.279468e+03
6.200037e+02,3.262621e+03
6.228964e+02,3.273654e+03
6.257891e+02,3.287887e+03
6.286818e+02,3.273263e+03
6.315745e+02,3.268017e+03
6.344672e+02,3.269769e+03
6.373599e+02,3.265056e+03
6.402526e+02,3.251103e+03
6.431453e+02,3.226761e+03
6.460380e+02,3.226881e+03
6.489307e+02,3.212488e+03
6.518234e+02,3.200551e+03
6.547161e+02,3.201967e+03
6.576088e+02,3.198910e+03
6.605015e+02,3.192740e+03
6.633942e+02,3.182876e+03
6.662869e+02,3.156258e+03
6.691796e+02,3.157703e+03
6.720723e+02,3.144150e+03
6.749650e+02,3.144097e+03
6.778577e+02,3.125635e+03
6.807504e+02,3.143520e+03
6.836431e+02,3.121563e+03
6.865358e+02,3.123949e+03
6.894285e+02,3.125149e+03
6.923212e+02,3.104426e+03
6.952139e+02,3.109764e+03
6.981066e+02,3.113653e+03
7.009993e+02,3.118988e+03
7.038920e+02,3.110647e+03
7.067847e+02,3.115086e+03
7.096774e+02,3.111694e+03
7.125701e+02,3.124726e+03
7.154628e+02,3.127295e+03
7.183555e+02,3.127766e+03
7.212482e+02,3.123834e+03
7.241409e+02,3.115566e+03
7.270336e+02,3.117927e+03
7.299263e+02,3.120489e+03
7.328190e+02,3.112332e+03
7.357117e+02,3.095491e+03
7.386044e+02,3.066935e+03
7.414971e+02,3.077399e+03
7.443898e+02,3.071751e+03
7.472825e+02,3.081048e+03
7.501752e+02,3.052836e+03
7.530679e+02,3.056910e+03
7.559606e+02,3.053042e+03
7.588533e+02,3.056977e+03
7.617460e+02,3.071750e+03
7.646387e+02,3.074605e+03
7.675314e+02,3.049520e+03
7.704241e+02,3.036210e+03
7.733168e+02,3.024989e+03
7.762095e+02,3.025437e+03
7.791022e+02,3.031838e+03
7.819949e+02,3.009042e+03
7.848876e+02,2.998427e+03
7.877803e+02,2.990012e+03
7.906730e+02,2.982497e+03
7.935657e+02,2.991017e+03
7.964584e+02,2.962370e+03
7.993511e+02,2.963453e+03
8.022438e+02,2.962330e+03
8.051365e+02,2.947915e+03
8.080292e+02,2.942479e+03
8.109219e+02,2.934686e+03
8.138146e+02,2.935275e+03
8.167073e+02,2.936234e+03
8.196000e+02,2.929398e+03
8.224927e+02,2.934446e+03
8.253854e+02,2.914845e+03
8.282781e+02,2.892782e+03
8.311708e+02,2.885466e+03
8.340635e+02,2.899816e+03
8.369562e+02,2.883730e+03
8.398489e+02,2.888667e+03
8.427416e+02,2.894047e+03
8.456343e+02,2.880812e+03
8.485270e+02,2.896761e+03
8.514197e+02,2.886031e+03
8.543124e+02,2.874931e+03
8.572051e+02,2.882683e+03
8.600978e+02,2.873791e+03
8.629905e+02,2.880876e+03
8.658832e+02,2.871257e+03
8.687759e+02,2.839155e+03
8.716686e+02,2.852757e+03
8.745613e+02,2.849438e+03
8.774540e+02,2.827281e+03
8.803467e+02,2.840267e+03
8.832394e+02,2.848843e+03
8.861321e+02,2.838650e+03
8.890248e+02,2.843456e+03
8.919175e+02,2.832072e+03
8.948102e+02,2.819583e+03
8.977029e+02,2.813679e+03
9.005956e+02,2.832515e+03
9.034883e+02,2.813552e+03
9.063810e+02,2.811280e+03
9.092737e+02,2.791857e+03
9.121664e+02,2.802242e+03
9.150591e+02,2.793971e+03
9.179518e+02,2.796029e+03
9.208445e+02,2.755707e+03
9.237372e+02,2.749855e+03
9.266299e+02,2.757208e+03
9.295226e+02,2.756326e+03
9.324153e+02,2.755997e+03
9.353080e+02,2.745715e+03
9.382007e+02,2.723984e+03
9.410934e+02,2.723371e+03
9.439861e+02,2.728511e+03
9.468788e+02,2.731716e+03
9.497715e+02,2.727653e+03
9.526642e+02,2.728257e+03
9.555569e+02,2.708615e+03
9.584496e+02,2.695353e+03
9.613423e+02,2.700543e+03
9.642350e+02,2.695019e+03
9.671277e+02,2.705344e+03
9.700204e+02,2.683920e+03
9.729131e+02,2.691869e+03
9.758058e+02,2.690077e+03
9.786985e+02,2.676396e+03
9.815912e+02,2.655801e+03
9.844839e+02,2.647248e+03
9.873766e+02,2.654185e+03
9.902693e+02,2.646272e+03
9.931620e+02,2.645103e+03
9.960547e+02,2.639888e+03
9.989474e+02,2.649802e+03
1.001840e+03,2.611621e+03
1.004733e+03,2.626295e+03
1.007626e+03,2.628491e+03
1.010518e+03,2.631966e+03
1.013411e+03,2.618786e+03
1.016304e+03,2.598123e+03
1.019196e+03,2.608600e+03
1.022089e+03,2.611838e+03
1.024982e+03,2.596347e+03
1.027875e+03,2.592397e+03
1.030767e+03,2.593753e+03
1.033660e+03,2.596707e+03
1.036552e+03,2.601299e+03
1.039445e+03,2.594609e+03
1.042338e+03,2.592108e+03
1.045231e+03,2.571978e+03
1.048123e+03,2.565476e+03
1.051016e+03,2.581247e+03
1.053909e+03,2.583344e+03
1.056802e+03,2.571767e+03
1.059694e+03,2.574612e+03
1.062587e+03,2.562815e+03
1.065479e+03,2.573307e+03
1.068372e+03,2.579531e+03
1.071265e+03,2.582423e+03
1.074158e+03,2.589702e+03
1.077050e+03,2.561092e+03
1.079943e+03,2.559308e+03
1.082836e+03,2.555894e+03
1.085729e+03,2.561341e+03
1.088621e+03,2.562643e+03
1.091514e+03,2.539928e+03
1.094406e+03,2.546988e+03
1.097299e+03,2.540755e+03
1.100192e+03,2.517231e+03
1.103085e+03,2.521624e+03
1.105977e+03,2.523659e+03
1.108870e+03,2.511785e+03
1.111763e+03,2.529558e+03
1.114656e+03,2.509885e+03
1.117548e+03,2.526647e+03
1.120441e+03,2.506042e+03
1.123334e+03,2.500293e+03
1.126226e+03,2.495784e+03
1.129119e+03,2.476042e+03
1.132012e+03,2.484704e+03
1.134904e+03,2.500432e+03
1.137797e+03,2.483230e+03
1.140690e+03,2.495339e+03
1.143583e+03,2.499319e+03
1.146475e+03,2.501354e+03
1.149368e+03,2.502957e+03
1.152261e+03,2.503345e+03
1.155153e+03,2.485871e+03
1.158046e+03,2.479065e+03
1.160939e+03,2.493390e+03
1.163831e+03,2.495064e+03
1.166724e+03,2.480770e+03
1.169617e+03,2.488068e+03
1.172510e+03,2.457509e+03
1.175402e+03,2.442851e+03
1.178295e+03,2.432806e+03
1.181188e+03,2.429859e+03
1.184080e+03,2.432655e+03
1.186973e+03,2.416534e+03
1.189866e+03,2.424157e+03
1.192758e+03,2.420174e+03
1.195651e+03,2.416480e+03
1.198544e+03,2.418706e+03
1.201437e+03,2.402583e+03
1.204329e+03,2.393255e+03
1.207222e+03,2.400208e+03
1.210115e+03,2.399574e+03
1.213007e+03,2.384428e+03
1.215900e+03,2.392027e+03
1.218793e+03,2.390019e+03
1.221685e+03,2.385776e+03
1.224578e+03,2.387632e+03
1.227471e+03,2.382403e+03
1.230364e+03,2.369754e+03
1.233256e+03,2.353491e+03
1.236149e+03,2.372347e+03
1.239042e+03,2.356989e+03
1.241934e+03,2.349113e+03
1.244827e+03,2.356325e+03
1.247720e+03,2.337311e+03
1.250612e+03,2.339354e+03
1.253505e+03,2.331972e+03
1.256398e+03,2.325343e+03
1.259291e+03,2.314316e+03
1.262183e+03,2.309870e+03
1.265076e+03,2.326376e+03
1.267969e+03,2.313835e+03
1.270861e+03,2.331663e+03
1.273754e+03,2.328228e+03
1.276647e+03,2.320019e+03
1.279539e+03,2.314307e+03
1.282432e+03,2.304040e+03
1.285325e+03,2.306855e+03
1.288218e+03,2.319944e+03
1.291110e+03,2.312433e+03
1.294003e+03,2.309565e+03
1.296896e+03,2.322540e+03
1.299788e+03,2.316221e+03
1.302681e+03,2.315677e+03
1.305574e+03,2.333630e+03
1.308466e+03,2.326899e+03
1.311359e+03,2.341126e+03
1.314252e+03,2.337988e+03
1.317145e+03,2.342186e+03
1.320037e+03,2.349425e+03
1.322930e+03,2.354646e+03
1.325823e+03,2.329563e+03
1.328715e+03,2.334095e+03
1.331608e+03,2.316466e+03
1.334501e+03,2.313009e+03
1.337393e+03,2.298219e+03
1.340286e+03,2.308197e+03
1.343179e+03,2.277855e+03
1.346072e+03,2.288158e+03
1.348964e+03,2.282299e+03
1.351857e+03,2.276108e+03
1.354750e+03,2.272406e+03
1.357642e+03,2.259137e+03
1.360535e+03,2.275252e+03
1.363428e+03,2.276749e+03
1.366320e+03,2.262202e+03
1.369213e+03,2.270586e+03
1.372106e+03,2.250030e+03
1.374999e+03,2.249660e+03
1.377891e+03,2.251404e+03
1.380784e+03,2.230134e+03
1.383677e+03,2.230725e+03
1.386569e+03,2.213036e+03
1.389462e+03,2.205140e+03
1.392355e+03,2.203203e+03
1.395247e+03,2.183164e+03
1.398140e+03,2.184360e+03
1.401033e+03,2.180740e+03
1.403926e+03,2.169294e+03
1.406818e+03,2.162114e+03
1.409711e+03,2.151690e+03
1.412604e+03,2.161815e+03
1.415496e+03,2.160529e+03
1.418389e+03,2.153955e+03
1.421282e+03,2.143361e+03
1.424174e+03,2.143300e+03
1.427067e+03,2.142528e+03
1.429960e+03,2.146077e+03
1.432853e+03,2.150295e+03
1.435745e+03,2.147353e+03
1.438638e+03,2.147818e+03
1.441531e+03,2.136714e+03
1.444423e+03,2.140430e+03
1.447316e+03,2.138190e+03
1.450209e+03,2.128168e+03
1.453101e+03,2.125740e+03
1.455994e+03,2.128226e+03
1.458887e+03,2.120106e+03
1.461780e+03,2.112214e+03
1.464672e+03,2.101702e+03
1.467565e+03,2.095010e+03
1.470458e+03,2.096669e+03
1.473350e+03,2.073497e+03
1.476243e+03,2.082692e+03
1.479136e+03,2.085735e+03
1.482028e+03,2.074563e+03
1.484921e+03,2.083401e+03
1.487814e+03,2.093451e+03
1.490707e+03,2.085976e+03
1.493599e+03,2.094597e+03
1.496492e+03,2.076911e+03
1.499385e+03,2.092617e+03
1.502277e+03,2.091426e+03
1.505170e+03,2.087492e+03
1.508063e+03,2.080146e+03
1.510955e+03,2.085447e+03
1.513848e+03,2.062959e+03
1.516741e+03,2.062707e+03
1.519634e+03,2.067144e+03
1.522526e+03,2.059947e+03
1.525419e+03,2.043601e+03
1.528312e+03,2.043868e+03
1.531204e+03,2.032386e+03
1.534097e+03,2.027043e+03
1.536990e+03,2.017673e+03
1.539882e+03,2.010296e+03
1.542775e+03,2.009162e+03
1.545668e+03,2.010714e+03
1.548561e+03,2.009585e+03
1.551453e+03,2.007943e+03
1.554346e+03,2.015068e+03
1.557239e+03,1.998740e+03
1.560131e+03,2.006431e+03
1.563024e+03,1.999972e+03
1.565917e+03,2.024457e+03
1.568809e+03,2.005324e+03
1.571702e+03,2.022047e+03
1.574595e+03,2.018297e+03
1.577488e+03,2.025497e+03
1.580380e+03,2.029834e+03
1.583273e+03,2.022607e+03
1.586166e+03,2.019453e+03
1.589058e+03,2.008582e+03
1.591951e+03,1.994077e+03
1.594844e+03,2.003751e+03
1.597736e+03,1.990536e+03
1.600629e+03,1.999647e+03
1.603522e+03,1.973746e+03
1.606415e+03,2.000020e+03
1.609307e+03,1.998080e+03
1.612200e+03,1.992974e+03
1.615093e+03,1.997403e+03
1.617985e+03,1.971373e+03
1.620878e+03,1.940523e+03
1.623771e+03,1.942997e+03
1.626663e+03,1.948693e+03
1.629556e+03,1.938544e+03
1.632449e+03,1.939143e+03
1.635342e+03,1.926922e+03
1.638234e+03,1.937991e+03
1.641127e+03,1.929037e+03
1.644020e+03,1.933497e+03
1.646912e+03,1.903128e+03
1.649805e+03,1.900505e+03
1.652698e+03,1.905635e+03
1.655590e+03,1.888721e+03
1.658483e+03,1.882284e+03
1.661376e+03,1.873733e+03
1.664269e+03,1.862878e+03
1.667161e+03,1.859355e+03
1.670054e+03,1.843378e+03
1.672947e+03,1.859734e+03
1.675839e+03,1.843547e+03
1.678732e+03,1.859986e+03
1.681625e+03,1.842936e+03
1.684517e+03,1.832336e+03
1.687410e+03,1.832130e+03
1.690303e+03,1.829469e+03
1.693196e+03,1.834962e+03
1.696088e+03,1.821972e+03
1.698981e+03,1.833617e+03
1.701874e+03,1.821667e+03
1.704766e+03,1.828328e+03
1.707659e+03,1.824811e+03
1.710552e+03,1.824742e+03
1.713444e+03,1.839377e+03
1.716337e+03,1.825838e+03
1.719230e+03,1.834703e+03
1.722123e+03,1.804380e+03
1.725015e+03,1.833819e+03
1.727908e+03,1.812097e+03
1.730801e+03,1.820503e+03
1.733693e+03,1.812753e+03
1.736586e+03,1.792509e+03
1.739479e+03,1.792405e+03
1.742371e+03,1.785224e+03
1.745264e+03,1.770814e+03
1.748157e+03,1.772544e+03
1.751050e+03,1.756477e+03
1.753942e+03,1.769131e+03
1.756835e+03,1.758034e+03
1.759728e+03,1.767788e+03
1.762620e+03,1.771781e+03
1.765513e+03,1.762278e+03
1.768406e+03,1.760710e+03
1.771298e+03,1.756354e+03
1.774191e+03,1.754799e+03
1.777084e+03,1.734706e+03
1.779977e+03,1.738553e+03
1.782869e+03,1.744592e+03
1.785762e+03,1.720539e+03
1.788655e+03,1.696644e+03
1.791547e+03,1.697711e+03
1.794440e+03,1.694279e+03
1.797333e+03,1.700002e+03
1.800225e+03,1.695999e+03
1.803118e+03,1.680292e+03
1.806011e+03,1.672612e+03
1.808904e+03,1.663596e+03
1.811796e+03,1.702526e+03
1.814689e+03,1.671976e+03
1.817582e+03,1.683064e+03
1.820474e+03,1.674279e+03
1.823367e+03,1.670516e+03
1.826260e+03,1.663074e+03
1.829152e+03,1.666780e+03
1.832045e+03,1.670394e+03
1.834938e+03,1.657857e+03
1.837831e+03,1.645297e+03
1.840723e+03,1.640001e+03
1.843616e+03,1.666442e+03
1.846509e+03,1.637518e+03
1.849401e+03,1.642131e+03
1.852294e+03,1.640319e+03
1.855187e+03,1.629942e+03
1.858079e+03,1.618659e+03
1.860972e+03,1.615395e+03
1.863865e+03,1.639799e+03
1.866758e+03,1.617089e+03
1.869650e+03,1.608434e+03
1.872543e+03,1.629184e+03
1.875436e+03,1.615573e+03
1.878328e+03,1.601264e+03
1.881221e+03,1.614847e+03
1.884114e+03,1.594490e+03
1.887006e+03,1.589167e+03
1.889899e+03,1.591787e+03
1.892792e+03,1.580013e+03
1.895685e+03,1.563134e+03
1.898577e+03,1.591328e+03
1.901470e+03,1.575783e+03
1.904363e+03,1.568710e+03
1.907255e+03,1.577149e+03
1.910148e+03,1.563176e+03
1.913041e+03,1.570235e+03
1.915933e+03,1.560362e+03
1.918826e+03,1.544884e+03
1.921719e+03,1.551666e+03
1.924612e+03,1.540805e+03
1.927504e+03,1.529170e+03
1.930397e+03,1.513566e+03
1.933290e+03,1.520014e+03
1.936182e+03,1.511363e+03
1.939075e+03,1.515047e+03
1.941968e+03,1.520495e+03
1.944860e+03,1.489145e+03
1.947753e+03,1.501504e+03
1.950646e+03,1.495064e+03
1.953539e+03,1.488373e+03
1.956431e+03,1.480621e+03
1.959324e+03,1.483260e+03
1.962217e+03,1.483968e+03
1.965109e+03,1.464524e+03
1.968002e+03,1.496402e+03
1.970895e+03,1.452152e+03
1.973787e+03,1.481436e+03
1.976680e+03,1.472636e+03
1.979573e+03,1.467944e+03
1.982466e+03,1.497802e+03
1.985358e+03,1.459678e+03
1.988251e+03,1.480260e+03
1.991144e+03,1.472214e+03
1.994036e+03,1.455385e+03
1.996929e+03,1.467607e+03
1.999822e+03,1.462474e+03
2.002714e+03,1.441113e+03
2.005607e+03,1.452778e+03
2.008500e+03,1.435519e+03
2.011393e+03,1.428562e+03
2.014285e+03,1.442382e+03
2.017178e+03,1.429221e+03
2.020071e+03,1.416708e+03
2.022963e+03,1.439957e+03
2.025856e+03,1.419168e+03
2.028749e+03,1.389945e+03
2.031641e+03,1.419589e+03
2.034534e+03,1.405621e+03
2.037427e+03,1.395750e+03
2.040320e+03,1.396863e+03
2.043212e+03,1.385654e+03
2.046105e+03,1.391094e+03
2.048998e+03,1.383069e+03
2.051890e+03,1.355645e+03
2.054783e+03,1.350731e+03
2.057676e+03,1.353524e+03
2.060568e+03,1.354810e+03
2.063461e+03,1.363964e+03
2.066354e+03,1.367963e+03
2.069247e+03,1.340836e+03
2.072139e+03,1.329491e+03
2.075032e+03,1.332478e+03
2.077925e+03,1.328805e+03
2.080817e+03,1.326841e+03
2.083710e+03,1.320938e+03
2.086603e+03,1.319359e+03
2.089496e+03,1.316124e+03
2.092388e+03,1.311793e+03
2.095281e+03,1.304352e+03
2.098174e+03,1.319242e+03
2.101066e+03,1.300189e+03
2.103959e+03,1.295197e+03
2.106852e+03,1.305765e+03
2.109744e+03,1.315207e+03
2.112637e+03,1.309477e+03
2.115530e+03,1.279100e+03
2.118422e+03,1.289603e+03
2.121315e+03,1.296626e+03
2.124208e+03,1.287590e+03
2.127101e+03,1.276502e+03
2.129993e+03,1.277349e+03
2.132886e+03,1.281038e+03
2.135779e+03,1.263888e+03
2.138671e+03,1.282659e+03
2.141564e+03,1.269500e+03
2.144457e+03,1.268288e+03
2.147350e+03,1.248794e+03
2.150242e+03,1.259063e+03
2.153135e+03,1.266700e+03
2.156028e+03,1.243094e+03
2.158920e+03,1.241317e+03
2.161813e+03,1.240096e+03
2.164706e+03,1.229546e+03
2.167598e+03,1.231207e+03
2.170491e+03,1.227240e+03
2.173384e+03,1.220631e+03
2.176277e+03,1.215693e+03
2.179169e+03,1.201556e+03
2.182062e+03,1.214433e+03
2.184955e+03,1.195560e+03
2.187847e+03,1.199093e+03
2.190740e+03,1.190519e+03
2.193633e+03,1.184074e+03
2.196525e+03,1.171444e+03
2.199418e+03,1.188274e+03
2.202311e+03,1.167615e+03
2.205204e+03,1.182351e+03
2.208096e+03,1.188536e+03
2.210989e+03,1.153618e+03
2.213882e+03,1.168137e+03
2.216774e+03,1.161432e+03
2.219667e+03,1.163053e+03
2.222560e+03,1.158118e+03
2.225452e+03,1.149422e+03
2.228345e+03,1.135451e+03
2.231238e+03,1.143495e+03
2.234131e+03,1.159163e+03
2.237023e+03,1.133457e+03
2.239916e+03,1.120369e+03
2.242809e+03,1.124935e+03
2.245701e+03,1.111729e+03
2.248594e+03,1.122493e+03
2.251487e+03,1.145154e+03
2.254379e+03,1.115409e+03
2.257272e+03,1.104443e+03
2.260165e+03,1.119491e+03
2.263058e+03,1.105470e+03
2.265950e+03,1.096277e+03
2.268843e+03,1.103000e+03
2.271736e+03,1.108859e+03
2.274628e+03,1.116529e+03
2.277521e+03,1.109286e+03
2.280414e+03,1.098745e+03
2.283306e+03,1.105843e+03
2.286199e+03,1.091783e+03
2.289092e+03,1.092428e+03
2.291985e+03,1.098919e+03
2.294877e+03,1.090510e+03
2.297770e+03,1.079151e+03
2.300663e+03,1.075737e+03
2.303555e+03,1.078971e+03
2.306448e+03,1.058824e+03
2.309341e+03,1.061377e+03
2.312233e+03,1.048101e+03
2.315126e+03,1.051992e+03
2.318019e+03,1.049246e+03
2.320912e+03,1.045697e+03
2.323804e+03,1.032564e+03
2.326697e+03,1.028445e+03
2.329590e+03,1.024644e+03
2.332482e+03,1.016737e+03
2.335375e+03,1.026542e+03
2.338268e+03,1.016045e+03
2.341160e+03,1.008299e+03
2.344053e+03,1.015874e+03
2.346946e+03,1.003613e+03
2.349839e+03,1.001353e+03
2.352731e+03,1.004708e+03
2.355624e+03,1.012476e+03
2.358517e+03,1.006298e+03
2.361409e+03,9.908570e+02
2.364302e+03,9.977342e+02
2.367195e+03,9.790129e+02
2.370087e+03,9.988050e+02
2.372980e+03,9.866459e+02
2.375873e+03,1.001023e+03
2.378766e+03,9.902297e+02
2.381658e+03,9.732559e+02
2.384551e+03,9.835500e+02
2.387444e+03,9.821467e+02
2.390336e+03,9.579915e+02
2.393229e+03,9.885898e+02
2.396122e+03,9.676314e+02
2.399014e+03,9.635319e+02
2.401907e+03,9.764787e+02
2.404800e+03,9.773295e+02
2.407693e+03,9.715521e+02
2.410585e+03,9.603499e+02
2.413478e+03,9.621237e+02
2.416371e+03,9.564335e+02
2.419263e+03,9.544174e+02
2.422156e+03,9.607255e+02
2.425049e+03,9.559952e+02
2.427941e+03,9.402322e+02
2.430834e+03,9.486119e+02
2.433727e+03,9.468880e+02
2.436620e+03,9.485616e+02
2.439512e+03,9.453490e+02
2.442405e+03,9.183991e+02
2.445298e+03,9.326431e+02
2.448190e+03,9.282944e+02
2.451083e+03,9.367492e+02
2.453976e+03,9.280049e+02
2.456868e+03,9.116530e+02
2.459761e+03,9.052916e+02
2.462654e+03,8.965468e+02
2.465547e+03,8.975748e+02
2.468439e+03,8.985999e+02
2.471332e+03,9.059611e+02
2.474225e+03,9.005292e+02
2.477117e+03,8.871458e+02
2.480010e+03,8.933211e+02
2.482903e+03,8.856155e+02
2.485795e+03,9.028116e+02
2.488688e+03,8.818748e+02
2.491581e+03,8.839677e+02
2.494474e+03,8.863873e+02
2.497366e+03,8.826025e+02
2.500259e+03,8.841652e+02
2.503152e+03,8.871119e+02
2.506044e+03,8.639375e+02
2.508937e+03,8.566530e+02
2.511830e+03,8.652434e+02
2.514722e+03,8.665577e+02
2.517615e+03,8.531116e+02
2.520508e+03,8.572360e+02
2.523401e+03,8.489149e+02
2.526293e+03,8.670725e+02
2.529186e+03,8.448082e+02
2.532079e+03,8.579143e+02
2.534971e+03,8.604269e+02
2.537864e+03,8.521917e+02
2.540757e+03,8.525372e+02
2.543649e+03,8.368766e+02
2.546542e+03,8.642515e+02
2.549435e+03,8.710092e+02
2.552328e+03,8.492816e+02
2.555220e+03,8.477330e+02
2.558113e+03,8.461761e+02
2.561006e+03,8.496953e+02
2.563898e+03,8.658868e+02
2.566791e+03,8.441898e+02
2.569684e+03,8.146347e+02
2.572576e+03,8.387800e+02
2.575469e+03,8.486129e+02
2.578362e+03,8.357304e+02
2.581255e+03,8.245975e+02
2.584147e+03,8.203876e+02
2.587040e+03,8.310524e+02
2.589933e+03,8.272888e+02
2.592825e+03,8.187161e+02
2.595718e+03,8.062826e+02
2.598611e+03,8.024678e+02
2.601503e+03,8.109941e+02
2.604396e+03,8.093302e+02
2.607289e+03,8.015178e+02
2.610182e+03,8.038839e+02
2.613074e+03,8.005446e+02
2.615967e+03,7.952449e+02
2.618860e+03,7.909681e+02
2.621752e+03,7.990387e+02
2.624645e+03,8.025878e+02
2.627538e+03,7.865333e+02
2.630430e+03,7.823110e+02
2.633323e+03,7.885862e+02
2.636216e+03,7.818947e+02
2.639109e+03,7.785958e+02
2.642001e+03,7.937662e+02
2.644894e+03,7.810929e+02
2.647787e+03,7.859013e+02
2.650679e+03,7.842687e+02
2.653572e+03,7.707422e+02
2.656465e+03,7.733182e+02
2.659357e+03,7.688826e+02
2.662250e+03,7.684672e+02
2.665143e+03,7.725721e+02
2.668036e+03,7.718887e+02
2.670928e+03,7.577239e+02
2.673821e+03,7.776393e+02
2.676714e+03,7.690978e+02
2.679606e+03,7.689879e+02
2.682499e+03,7.581061e+02
2.685392e+03,7.715934e+02
2.688284e+03,7.670162e+02
2.691177e+03,7.587714e+02
2.694070e+03,7.533229e+02
2.696963e+03,7.566307e+02
2.699855e+03,7.574207e+02
2.702748e+03,7.473167e+02
2.705641e+03,7.320417e+02
2.708533e+03,7.478942e+02
2.711426e+03,7.591329e+02
2.714319e+03,7.465588e+02
2.717211e+03,7.416088e+02
2.720104e+03,7.339935e+02
2.722997e+03,7.360970e+02
2.725890e+03,7.459481e+02
2.728782e+03,7.281945e+02
2.731675e+03,7.177787e+02
2.734568e+03,7.366386e+02
2.737460e+03,7.300954e+02
2.740353e+03,7.164232e+02
2.743246e+03,7.137159e+02
2.746138e+03,7.273029e+02
2.749031e+03,7.283766e+02
2.751924e+03,7.318261e+02
2.754817e+03,7.187432e+02
2.757709e+03,7.139171e+02
2.760602e+03,7.116234e+02
2.763495e+03,7.036911e+02
2.766387e+03,7.104056e+02
2.769280e+03,7.064538e+02
2.772173e+03,7.145533e+02
2.775065e+03,7.074022e+02
2.777958e+03,7.157888e+02
2.780851e+03,7.111815e+02
2.783744e+03,6.909731e+02
2.786636e+03,6.994026e+02
2.789529e+03,6.942967e+02
2.792422e+03,7.104772e+02
2.795314e+03,7.139525e+02
2.798207e+03,6.891400e+02
2.801100e+03,7.014792e+02
2.803992e+03,6.976649e+02
2.806885e+03,7.029192e+02
2.809778e+03,6.890483e+02
2.812671e+03,6.673792e+02
2.815563e+03,6.821259e+02
2.818456e+03,6.858153e+02
2.821349e+03,6.815496e+02
2.824241e+03,6.804500e+02
2.827134e+03,7.056064e+02
2.830027e+03,6.980017e+02
2.832919e+03,6.735543e+02
2.835812e+03,6.853989e+02
2.838705e+03,6.628029e+02
2.841598e+03,6.708640e+02
2.844490e+03,6.814589e+02
2.847383e+03,6.636388e+02
2.850276e+03,6.866972e+02
2.853168e+03,6.735172e+02
2.856061e+03,6.873535e+02
2.858954e+03,6.668895e+02
2.861846e+03,6.832047e+02
2.864739e+03,6.744282e+02
2.867632e+03,6.839187e+02
2.870525e+03,6.893917e+02
2.873417e+03,6.734832e+02
2.876310e+03,6.831231e+02
2.879203e+03,6.782009e+02
2.882095e+03,6.552765e+02
2.884988e+03,6.790023e+02
2.887881e+03,6.966025e+02
2.890773e+03,6.677383e+02
2.893666e+03,6.792426e+02
2.896559e+03,6.673075e+02
2.899452e+03,6.797581e+02
2.902344e+03,6.797319e+02
2.905237e+03,6.739842e+02
2.908130e+03,6.631664e+02
2.911022e+03,6.645105e+02
2.913915e+03,6.614379e+02
2.916808e+03,6.770387e+02
2.919700e+03,6.625872e+02
2.922593e+03,6.690975e+02
2.925486e+03,6.511579e+02
2.928379e+03,6.657263e+02
2.931271e+03,6.444387e+02
2.934164e+03,6.620257e+02
2.937057e+03,6.603369e+02
2.939949e+03,6.621097e+02
2.942842e+03,6.425665e+02
2.945735e+03,6.366805e+02
2.948627e+03,6.776816e+02
2.951520e+03,6.440265e+02
2.954413e+03,6.593018e+02
2.957306e+03,6.728150e+02
2.960198e+03,6.521321e+02
2.963091e+03,6.594288e+02
2.965984e+03,6.288652e+02
2.968876e+03,6.341101e+02
2.971769e+03,6.439408e+02
2.974662e+03,6.443210e+02
2.977554e+03,6.630638e+02
2.980447e+03,6.265170e+02
2.983340e+03,6.183074e+02
2.986233e+03,6.216735e+02
2.989125e+03,6.141202e+02
2.992018e+03,6.213643e+02
2.994911e+03,6.299040e+02
2.997803e+03,6.376224e+02
3.000696e+03,6.028403e+02
3.003589e+03,6.049889e+02
3.006481e+03,6.186722e+02
3.009374e+03,6.211868e+02
3.012267e+03,6.168850e+02
3.015160e+03,6.018802e+02
3.018052e+03,6.049866e+02
3.020945e+03,6.105225e+02
3.023838e+03,5.973640e+02
3.026730e+03,6.053875e+02
3.029623e+03,6.018070e+02
3.032516e+03,6.082601e+02
3.035408e+03,5.903918e+02
3.038301e+03,6.182040e+02
3.041194e+03,5.940814e+02
3.044087e+03,6.243790e+02
3.046979e+03,6.406224e+02
3.049872e+03,6.083755e+02
3.052765e+03,5.904028e+02
3.055657e+03,6.118585e+02
3.058550e+03,6.109288e+02
3.061443e+03,6.174637e+02
3.064335e+03,5.783594e+02
3.067228e+03,6.103534e+02
3.070121e+03,6.179550e+02
3.073014e+03,6.037148e+02
3.075906e+03,6.160726e+02
3.078799e+03,5.666572e+02
3.081692e+03,6.027778e+02
3.084584e+03,5.957314e+02
3.087477e+03,6.106702e+02
3.090370e+03,6.256111e+02
3.093262e+03,5.693043e+02
3.096155e+03,6.034119e+02
3.099048e+03,6.077443e+02
3.101941e+03,6.050033e+02
3.104833e+03,5.619045e+02
3.107726e+03,6.116894e+02
3.110619e+03,5.649652e+02
3.113511e+03,6.126580e+02
3.116404e+03,6.089492e+02
3.119297e+03,6.048149e+02
3.122189e+03,5.960922e+02
3.125082e+03,6.006857e+02
3.127975e+03,5.768324e+02
3.130868e+03,5.903873e+02
3.133760e+03,5.971345e+02
3.136653e+03,6.239081e+02
3.139546e+03,6.073564e+02
3.142438e+03,6.210717e+02
3.145331e+03,6.215028e+02
3.148224e+03,6.058326e+02
3.151116e+03,5.942207e+02
3.154009e+03,6.079479e+02
3.156902e+03,5.971403e+02
3.159795e+03,5.941249e+02
3.162687e+03,5.851074e+02
3.165580e+03,6.153138e+02
3.168473e+03,6.014318e+02
3.171365e+03,5.666472e+02
3.174258e+03,5.963040e+02
3.177151e+03,6.192181e+02
3.180043e+03,5.936467e+02
3.182936e+03,5.994631e+02
3.185829e+03,5.826761e+02
3.188722e+03,5.707468e+02
3.191614e+03,6.353203e+02
3.194507e+03,5.549534e+02
3.197400e+03,6.329450e+02
3.200292e+03,6.357150e+02
3.203185e+03,0.000000e+00
3.206078e+03,0.000000e+00
3.208970e+03,0.000000e+00
3.211863e+03,0.000000e+00
3.214756e+03,0.000000e+00
3.217649e+03,0.000000e+00
3.220541e+03,0.000000e+00
3.223434e+03,0.000000e+00
3.226327e+03,0.000000e+00
3.229219e+03,0.000000e+00
3.232112e+03,0.000000e+00
3.235005e+03,0.000000e+00
3.237897e+03,0.000000e+00
3.240790e+03,0.000000e+00
3.243683e+03,0.000000e+00
3.246576e+03,0.000000e+00
3.249468e+03,0.000000e+00
3.252361e+03,0.000000e+00
3.255254e+03,0.000000e+00
3.258146e+03,0.000000e+00
3.261039e+03,0.000000e+00
3.263932e+03,0.000000e+00
3.266824e+03,0.000000e+00
3.269717e+03,0.000000e+00
3.272610e+03,0.000000e+00
3.275503e+03,0.000000e+00
3.278395e+03,0.000000e+00
3.281288e+03,0.000000e+00
3.284181e+03,0.000000e+00
3.287073e+03,0.000000e+00
3.289966e+03,0.000000e+00
3.292859e+03,0.000000e+00
3.295751e+03,0.000000e+00
3.298644e+03,0.000000e+00
3.301537e+03,0.000000e+00
3.304430e+03,0.000000e+00
3.307322e+03,0.000000e+00
3.310215e+03,0.000000e+00
3.313108e+03,0.000000e+00
3.316000e+03,0.000000e+00
3.318893e+03,0.000000e+00
3.321786e+03,0.000000e+00
3.324678e+03,0.000000e+00
3.327571e+03,0.000000e+00
3.330464e+03,0.000000e+00
3.333357e+03,0.000000e+00
3.336249e+03,0.000000e+00
3.339142e+03,0.000000e+00
3.342035e+03,0.000000e+00
3.344927e+03,0.000000e+00
3.347820e+03,0.000000e+00
3.350713e+03,0.000000e+00
3.353605e+03,0.000000e+00
3.356498e+03,0.000000e+00
3.359391e+03,0.000000e+00
3.362284e+03,0.000000e+00
3.365176e+03,0.000000e+00
3.368069e+03,0.000000e+00
3.370962e+03,0.000000e+00
3.373854e+03,0.000000e+00
3.376747e+03,0.000000e+00
3.379640e+03,0.000000e+00
3.382532e+03,0.000000e+00
3.385425e+03,0.000000e+00
3.388318e+03,0.000000e+00
3.391211e+03,0.000000e+00
3.394103e+03,0.000000e+00
3.396996e+03,0.000000e+00
3.399889e+03,0.000000e+00
3.402781e+03,0.000000e+00
3.405674e+03,0.000000e+00
3.408567e+03,0.000000e+00
3.411459e+03,0.000000e+00
3.414352e+03,0.000000e+00
3.417245e+03,0.000000e+00
3.420138e+03,0.000000e+00
3.423030e+03,0.000000e+00
3.425923e+03,0.000000e+00
3.428816e+03,0.000000e+00
3.431708e+03,0.000000e+00
3.434601e+03,0.000000e+00
3.437494e+03,0.000000e+00
3.440386e+03,0.000000e+00
3.443279e+03,0.000000e+00
3.446172e+03,0.000000e+00
3.449065e+03,0.000000e+00
3.451957e+03,0.000000e+00
3.454850e+03,0.000000e+00
3.457743e+03,0.000000e+00
3.460635e+03,0.000000e+00
3.463528e+03,0.000000e+00
3.466421e+03,0.000000e+00
3.469313e+03,0.000000e+00
3.472206e+03,0.000000e+00
3.475099e+03,0.000000e+00
3.477992e+03,0.000000e+00
3.480884e+03,0.000000e+00
3.483777e+03,0.000000e+00
3.486670e+03,0.000000e+00
3.489563e+03,0.000000e+00
3.492455e+03,0.000000e+00
3.495348e+03,0.000000e+00
3.498240e+03,0.000000e+00
3.500169e+03,0.000000e+00