File: RAMAN_data/19072023_r3/blue fibre1.CSV
9.931763e+01,0.000000e+00
1.022103e+02,0.000000e+00
1.051030e+02,0.000000e+00
1.079957e+02,0.000000e+00
1.108884e+02,0.000000e+00
1.137811e+02,0.000000e+00
1.166738e+02,0.000000e+00
1.195665e+02,0.000000e+00
1.224592e+02,0.000000e+00
1.253519e+02,0.000000e+00
1.282446e+02,0.000000e+00
1.311373e+02,0.000000e+00
1.340300e+02,0.000000e+00
1.369227e+02,0.000000e+00
1.398154e+02,0.000000e+00
1.427081e+02,0.000000e+00
1.456008e+02,0.000000e+00
1.484935e+02,0.000000e+00
1.513862e+02,0.000000e+00
1.542789e+02,0.000000e+00
1.571716e+02,0.000000e+00
1.600643e+02,0.000000e+00
1.629570e+02,0.000000e+00
1.658497e+02,0.000000e+00
1.687424e+02,0.000000e+00
1.716351e+02,0.000000e+00
1.745278e+02,0.000000e+00
1.774205e+02,0.000000e+00
1.803132e+02,0.000000e+00
1.832059e+02,0.000000e+00
1.860986e+02,0.000000e+00
1.889913e+02,0.000000e+00
1.918840e+02,0.000000e+00
1.947767e+02,0.000000e+00
1.976694e+02,0.000000e+00
2.005621e+02,3.753843e+03
2.034548e+02,3.768767e+03
2.063475e+02,3.781479e+03
2.092402e+02,3.797461e+03
2.121329e+02,3.793880e+03
2.150256e+02,3.809079e+03
2.179183e+02,3.804062e+03
2.208110e+02,3.817595e+03
2.237037e+02,3.821154e+03
2.265964e+02,3.825244e+03
2.294892e+02,3.836490e+03
2.323819e+02,3.849725e+03
2.352746e+02,3.853681e+03
2.381673e+02,3.843388e+03
2.410600e+02,3.861584e+03
2.439527e+02,3.895298e+03
2.468454e+02,3.914879e+03
2.497381e+02,3.933940e+03
2.526308e+02,3.930225e+03
2.555235e+02,3.917349e+03
2.584161e+02,3.903460e+03
2.613088e+02,3.941023e+03
2.642015e+02,3.954914e+03
2.670942e+02,3.941733e+03
2.699869e+02,3.957329e+03
2.728796e+02,3.976464e+03
2.757723e+02,3.990295e+03
2.786650e+02,4.008448e+03
2.815577e+02,4.017465e+03
2.844504e+02,3.995919e+03
2.873431e+02,4.000247e+03
2.902358e+02,3.995165e+03
2.931285e+02,3.988143e+03
2.960212e+02,3.991641e+03
2.989139e+02,3.998265e+03
3.018066e+02,3.995808e+03
3.046993e+02,3.997977e+03
3.075920e+02,4.002479e+03
3.104847e+02,3.998511e+03
3.133774e+02,4.016144e+03
3.162701e+02,4.017853e+03
3.191628e+02,4.026130e+03
3.220555e+02,4.024423e+03
3.249482e+02,4.027291e+03
3.278409e+02,4.036019e+03
3.307336e+02,4.043007e+03
3.336263e+02,4.038914e+03
3.365190e+02,4.052714e+03
3.394117e+02,4.049679e+03
3.423044e+02,4.042625e+03
3.451971e+02,4.046737e+03
3.480898e+02,4.070940e+03
3.509825e+02,4.070364e+03
3.538752e+02,4.085127e+03
3.567680e+02,4.090415e+03
3.596607e+02,4.081821e+03
3.625534e+02,4.103068e+03
3.654461e+02,4.097470e+03
3.683388e+02,4.091077e+03
3.712315e+02,4.102482e+03
3.741242e+02,4.106766e+03
3.770169e+02,4.111755e+03
3.799096e+02,4.108171e+03
3.828023e+02,4.102790e+03
3.856950e+02,4.120636e+03
3.885877e+02,4.110461e+03
3.914804e+02,4.099540e+03
3.943731e+02,4.121229e+03
3.972658e+02,4.086536e+03
4.001585e+02,4.117950e+03
4.030512e+02,4.143525e+03
4.059439e+02,4.136360e+03
4.088366e+02,4.126217e+03
4.117293e+02,4.133522e+03
4.146220e+02,4.137487e+03
4.175147e+02,4.142928e+03
4.204074e+02,4.158221e+03
4.233001e+02,4.131810e+03
4.261928e+02,4.147849e+03
4.290855e+02,4.146728e+03
4.319782e+02,4.166038e+03
4.348709e+02,4.152528e+03
4.377636e+02,4.169140e+03
4.406563e+02,4.161636e+03
4.435490e+02,4.169128e+03
4.464417e+02,4.160179e+03
4.493344e+02,4.173824e+03
4.522271e+02,4.179428e+03
4.551198e+02,4.166982e+03
4.580125e+02,4.179546e+03
4.609052e+02,4.188517e+03
4.637979e+02,4.163333e+03
4.666906e+02,4.171062e+03
4.695833e+02,4.192451e+03
4.724760e+02,4.169787e+03
4.753687e+02,4.187122e+03
4.782614e+02,4.186256e+03
4.811541e+02,4.178043e+03
4.840468e+02,4.191743e+03
4.869395e+02,4.183661e+03
4.898322e+02,4.191419e+03
4.927249e+02,4.190053e+03
4.956176e+02,4.203862e+03
4.985103e+02,4.221202e+03
5.014030e+02,4.212700e+03
5.042957e+02,4.208247e+03
5.071884e+02,4.216702e+03
5.100811e+02,4.218427e+03
5.129738e+02,4.213034e+03
5.158665e+02,4.215424e+03
5.187592e+02,4.232201e+03
5.216519e+02,4.238877e+03
5.245446e+02,4.224909e+03
5.274373e+02,4.242389e+03
5.303300e+02,4.248881e+03
5.332227e+02,4.241900e+03
5.361154e+02,4.246976e+03
5.390081e+02,4.279286e+03
5.419008e+02,4.288666e+03
5.447935e+02,4.284533e+03
5.476862e+02,4.280321e+03
5.505789e+02,4.272824e+03
5.534716e+02,4.276252e+03
5.563643e+02,4.282574e+03
5.592570e+02,4.285127e+03
5.621497e+02,4.268957e+03
5.650424e+02,4.243337e+03
5.679351e+02,4.230824e+03
5.708278e+02,4.204689e+03
5.737205e+02,4.218455e+03
5.766132e+02,4.220979e+03
5.795059e+02,4.225888e+03
5.823986e+02,4.230974e+03
5.852913e+02,4.205838e+03
5.881840e+02,4.218199e+03
5.910767e+02,4.238900e+03
5.939694e+02,4.255353e+03
5.968621e+02,4.251852e+03
5.997548e+02,4.234516e+03
6.026475e+02,4.252134e+03
6.055402e+02,4.236580e+03
6.084329e+02,4.263464e+03
6.113256e+02,4.272553e+03
6.142183e+02,4.229674e+03
6.171110e+02,4.232514e+03
6.200037e+02,4.211480e+03
6.228964e+02,4.215176e+03
6.257891e+02,4.214377e+03
6.286818e+02,4.204333e+03
6.315745e+02,4.198598e+03
6.344672e+02,4.226357e+03
6.373599e+02,4.200683e+03
6.402526e+02,4.179152e+03
6.431453e+02,4.190456e+03
6.460380e+02,4.189095e+03
6.489307e+02,4.187498e+03
6.518234e+02,4.172850e+03
6.547161e+02,4.192491e+03
6.576088e+02,4.167729e+03
6.605015e+02,4.163113e+03
6.633942e+02,4.177218e+03
6.662869e+02,4.173818e+03
6.691796e+02,4.195732e+03
6.720723e+02,4.199561e+03
6.749650e+02,4.187268e+03
6.778577e+02,4.159888e+03
6.807504e+02,4.180071e+03
6.836431e+02,4.179404e+03
6.865358e+02,4.171772e+03
6.894285e+02,4.155649e+03
6.923212e+02,4.176132e+03
6.952139e+02,4.149798e+03
6.981066e+02,4.135599e+03
7.009993e+02,4.153802e+03
7.038920e+02,4.161563e+03
7.067847e+02,4.128832e+03
7.096774e+02,4.145429e+03
7.125701e+02,4.138190e+03
7.154628e+02,4.130735e+03
7.183555e+02,4.132157e+03
7.212482e+02,4.114903e+03
7.241409e+02,4.119085e+03
7.270336e+02,4.137589e+03
7.299263e+02,4.110799e+03
7.328190e+02,4.122404e+03
7.357117e+02,4.094700e+03
7.386044e+02,4.112158e+03
7.414971e+02,4.092833e+03
7.443898e+02,4.103526e+03
7.472825e+02,4.096349e+03
7.501752e+02,4.103061e+03
7.530679e+02,4.090785e+03
7.559606e+02,4.121367e+03
7.588533e+02,4.112933e+03
7.617460e+02,4.105874e+03
7.646387e+02,4.096628e+03
7.675314e+02,4.104006e+03
7.704241e+02,4.085144e+03
7.733168e+02,4.095608e+03
7.762095e+02,4.103284e+03
7.791022e+02,4.110850e+03
7.819949e+02,4.098847e+03
7.848876e+02,4.099700e+03
7.877803e+02,4.082337e+03
7.906730e+02,4.068458e+03
7.935657e+02,4.071580e+03
7.964584e+02,4.064626e+03
7.993511e+02,4.048628e+03
8.022438e+02,4.054172e+03
8.051365e+02,4.037869e+03
8.080292e+02,4.050390e+03
8.109219e+02,4.050479e+03
8.138146e+02,4.033214e+03
8.167073e+02,4.014431e+03
8.196000e+02,4.039750e+03
8.224927e+02,4.031238e+03
8.253854e+02,4.035965e+03
8.282781e+02,4.029673e+03
8.311708e+02,4.001918e+03
8.340635e+02,4.017201e+03
8.369562e+02,4.026122e+03
8.398489e+02,4.014435e+03
8.427416e+02,4.013382e+03
8.456343e+02,3.993534e+03
8.485270e+02,4.009020e+03
8.514197e+02,4.001136e+03
8.543124e+02,3.988285e+03
8.572051e+02,3.977592e+03
8.600978e+02,3.984939e+03
8.629905e+02,3.984725e+03
8.658832e+02,3.971068e+03
8.687759e+02,3.987748e+03
8.716686e+02,4.011421e+03
8.745613e+02,3.974023e+03
8.774540e+02,3.955055e+03
8.803467e+02,3.956823e+03
8.832394e+02,3.977011e+03
8.861321e+02,3.968635e+03
8.890248e+02,3.978185e+03
8.919175e+02,3.950164e+03
8.948102e+02,3.941991e+03
8.977029e+02,3.949221e+03
9.005956e+02,3.933247e+03
9.034883e+02,3.944312e+03
9.063810e+02,3.933702e+03
9.092737e+02,3.923694e+03
9.121664e+02,3.902483e+03
9.150591e+02,3.929165e+03
9.179518e+02,3.899197e+03
9.208445e+02,3.911268e+03
9.237372e+02,3.884274e+03
9.266299e+02,3.895366e+03
9.295226e+02,3.891739e+03
9.324153e+02,3.884781e+03
9.353080e+02,3.906608e+03
9.382007e+02,3.883782e+03
9.410934e+02,3.886037e+03
9.439861e+02,3.890844e+03
9.468788e+02,3.864710e+03
9.497715e+02,3.883401e+03
9.526642e+02,3.859998e+03
9.555569e+02,3.868827e+03
9.584496e+02,3.842958e+03
9.613423e+02,3.861577e+03
9.642350e+02,3.852029e+03
9.671277e+02,3.823714e+03
9.700204e+02,3.828595e+03
9.729131e+02,3.814669e+03
9.758058e+02,3.825104e+03
9.786985e+02,3.829221e+03
9.815912e+02,3.805254e+03
9.844839e+02,3.814666e+03
9.873766e+02,3.818196e+03
9.902693e+02,3.797323e+03
9.931620e+02,3.821980e+03
9.960547e+02,3.804466e+03
9.989474e+02,3.805688e+03
1.001840e+03,3.758706e+03
1.004733e+03,3.773346e+03
1.007626e+03,3.780003e+03
1.010518e+03,3.784765e+03
1.013411e+03,3.781896e+03
1.016304e+03,3.760472e+03
1.019196e+03,3.766488e+03
1.022089e+03,3.751598e+03
1.024982e+03,3.763832e+03
1.027875e+03,3.731654e+03
1.030767e+03,3.731574e+03
1.033660e+03,3.756775e+03
1.036552e+03,3.752477e+03
1.039445e+03,3.748100e+03
1.042338e+03,3.738469e+03
1.045231e+03,3.739798e+03
1.048123e+03,3.737727e+03
1.051016e+03,3.739935e+03
1.053909e+03,3.727168e+03
1.056802e+03,3.702964e+03
1.059694e+03,3.716550e+03
1.062587e+03,3.733068e+03
1.065479e+03,3.719074e+03
1.068372e+03,3.716150e+03
1.071265e+03,3.732550e+03
1.074158e+03,3.720769e+03
1.077050e+03,3.702405e+03
1.079943e+03,3.718461e+03
1.082836e+03,3.729172e+03
1.085729e+03,3.732045e+03
1.088621e+03,3.724374e+03
1.091514e+03,3.695797e+03
1.094406e+03,3.693140e+03
1.097299e+03,3.693585e+03
1.100192e+03,3.680755e+03
1.103085e+03,3.667004e+03
1.105977e+03,3.666240e+03
1.108870e+03,3.657527e+03
1.111763e+03,3.652392e+03
1.114656e+03,3.659383e+03
1.117548e+03,3.653818e+03
1.120441e+03,3.639569e+03
1.123334e+03,3.650480e+03
1.126226e+03,3.622861e+03
1.129119e+03,3.625352e+03
1.132012e+03,3.621043e+03
1.134904e+03,3.633489e+03
1.137797e+03,3.618583e+03
1.140690e+03,3.619509e+03
1.143583e+03,3.618644e+03
1.146475e+03,3.608834e+03
1.149368e+03,3.604807e+03
1.152261e+03,3.595563e+03
1.155153e+03,3.579567e+03
1.158046e+03,3.591699e+03
1.160939e+03,3.584441e+03
1.163831e+03,3.578379e+03
1.166724e+03,3.591611e+03
1.169617e+03,3.575125e+03
1.172510e+03,3.560871e+03
1.175402e+03,3.550314e+03
1.178295e+03,3.556711e+03
1.181188e+03,3.581511e+03
1.184080e+03,3.560003e+03
1.186973e+03,3.567366e+03
1.189866e+03,3.554775e+03
1.192758e+03,3.546328e+03
1.195651e+03,3.553993e+03
1.198544e+03,3.552296e+03
1.201437e+03,3.546726e+03
1.204329e+03,3.527115e+03
1.207222e+03,3.533493e+03
1.210115e+03,3.543369e+03
1.213007e+03,3.539438e+03
1.215900e+03,3.546168e+03
1.218793e+03,3.552079e+03
1.221685e+03,3.553559e+03
1.224578e+03,3.560945e+03
1.227471e+03,3.555292e+03
1.230364e+03,3.546057e+03
1.233256e+03,3.542036e+03
1.236149e+03,3.533734e+03
1.239042e+03,3.532177e+03
1.241934e+03,3.521294e+03
1.244827e+03,3.525459e+03
1.247720e+03,3.527918e+03
1.250612e+03,3.510763e+03
1.253505e+03,3.512180e+03
1.256398e+03,3.505056e+03
1.259291e+03,3.511303e+03
1.262183e+03,3.497134e+03
1.265076e+03,3.475694e+03
1.267969e+03,3.479934e+03
1.270861e+03,3.493414e+03
1.273754e+03,3.499044e+03
1.276647e+03,3.489878e+03
1.279539e+03,3.486185e+03
1.282432e+03,3.486432e+03
1.285325e+03,3.477488e+03
1.288218e+03,3.500926e+03
1.291110e+03,3.475465e+03
1.294003e+03,3.476933e+03
1.296896e+03,3.469648e+03
1.299788e+03,3.480934e+03
1.302681e+03,3.475775e+03
1.305574e+03,3.485006e+03
1.308466e+03,3.485361e+03
1.311359e+03,3.477004e+03
1.314252e+03,3.471248e+03
1.317145e+03,3.480826e+03
1.320037e+03,3.492488e+03
1.322930e+03,3.488901e+03
1.325823e+03,3.475852e+03
1.328715e+03,3.473324e+03
1.331608e+03,3.487968e+03
1.334501e+03,3.508928e+03
1.337393e+03,3.487742e+03
1.340286e+03,3.493063e+03
1.343179e+03,3.478048e+03
1.346072e+03,3.468638e+03
1.348964e+03,3.490348e+03
1.351857e+03,3.495294e+03
1.354750e+03,3.482149e+03
1.357642e+03,3.496734e+03
1.360535e+03,3.490638e+03
1.363428e+03,3.500406e+03
1.366320e+03,3.497935e+03
1.369213e+03,3.500900e+03
1.372106e+03,3.473138e+03
1.374999e+03,3.469206e+03
1.377891e+03,3.467707e+03
1.380784e+03,3.460995e+03
1.383677e+03,3.451667e+03
1.386569e+03,3.425855e+03
1.389462e+03,3.440931e+03
1.392355e+03,3.436371e+03
1.395247e+03,3.432512e+03
1.398140e+03,3.437997e+03
1.401033e+03,3.437915e+03
1.403926e+03,3.420156e+03
1.406818e+03,3.395232e+03
1.409711e+03,3.410327e+03
1.412604e+03,3.413029e+03
1.415496e+03,3.410254e+03
1.418389e+03,3.398672e+03
1.421282e+03,3.386067e+03
1.424174e+03,3.389671e+03
1.427067e+03,3.383784e+03
1.429960e+03,3.376386e+03
1.432853e+03,3.354130e+03
1.435745e+03,3.356517e+03
1.438638e+03,3.339278e+03
1.441531e+03,3.346145e+03
1.444423e+03,3.365195e+03
1.447316e+03,3.356813e+03
1.450209e+03,3.363071e+03
1.453101e+03,3.351064e+03
1.455994e+03,3.349441e+03
1.458887e+03,3.353105e+03
1.461780e+03,3.329532e+03
1.464672e+03,3.325036e+03
1.467565e+03,3.313202e+03
1.470458e+03,3.313776e+03
1.473350e+03,3.294167e+03
1.476243e+03,3.307607e+03
1.479136e+03,3.303400e+03
1.482028e+03,3.288349e+03
1.484921e+03,3.275452e+03
1.487814e+03,3.273011e+03
1.490707e+03,3.249752e+03
1.493599e+03,3.278826e+03
1.496492e+03,3.265681e+03
1.499385e+03,3.256476e+03
1.502277e+03,3.250769e+03
1.505170e+03,3.232842e+03
1.508063e+03,3.265260e+03
1.510955e+03,3.249547e+03
1.513848e+03,3.246962e+03
1.516741e+03,3.243929e+03
1.519634e+03,3.212363e+03
1.522526e+03,3.212685e+03
1.525419e+03,3.210620e+03
1.528312e+03,3.195974e+03
1.531204e+03,3.206413e+03
1.534097e+03,3.211051e+03
1.536990e+03,3.204508e+03
1.539882e+03,3.198666e+03
1.542775e+03,3.199244e+03
1.545668e+03,3.192206e+03
1.548561e+03,3.189292e+03
1.551453e+03,3.203450e+03
1.554346e+03,3.199773e+03
1.557239e+03,3.207726e+03
1.560131e+03,3.217931e+03
1.563024e+03,3.248160e+03
1.565917e+03,3.280616e+03
1.568809e+03,3.312709e+03
1.571702e+03,3.291524e+03
1.574595e+03,3.267962e+03
1.577488e+03,3.229578e+03
1.580380e+03,3.252861e+03
1.583273e+03,3.217768e+03
1.586166e+03,3.178160e+03
1.589058e+03,3.147198e+03
1.591951e+03,3.122433e+03
1.594844e+03,3.136803e+03
1.597736e+03,3.120084e+03
1.600629e+03,3.108229e+03
1.603522e+03,3.107617e+03
1.606415e+03,3.098726e+03
1.609307e+03,3.088169e+03
1.612200e+03,3.078737e+03
1.615093e+03,3.069081e+03
1.617985e+03,3.082666e+03
1.620878e+03,3.064298e+03
1.623771e+03,3.076518e+03
1.626663e+03,3.073574e+03
1.629556e+03,3.064905e+03
1.632449e+03,3.044267e+03
1.635342e+03,3.028391e+03
1.638234e+03,3.023296e+03
1.641127e+03,3.022547e+03
1.644020e+03,3.002211e+03
1.646912e+03,3.026798e+03
1.649805e+03,3.006032e+03
1.652698e+03,3.002145e+03
1.655590e+03,2.995568e+03
1.658483e+03,2.996932e+03
1.661376e+03,2.981172e+03
1.664269e+03,2.970907e+03
1.667161e+03,2.980920e+03
1.670054e+03,2.967675e+03
1.672947e+03,2.955295e+03
1.675839e+03,2.987828e+03
1.678732e+03,2.976696e+03
1.681625e+03,2.962039e+03
1.684517e+03,2.954166e+03
1.687410e+03,2.942095e+03
1.690303e+03,2.931608e+03
1.693196e+03,2.943675e+03
1.696088e+03,2.946359e+03
1.698981e+03,2.931758e+03
1.701874e+03,2.928188e+03
1.704766e+03,2.917933e+03
1.707659e+03,2.936636e+03
1.710552e+03,2.917858e+03
1.713444e+03,2.912782e+03
1.716337e+03,2.917675e+03
1.719230e+03,2.900716e+03
1.722123e+03,2.889613e+03
1.725015e+03,2.897764e+03
1.727908e+03,2.891148e+03
1.730801e+03,2.895759e+03
1.733693e+03,2.883382e+03
1.736586e+03,2.862391e+03
1.739479e+03,2.873990e+03
1.742371e+03,2.851000e+03
1.745264e+03,2.873285e+03
1.748157e+03,2.852748e+03
1.751050e+03,2.869454e+03
1.753942e+03,2.866225e+03
1.756835e+03,2.871977e+03
1.759728e+03,2.837394e+03
1.762620e+03,2.850112e+03
1.765513e+03,2.838561e+03
1.768406e+03,2.828227e+03
1.771298e+03,2.832253e+03
1.774191e+03,2.829639e+03
1.777084e+03,2.812095e+03
1.779977e+03,2.808676e+03
1.782869e+03,2.803751e+03
1.785762e+03,2.812265e+03
1.788655e+03,2.801622e+03
1.791547e+03,2.793233e+03
1.794440e+03,2.801837e+03
1.797333e+03,2.789308e+03
1.800225e+03,2.792894e+03
1.803118e+03,2.796351e+03
1.806011e+03,2.792613e+03
1.808904e+03,2.787583e+03
1.811796e+03,2.777280e+03
1.814689e+03,2.779135e+03
1.817582e+03,2.776068e+03
1.820474e+03,2.769460e+03
1.823367e+03,2.749982e+03
1.826260e+03,2.754483e+03
1.829152e+03,2.735984e+03
1.832045e+03,2.752958e+03
1.834938e+03,2.751804e+03
1.837831e+03,2.740407e+03
1.840723e+03,2.724221e+03
1.843616e+03,2.734249e+03
1.846509e+03,2.724704e+03
1.849401e+03,2.728670e+03
1.852294e+03,2.693401e+03
1.855187e+03,2.719666e+03
1.858079e+03,2.719876e+03
1.860972e+03,2.709786e+03
1.863865e+03,2.702437e+03
1.866758e+03,2.684495e+03
1.869650e+03,2.694629e+03
1.872543e+03,2.677956e+03
1.875436e+03,2.684918e+03
1.878328e+03,2.688154e+03
1.881221e+03,2.671204e+03
1.884114e+03,2.647646e+03
1.887006e+03,2.669825e+03
1.889899e+03,2.660315e+03
1.892792e+03,2.646482e+03
1.895685e+03,2.631934e+03
1.898577e+03,2.655386e+03
1.901470e+03,2.656903e+03
1.904363e+03,2.646398e+03
1.907255e+03,2.635138e+03
1.910148e+03,2.637188e+03
1.913041e+03,2.616790e+03
1.915933e+03,2.616239e+03
1.918826e+03,2.613530e+03
1.921719e+03,2.605173e+03
1.924612e+03,2.633459e+03
1.927504e+03,2.582958e+03
1.930397e+03,2.601305e+03
1.933290e+03,2.589300e+03
1.936182e+03,2.604857e+03
1.939075e+03,2.564549e+03
1.941968e+03,2.568118e+03
1.944860e+03,2.577122e+03
1.947753e+03,2.571237e+03
1.950646e+03,2.575705e+03
1.953539e+03,2.590457e+03
1.956431e+03,2.572033e+03
1.959324e+03,2.566265e+03
1.962217e+03,2.567410e+03
1.965109e+03,2.550702e+03
1.968002e+03,2.558632e+03
1.970895e+03,2.530671e+03
1.973787e+03,2.552033e+03
1.976680e+03,2.530137e+03
1.979573e+03,2.520968e+03
1.982466e+03,2.525474e+03
1.985358e+03,2.517042e+03
1.988251e+03,2.537354e+03
1.991144e+03,2.491031e+03
1.994036e+03,2.489167e+03
1.996929e+03,2.491798e+03
1.999822e+03,2.508455e+03
2.002714e+03,2.498345e+03
2.005607e+03,2.490505e+03
2.008500e+03,2.486698e+03
2.011393e+03,2.472425e+03
2.014285e+03,2.475215e+03
2.017178e+03,2.454601e+03
2.020071e+03,2.456212e+03
2.022963e+03,2.440852e+03
2.025856e+03,2.450979e+03
2.028749e+03,2.450028e+03
2.031641e+03,2.445472e+03
2.034534e+03,2.432785e+03
2.037427e+03,2.433917e+03
2.040320e+03,2.428844e+03
2.043212e+03,2.414247e+03
2.046105e+03,2.421791e+03
2.048998e+03,2.433541e+03
2.051890e+03,2.419105e+03
2.054783e+03,2.396937e+03
2.057676e+03,2.384113e+03
2.060568e+03,2.420082e+03
2.063461e+03,2.404836e+03
2.066354e+03,2.375542e+03
2.069247e+03,2.377108e+03
2.072139e+03,2.371620e+03
2.075032e+03,2.370000e+03
2.077925e+03,2.378715e+03
2.080817e+03,2.362840e+03
2.083710e+03,2.342724e+03
2.086603e+03,2.358491e+03
2.089496e+03,2.359733e+03
2.092388e+03,2.336151e+03
2.095281e+03,2.337109e+03
2.098174e+03,2.353635e+03
2.101066e+03,2.344851e+03
2.103959e+03,2.302237e+03
2.106852e+03,2.323239e+03
2.109744e+03,2.306282e+03
2.112637e+03,2.316250e+03
2.115530e+03,2.314825e+03
2.118422e+03,2.297335e+03
2.121315e+03,2.316427e+03
2.124208e+03,2.301705e+03
2.127101e+03,2.284623e+03
2.129993e+03,2.282442e+03
2.132886e+03,2.269597e+03
2.135779e+03,2.271444e+03
2.138671e+03,2.258758e+03
2.141564e+03,2.261354e+03
2.144457e+03,2.248696e+03
2.147350e+03,2.259128e+03
2.150242e+03,2.252664e+03
2.153135e+03,2.262114e+03
2.156028e+03,2.236794e+03
2.158920e+03,2.221152e+03
2.161813e+03,2.229449e+03
2.164706e+03,2.229183e+03
2.167598e+03,2.224811e+03
2.170491e+03,2.213283e+03
2.173384e+03,2.227184e+03
2.176277e+03,2.217599e+03
2.179169e+03,2.201794e+03
2.182062e+03,2.210210e+03
2.184955e+03,2.194707e+03
2.187847e+03,2.194923e+03
2.190740e+03,2.191388e+03
2.193633e+03,2.178413e+03
2.196525e+03,2.176576e+03
2.199418e+03,2.175502e+03
2.202311e+03,2.173486e+03
2.205204e+03,2.163592e+03
2.208096e+03,2.170469e+03
2.210989e+03,2.129199e+03
2.213882e+03,2.155191e+03
2.216774e+03,2.150424e+03
2.219667e+03,2.137400e+03
2.222560e+03,2.136040e+03
2.225452e+03,2.120525e+03
2.228345e+03,2.134246e+03
2.231238e+03,2.124132e+03
2.234131e+03,2.123513e+03
2.237023e+03,2.109217e+03
2.239916e+03,2.117706e+03
2.242809e+03,2.096319e+03
2.245701e+03,2.092057e+03
2.248594e+03,2.092785e+03
2.251487e+03,2.084552e+03
2.254379e+03,2.090607e+03
2.257272e+03,2.070318e+03
2.260165e+03,2.058226e+03
2.263058e+03,2.073237e+03
2.265950e+03,2.058626e+03
2.268843e+03,2.074177e+03
2.271736e+03,2.060870e+03
2.274628e+03,2.052469e+03
2.277521e+03,2.049748e+03
2.280414e+03,2.035410e+03
2.283306e+03,2.046550e+03
2.286199e+03,2.044146e+03
2.289092e+03,2.031701e+03
2.291985e+03,2.030946e+03
2.294877e+03,2.023354e+03
2.297770e+03,2.020776e+03
2.300663e+03,2.039055e+03
2.303555e+03,2.007460e+03
2.306448e+03,2.016806e+03
2.309341e+03,2.006931e+03
2.312233e+03,1.997287e+03
2.315126e+03,2.005093e+03
2.318019e+03,1.996222e+03
2.320912e+03,1.996143e+03
2.323804e+03,1.982034e+03
2.326697e+03,1.981240e+03
2.329590e+03,1.992656e+03
2.332482e+03,1.970368e+03
2.335375e+03,1.963695e+03
2.338268e+03,1.966431e+03
2.341160e+03,1.970527e+03
2.344053e+03,1.960001e+03
2.346946e+03,1.943711e+03
2.349839e+03,1.960314e+03
2.352731e+03,1.934996e+03
2.355624e+03,1.946872e+03
2.358517e+03,1.946347e+03
2.361409e+03,1.964942e+03
2.364302e+03,1.932284e+03
2.367195e+03,1.900657e+03
2.370087e+03,1.913352e+03
2.372980e+03,1.939621e+03
2.375873e+03,1.936236e+03
2.378766e+03,1.902193e+03
2.381658e+03,1.901175e+03
2.384551e+03,1.923712e+03
2.387444e+03,1.904307e+03
2.390336e+03,1.897706e+03
2.393229e+03,1.891465e+03
2.396122e+03,1.887448e+03
2.399014e+03,1.874045e+03
2.401907e+03,1.876509e+03
2.404800e+03,1.872037e+03
2.407693e+03,1.899411e+03
2.410585e+03,1.874772e+03
2.413478e+03,1.874178e+03
2.416371e+03,1.859989e+03
2.419263e+03,1.867082e+03
2.422156e+03,1.854083e+03
2.425049e+03,1.851969e+03
2.427941e+03,1.843778e+03
2.430834e+03,1.847117e+03
2.433727e+03,1.832483e+03
2.436620e+03,1.849382e+03
2.439512e+03,1.827900e+03
2.442405e+03,1.824372e+03
2.445298e+03,1.825505e+03
2.448190e+03,1.820363e+03
2.451083e+03,1.829218e+03
2.453976e+03,1.825796e+03
2.456868e+03,1.803190e+03
2.459761e+03,1.824574e+03
2.462654e+03,1.807838e+03
2.465547e+03,1.782402e+03
2.468439e+03,1.794548e+03
2.471332e+03,1.795152e+03
2.474225e+03,1.779000e+03
2.477117e+03,1.775196e+03
2.480010e+03,1.781367e+03
2.482903e+03,1.794902e+03
2.485795e+03,1.769999e+03
2.488688e+03,1.769336e+03
2.491581e+03,1.775074e+03
2.494474e+03,1.764369e+03
2.497366e+03,1.762180e+03
2.500259e+03,1.756621e+03
2.503152e+03,1.760187e+03
2.506044e+03,1.747074e+03
2.508937e+03,1.741641e+03
2.511830e+03,1.763563e+03
2.514722e+03,1.746618e+03
2.517615e+03,1.744549e+03
2.520508e+03,1.753702e+03
2.523401e+03,1.720707e+03
2.526293e+03,1.729110e+03
2.529186e+03,1.746048e+03
2.532079e+03,1.746220e+03
2.534971e+03,1.722657e+03
2.537864e+03,1.722094e+03
2.540757e+03,1.696493e+03
2.543649e+03,1.734088e+03
2.546542e+03,1.722730e+03
2.549435e+03,1.716020e+03
2.552328e+03,1.728699e+03
2.555220e+03,1.712575e+03
2.558113e+03,1.701018e+03
2.561006e+03,1.707798e+03
2.563898e+03,1.703327e+03
2.566791e+03,1.709221e+03
2.569684e+03,1.690561e+03
2.572576e+03,1.686380e+03
2.575469e+03,1.691313e+03
2.578362e+03,1.697954e+03
2.581255e+03,1.675003e+03
2.584147e+03,1.681997e+03
2.587040e+03,1.677062e+03
2.589933e+03,1.671257e+03
2.592825e+03,1.679427e+03
2.595718e+03,1.668264e+03
2.598611e+03,1.659920e+03
2.601503e+03,1.644840e+03
2.604396e+03,1.653910e+03
2.607289e+03,1.678585e+03
2.610182e+03,1.662509e+03
2.613074e+03,1.643794e+03
2.615967e+03,1.639696e+03
2.618860e+03,1.652760e+03
2.621752e+03,1.638420e+03
2.624645e+03,1.638049e+03
2.627538e+03,1.634419e+03
2.630430e+03,1.621972e+03
2.633323e+03,1.650544e+03
2.636216e+03,1.625324e+03
2.639109e+03,1.630906e+03
2.642001e+03,1.628817e+03
2.644894e+03,1.634201e+03
2.647787e+03,1.624114e+03
2.650679e+03,1.607869e+03
2.653572e+03,1.604669e+03
2.656465e+03,1.636685e+03
2.659357e+03,1.617893e+03
2.662250e+03,1.610793e+03
2.665143e+03,1.605324e+03
2.668036e+03,1.612235e+03
2.670928e+03,1.590838e+03
2.673821e+03,1.595912e+03
2.676714e+03,1.580983e+03
2.679606e+03,1.604852e+03
2.682499e+03,1.611246e+03
2.685392e+03,1.591829e+03
2.688284e+03,1.591830e+03
2.691177e+03,1.580837e+03
2.694070e+03,1.586030e+03
2.696963e+03,1.570685e+03
2.699855e+03,1.576687e+03
2.702748e+03,1.591257e+03
2.705641e+03,1.557244e+03
2.708533e+03,1.557266e+03
2.711426e+03,1.555199e+03
2.714319e+03,1.572529e+03
2.717211e+03,1.544979e+03
2.720104e+03,1.561578e+03
2.722997e+03,1.550949e+03
2.725890e+03,1.592589e+03
2.728782e+03,1.569938e+03
2.731675e+03,1.541684e+03
2.734568e+03,1.528612e+03
2.737460e+03,1.550531e+03
2.740353e+03,1.561727e+03
2.743246e+03,1.549740e+03
2.746138e+03,1.520944e+03
2.749031e+03,1.510894e+03
2.751924e+03,1.530194e+03
2.754817e+03,1.507825e+03
2.757709e+03,1.526565e+03
2.760602e+03,1.521700e+03
2.763495e+03,1.523269e+03
2.766387e+03,1.529581e+03
2.769280e+03,1.527646e+03
2.772173e+03,1.525236e+03
2.775065e+03,1.519991e+03
2.777958e+03,1.503504e+03
2.780851e+03,1.503811e+03
2.783744e+03,1.499525e+03
2.786636e+03,1.527562e+03
2.789529e+03,1.502934e+03
2.792422e+03,1.519798e+03
2.795314e+03,1.477295e+03
2.798207e+03,1.483639e+03
2.801100e+03,1.504052e+03
2.803992e+03,1.496035e+03
2.806885e+03,1.475841e+03
2.809778e+03,1.477899e+03
2.812671e+03,1.485622e+03
2.815563e+03,1.466590e+03
2.818456e+03,1.473982e+03
2.821349e+03,1.471467e+03
2.824241e+03,1.468771e+03
2.827134e+03,1.471080e+03
2.830027e+03,1.448419e+03
2.832919e+03,1.472251e+03
2.835812e+03,1.465954e+03
2.838705e+03,1.427272e+03
2.841598e+03,1.442387e+03
2.844490e+03,1.486107e+03
2.847383e+03,1.431771e+03
2.850276e+03,1.439775e+03
2.853168e+03,1.449790e+03
2.856061e+03,1.464874e+03
2.858954e+03,1.452069e+03
2.861846e+03,1.427799e+03
2.864739e+03,1.447896e+03
2.867632e+03,1.431417e+03
2.870525e+03,1.421937e+03
2.873417e+03,1.461342e+03
2.876310e+03,1.417211e+03
2.879203e+03,1.456023e+03
2.882095e+03,1.417971e+03
2.884988e+03,1.464265e+03
2.887881e+03,1.454110e+03
2.890773e+03,1.451763e+03
2.893666e+03,1.427459e+03
2.896559e+03,1.437162e+03
2.899452e+03,1.430679e+03
2.902344e+03,1.397654e+03
2.905237e+03,1.434802e+03
2.908130e+03,1.396268e+03
2.911022e+03,1.437738e+03
2.913915e+03,1.415736e+03
2.916808e+03,1.434247e+03
2.919700e+03,1.398440e+03
2.922593e+03,1.395703e+03
2.925486e+03,1.380500e+03
2.928379e+03,1.391033e+03
2.931271e+03,1.405793e+03
2.934164e+03,1.397264e+03
2.937057e+03,1.398078e+03
2.939949e+03,1.419264e+03
2.942842e+03,1.373020e+03
2.945735e+03,1.418281e+03
2.948627e+03,1.366871e+03
2.951520e+03,1.402723e+03
2.954413e+03,1.405153e+03
2.957306e+03,1.403350e+03
2.960198e+03,1.378055e+03
2.963091e+03,1.388355e+03
2.965984e+03,1.321672e+03
2.968876e+03,1.360650e+03
2.971769e+03,1.366783e+03
2.974662e+03,1.331733e+03
2.977554e+03,1.355816e+03
2.980447e+03,1.333415e+03
2.983340e+03,1.362588e+03
2.986233e+03,1.332056e+03
2.989125e+03,1.322103e+03
2.992018e+03,1.375799e+03
2.994911e+03,1.332237e+03
2.997803e+03,1.338042e+03
3.000696e+03,1.330080e+03
3.003589e+03,1.323374e+03
3.006481e+03,1.292702e+03
3.009374e+03,1.352295e+03
3.012267e+03,1.324064e+03
3.015160e+03,1.329437e+03
3.018052e+03,1.324161e+03
3.020945e+03,1.338719e+03
3.023838e+03,1.321570e+03
3.026730e+03,1.316568e+03
3.029623e+03,1.337276e+03
3.032516e+03,1.302545e+03
3.035408e+03,1.322154e+03
3.038301e+03,1.293275e+03
3.041194e+03,1.314102e+03
3.044087e+03,1.357740e+03
3.046979e+03,1.290559e+03
3.049872e+03,1.314396e+03
3.052765e+03,1.317622e+03
3.055657e+03,1.285837e+03
3.058550e+03,1.307387e+03
3.061443e+03,1.300951e+03
3.064335e+03,1.276684e+03
3.067228e+03,1.333136e+03
3.070121e+03,1.277646e+03
3.073014e+03,1.328794e+03
3.075906e+03,1.266986e+03
3.078799e+03,1.301279e+03
3.081692e+03,1.315271e+03
3.084584e+03,1.256515e+03
3.087477e+03,1.271473e+03
3.090370e+03,1.302634e+03
3.093262e+03,1.266424e+03
3.096155e+03,1.298003e+03
3.099048e+03,1.321230e+03
3.101941e+03,1.279148e+03
3.104833e+03,1.234964e+03
3.107726e+03,1.263231e+03
3.110619e+03,1.256338e+03
3.113511e+03,1.280880e+03
3.116404e+03,1.243868e+03
3.119297e+03,1.291169e+03
3.122189e+03,1.283101e+03
3.125082e+03,1.284951e+03
3.127975e+03,1.249117e+03
3.130868e+03,1.315345e+03
3.133760e+03,1.269564e+03
3.136653e+03,1.276571e+03
3.139546e+03,1.282631e+03
3.142438e+03,1.288994e+03
3.145331e+03,1.258074e+03
3.148224e+03,1.241199e+03
3.151116e+03,1.288293e+03
3.154009e+03,1.242464e+03
3.156902e+03,1.257270e+03
3.159795e+03,1.254551e+03
3.162687e+03,1.257773e+03
3.165580e+03,1.275209e+03
3.168473e+03,1.291432e+03
3.171365e+03,1.230001e+03
3.174258e+03,1.279694e+03
3.177151e+03,1.267872e+03
3.180043e+03,1.240843e+03
3.182936e+03,1.305142e+03
3.185829e+03,1.243763e+03
3.188722e+03,1.242570e+03
3.191614e+03,1.309910e+03
3.194507e+03,1.262823e+03
3.197400e+03,1.286586e+03
3.200292e+03,1.314198e+03
3.203185e+03,0.000000e+00
3.206078e+03,0.000000e+00
3.208970e+03,0.000000e+00
3.211863e+03,0.000000e+00
3.214756e+03,0.000000e+00
3.217649e+03,0.000000e+00
3.220541e+03,0.000000e+00
3.223434e+03,0.000000e+00
3.226327e+03,0.000000e+00
3.229219e+03,0.000000e+00
3.232112e+03,0.000000e+00
3.235005e+03,0.000000e+00
3.237897e+03,0.000000e+00
3.240790e+03,0.000000e+00
3.243683e+03,0.000000e+00
3.246576e+03,0.000000e+00
3.249468e+03,0.000000e+00
3.252361e+03,0.000000e+00
3.255254e+03,0.000000e+00
3.258146e+03,0.000000e+00
3.261039e+03,0.000000e+00
3.263932e+03,0.000000e+00
3.266824e+03,0.000000e+00
3.269717e+03,0.000000e+00
3.272610e+03,0.000000e+00
3.275503e+03,0.000000e+00
3.278395e+03,0.000000e+00
3.281288e+03,0.000000e+00
3.284181e+03,0.000000e+00
3.287073e+03,0.000000e+00
3.289966e+03,0.000000e+00
3.292859e+03,0.000000e+00
3.295751e+03,0.000000e+00
3.298644e+03,0.000000e+00
3.301537e+03,0.000000e+00
3.304430e+03,0.000000e+00
3.307322e+03,0.000000e+00
3.310215e+03,0.000000e+00
3.313108e+03,0.000000e+00
3.316000e+03,0.000000e+00
3.318893e+03,0.000000e+00
3.321786e+03,0.000000e+00
3.324678e+03,0.000000e+00
3.327571e+03,0.000000e+00
3.330464e+03,0.000000e+00
3.333357e+03,0.000000e+00
3.336249e+03,0.000000e+00
3.339142e+03,0.000000e+00
3.342035e+03,0.000000e+00
3.344927e+03,0.000000e+00
3.347820e+03,0.000000e+00
3.350713e+03,0.000000e+00
3.353605e+03,0.000000e+00
3.356498e+03,0.000000e+00
3.359391e+03,0.000000e+00
3.362284e+03,0.000000e+00
3.365176e+03,0.000000e+00
3.368069e+03,0.000000e+00
3.370962e+03,0.000000e+00
3.373854e+03,0.000000e+00
3.376747e+03,0.000000e+00
3.379640e+03,0.000000e+00
3.382532e+03,0.000000e+00
3.385425e+03,0.000000e+00
3.388318e+03,0.000000e+00
3.391211e+03,0.000000e+00
3.394103e+03,0.000000e+00
3.396996e+03,0.000000e+00
3.399889e+03,0.000000e+00
3.402781e+03,0.000000e+00
3.405674e+03,0.000000e+00
3.408567e+03,0.000000e+00
3.411459e+03,0.000000e+00
3.414352e+03,0.000000e+00
3.417245e+03,0.000000e+00
3.420138e+03,0.000000e+00
3.423030e+03,0.000000e+00
3.425923e+03,0.000000e+00
3.428816e+03,0.000000e+00
3.431708e+03,0.000000e+00
3.434601e+03,0.000000e+00
3.437494e+03,0.000000e+00
3.440386e+03,0.000000e+00
3.443279e+03,0.000000e+00
3.446172e+03,0.000000e+00
3.449065e+03,0.000000e+00
3.451957e+03,0.000000e+00
3.454850e+03,0.000000e+00
3.457743e+03,0.000000e+00
3.460635e+03,0.000000e+00
3.463528e+03,0.000000e+00
3.466421e+03,0.000000e+00
3.469313e+03,0.000000e+00
3.472206e+03,0.000000e+00
3.475099e+03,0.000000e+00
3.477992e+03,0.000000e+00
3.480884e+03,0.000000e+00
3.483777e+03,0.000000e+00
3.486670e+03,0.000000e+00
3.489563e+03,0.000000e+00
3.492455e+03,0.000000e+00
3.495348e+03,0.000000e+00
3.498240e+03,0.000000e+00
3.500169e+03,0.000000e+00