File: RAMAN_data/not_plastic/defo not plastic.CSV
9.931763e+01,0.000000e+00
1.022103e+02,0.000000e+00
1.051030e+02,0.000000e+00
1.079957e+02,0.000000e+00
1.108884e+02,0.000000e+00
1.137811e+02,0.000000e+00
1.166738e+02,0.000000e+00
1.195665e+02,0.000000e+00
1.224592e+02,0.000000e+00
1.253519e+02,0.000000e+00
1.282446e+02,0.000000e+00
1.311373e+02,0.000000e+00
1.340300e+02,0.000000e+00
1.369227e+02,0.000000e+00
1.398154e+02,0.000000e+00
1.427081e+02,0.000000e+00
1.456008e+02,0.000000e+00
1.484935e+02,0.000000e+00
1.513862e+02,0.000000e+00
1.542789e+02,0.000000e+00
1.571716e+02,0.000000e+00
1.600643e+02,0.000000e+00
1.629570e+02,0.000000e+00
1.658497e+02,0.000000e+00
1.687424e+02,0.000000e+00
1.716351e+02,0.000000e+00
1.745278e+02,0.000000e+00
1.774205e+02,0.000000e+00
1.803132e+02,0.000000e+00
1.832059e+02,0.000000e+00
1.860986e+02,0.000000e+00
1.889913e+02,0.000000e+00
1.918840e+02,0.000000e+00
1.947767e+02,0.000000e+00
1.976694e+02,0.000000e+00
2.005621e+02,2.975176e+03
2.034548e+02,2.986810e+03
2.063475e+02,2.986089e+03
2.092402e+02,2.988021e+03
2.121329e+02,2.974682e+03
2.150256e+02,2.985588e+03
2.179183e+02,2.984724e+03
2.208110e+02,2.978918e+03
2.237037e+02,2.985285e+03
2.265964e+02,2.991591e+03
2.294892e+02,2.975160e+03
2.323819e+02,2.980850e+03
2.352746e+02,2.988567e+03
2.381673e+02,2.993561e+03
2.410600e+02,2.985301e+03
2.439527e+02,2.980914e+03
2.468454e+02,2.976824e+03
2.497381e+02,2.966067e+03
2.526308e+02,3.006509e+03
2.555235e+02,2.987630e+03
2.584161e+02,2.990655e+03
2.613088e+02,2.991950e+03
2.642015e+02,2.987149e+03
2.670942e+02,2.992385e+03
2.699869e+02,2.992412e+03
2.728796e+02,2.995698e+03
2.757723e+02,3.001424e+03
2.786650e+02,3.001644e+03
2.815577e+02,2.995028e+03
2.844504e+02,3.007532e+03
2.873431e+02,2.996264e+03
2.902358e+02,3.004185e+03
2.931285e+02,3.001044e+03
2.960212e+02,2.987746e+03
2.989139e+02,2.995554e+03
3.018066e+02,2.989082e+03
3.046993e+02,2.995927e+03
3.075920e+02,3.005213e+03
3.104847e+02,2.987917e+03
3.133774e+02,3.006075e+03
3.162701e+02,3.008859e+03
3.191628e+02,3.003307e+03
3.220555e+02,3.000479e+03
3.249482e+02,2.996433e+03
3.278409e+02,2.988967e+03
3.307336e+02,2.992990e+03
3.336263e+02,3.011933e+03
3.365190e+02,2.997802e+03
3.394117e+02,2.988971e+03
3.423044e+02,2.993401e+03
3.451971e+02,2.991071e+03
3.480898e+02,2.993331e+03
3.509825e+02,2.979356e+03
3.538752e+02,3.001866e+03
3.567680e+02,3.003945e+03
3.596607e+02,3.011927e+03
3.625534e+02,3.018337e+03
3.654461e+02,2.991169e+03
3.683388e+02,2.994361e+03
3.712315e+02,3.009357e+03
3.741242e+02,3.013262e+03
3.770169e+02,3.013917e+03
3.799096e+02,3.010119e+03
3.828023e+02,2.994826e+03
3.856950e+02,2.998837e+03
3.885877e+02,3.018728e+03
3.914804e+02,2.997465e+03
3.943731e+02,3.004090e+03
3.972658e+02,3.004665e+03
4.001585e+02,3.008540e+03
4.030512e+02,3.021407e+03
4.059439e+02,3.021468e+03
4.088366e+02,3.001026e+03
4.117293e+02,3.000447e+03
4.146220e+02,2.998751e+03
4.175147e+02,3.006963e+03
4.204074e+02,3.019843e+03
4.233001e+02,3.001652e+03
4.261928e+02,3.003305e+03
4.290855e+02,2.987406e+03
4.319782e+02,2.996419e+03
4.348709e+02,3.012573e+03
4.377636e+02,3.003261e+03
4.406563e+02,3.004210e+03
4.435490e+02,2.988751e+03
4.464417e+02,2.998510e+03
4.493344e+02,3.008799e+03
4.522271e+02,3.010029e+03
4.551198e+02,3.005814e+03
4.580125e+02,3.005048e+03
4.609052e+02,2.992542e+03
4.637979e+02,2.992635e+03
4.666906e+02,3.008879e+03
4.695833e+02,2.995406e+03
4.724760e+02,2.998284e+03
4.753687e+02,2.999678e+03
4.782614e+02,2.995755e+03
4.811541e+02,3.001306e+03
4.840468e+02,3.006798e+03
4.869395e+02,2.996585e+03
4.898322e+02,2.992377e+03
4.927249e+02,2.993254e+03
4.956176e+02,3.002066e+03
4.985103e+02,3.026130e+03
5.014030e+02,3.011506e+03
5.042957e+02,3.006890e+03
5.071884e+02,3.001973e+03
5.100811e+02,2.994038e+03
5.129738e+02,2.987040e+03
5.158665e+02,3.007594e+03
5.187592e+02,3.008449e+03
5.216519e+02,3.003148e+03
5.245446e+02,2.997709e+03
5.274373e+02,3.009674e+03
5.303300e+02,2.996795e+03
5.332227e+02,2.998680e+03
5.361154e+02,3.011910e+03
5.390081e+02,3.014461e+03
5.419008e+02,3.002182e+03
5.447935e+02,3.011732e+03
5.476862e+02,3.021587e+03
5.505789e+02,3.010593e+03
5.534716e+02,2.992924e+03
5.563643e+02,2.985609e+03
5.592570e+02,2.996112e+03
5.621497e+02,3.005220e+03
5.650424e+02,3.024396e+03
5.679351e+02,3.011495e+03
5.708278e+02,2.995531e+03
5.737205e+02,3.011724e+03
5.766132e+02,3.012480e+03
5.795059e+02,3.008236e+03
5.823986e+02,3.014687e+03
5.852913e+02,3.015948e+03
5.881840e+02,3.016649e+03
5.910767e+02,3.021709e+03
5.939694e+02,3.023831e+03
5.968621e+02,2.982163e+03
5.997548e+02,3.010028e+03
6.026475e+02,3.016719e+03
6.055402e+02,3.016052e+03
6.084329e+02,3.021663e+03
6.113256e+02,3.004568e+03
6.142183e+02,3.013087e+03
6.171110e+02,3.021313e+03
6.200037e+02,3.002634e+03
6.228964e+02,3.026605e+03
6.257891e+02,3.015097e+03
6.286818e+02,3.004377e+03
6.315745e+02,3.020702e+03
6.344672e+02,3.029670e+03
6.373599e+02,3.011663e+03
6.402526e+02,2.998566e+03
6.431453e+02,2.989300e+03
6.460380e+02,3.004694e+03
6.489307e+02,3.011277e+03
6.518234e+02,3.014018e+03
6.547161e+02,2.996492e+03
6.576088e+02,3.002739e+03
6.605015e+02,2.982056e+03
6.633942e+02,2.996622e+03
6.662869e+02,2.996599e+03
6.691796e+02,3.001177e+03
6.720723e+02,3.001408e+03
6.749650e+02,3.002165e+03
6.778577e+02,2.976651e+03
6.807504e+02,3.013788e+03
6.836431e+02,3.006678e+03
6.865358e+02,2.986586e+03
6.894285e+02,2.992790e+03
6.923212e+02,3.007373e+03
6.952139e+02,2.993707e+03
6.981066e+02,2.997173e+03
7.009993e+02,2.989171e+03
7.038920e+02,2.985531e+03
7.067847e+02,2.977227e+03
7.096774e+02,2.984809e+03
7.125701e+02,2.997176e+03
7.154628e+02,2.989474e+03
7.183555e+02,2.987245e+03
7.212482e+02,2.992883e+03
7.241409e+02,3.005843e+03
7.270336e+02,2.999793e+03
7.299263e+02,2.986611e+03
7.328190e+02,2.992427e+03
7.357117e+02,2.982950e+03
7.386044e+02,2.983125e+03
7.414971e+02,2.996121e+03
7.443898e+02,3.004589e+03
7.472825e+02,2.992550e+03
7.501752e+02,2.981135e+03
7.530679e+02,2.979124e+03
7.559606e+02,2.987478e+03
7.588533e+02,2.981988e+03
7.617460e+02,2.999618e+03
7.646387e+02,2.976785e+03
7.675314e+02,2.963295e+03
7.704241e+02,2.948708e+03
7.733168e+02,2.970516e+03
7.762095e+02,2.992268e+03
7.791022e+02,2.992987e+03
7.819949e+02,2.993806e+03
7.848876e+02,2.996856e+03
7.877803e+02,2.998703e+03
7.906730e+02,2.981906e+03
7.935657e+02,2.975828e+03
7.964584e+02,2.958736e+03
7.993511e+02,2.973258e+03
8.022438e+02,2.968565e+03
8.051365e+02,2.978396e+03
8.080292e+02,2.982347e+03
8.109219e+02,2.975354e+03
8.138146e+02,2.977023e+03
8.167073e+02,2.985109e+03
8.196000e+02,2.976303e+03
8.224927e+02,2.977236e+03
8.253854e+02,2.978686e+03
8.282781e+02,2.968351e+03
8.311708e+02,2.972224e+03
8.340635e+02,2.985788e+03
8.369562e+02,2.993774e+03
8.398489e+02,2.993244e+03
8.427416e+02,2.989196e+03
8.456343e+02,2.951705e+03
8.485270e+02,2.962140e+03
8.514197e+02,2.971656e+03
8.543124e+02,2.977155e+03
8.572051e+02,2.973529e+03
8.600978e+02,2.963910e+03
8.629905e+02,2.949841e+03
8.658832e+02,2.964711e+03
8.687759e+02,2.969936e+03
8.716686e+02,2.975169e+03
8.745613e+02,2.975348e+03
8.774540e+02,2.967572e+03
8.803467e+02,2.960084e+03
8.832394e+02,2.956178e+03
8.861321e+02,2.982621e+03
8.890248e+02,2.966541e+03
8.919175e+02,2.966615e+03
8.948102e+02,2.956873e+03
8.977029e+02,2.959312e+03
9.005956e+02,2.975305e+03
9.034883e+02,2.968413e+03
9.063810e+02,2.952645e+03
9.092737e+02,2.947022e+03
9.121664e+02,2.951058e+03
9.150591e+02,2.968541e+03
9.179518e+02,2.948453e+03
9.208445e+02,2.943645e+03
9.237372e+02,2.929368e+03
9.266299e+02,2.942243e+03
9.295226e+02,2.952887e+03
9.324153e+02,2.931339e+03
9.353080e+02,2.938105e+03
9.382007e+02,2.938965e+03
9.410934e+02,2.921785e+03
9.439861e+02,2.925328e+03
9.468788e+02,2.939319e+03
9.497715e+02,2.936935e+03
9.526642e+02,2.933900e+03
9.555569e+02,2.951908e+03
9.584496e+02,2.924884e+03
9.613423e+02,2.930031e+03
9.642350e+02,2.933628e+03
9.671277e+02,2.929425e+03
9.700204e+02,2.924683e+03
9.729131e+02,2.917933e+03
9.758058e+02,2.908028e+03
9.786985e+02,2.920569e+03
9.815912e+02,2.940443e+03
9.844839e+02,2.914202e+03
9.873766e+02,2.902565e+03
9.902693e+02,2.887788e+03
9.931620e+02,2.907297e+03
9.960547e+02,2.909884e+03
9.989474e+02,2.910776e+03
1.001840e+03,2.900808e+03
1.004733e+03,2.898769e+03
1.007626e+03,2.911481e+03
1.010518e+03,2.905418e+03
1.013411e+03,2.904241e+03
1.016304e+03,2.909598e+03
1.019196e+03,2.901136e+03
1.022089e+03,2.888876e+03
1.024982e+03,2.927794e+03
1.027875e+03,2.888570e+03
1.030767e+03,2.900257e+03
1.033660e+03,2.895198e+03
1.036552e+03,2.882244e+03
1.039445e+03,2.916365e+03
1.042338e+03,2.884058e+03
1.045231e+03,2.895390e+03
1.048123e+03,2.889900e+03
1.051016e+03,2.878081e+03
1.053909e+03,2.890878e+03
1.056802e+03,2.894795e+03
1.059694e+03,2.881847e+03
1.062587e+03,2.869416e+03
1.065479e+03,2.888681e+03
1.068372e+03,2.884094e+03
1.071265e+03,2.900462e+03
1.074158e+03,2.902186e+03
1.077050e+03,2.881991e+03
1.079943e+03,2.874730e+03
1.082836e+03,2.879245e+03
1.085729e+03,2.886775e+03
1.088621e+03,2.898364e+03
1.091514e+03,2.884023e+03
1.094406e+03,2.881225e+03
1.097299e+03,2.884103e+03
1.100192e+03,2.878560e+03
1.103085e+03,2.884489e+03
1.105977e+03,2.880018e+03
1.108870e+03,2.874413e+03
1.111763e+03,2.869595e+03
1.114656e+03,2.850761e+03
1.117548e+03,2.874667e+03
1.120441e+03,2.868865e+03
1.123334e+03,2.857303e+03
1.126226e+03,2.851059e+03
1.129119e+03,2.861418e+03
1.132012e+03,2.866272e+03
1.134904e+03,2.862842e+03
1.137797e+03,2.853918e+03
1.140690e+03,2.851907e+03
1.143583e+03,2.846333e+03
1.146475e+03,2.877914e+03
1.149368e+03,2.860595e+03
1.152261e+03,2.851986e+03
1.155153e+03,2.856720e+03
1.158046e+03,2.855283e+03
1.160939e+03,2.859719e+03
1.163831e+03,2.852784e+03
1.166724e+03,2.864630e+03
1.169617e+03,2.849976e+03
1.172510e+03,2.844339e+03
1.175402e+03,2.838168e+03
1.178295e+03,2.837976e+03
1.181188e+03,2.846956e+03
1.184080e+03,2.840007e+03
1.186973e+03,2.836908e+03
1.189866e+03,2.842469e+03
1.192758e+03,2.845045e+03
1.195651e+03,2.848170e+03
1.198544e+03,2.847468e+03
1.201437e+03,2.851590e+03
1.204329e+03,2.824562e+03
1.207222e+03,2.836891e+03
1.210115e+03,2.855102e+03
1.213007e+03,2.852728e+03
1.215900e+03,2.827292e+03
1.218793e+03,2.852130e+03
1.221685e+03,2.836423e+03
1.224578e+03,2.840075e+03
1.227471e+03,2.842382e+03
1.230364e+03,2.840073e+03
1.233256e+03,2.823419e+03
1.236149e+03,2.832835e+03
1.239042e+03,2.828358e+03
1.241934e+03,2.832539e+03
1.244827e+03,2.828504e+03
1.247720e+03,2.835705e+03
1.250612e+03,2.827148e+03
1.253505e+03,2.837449e+03
1.256398e+03,2.845870e+03
1.259291e+03,2.836409e+03
1.262183e+03,2.821996e+03
1.265076e+03,2.839513e+03
1.267969e+03,2.826903e+03
1.270861e+03,2.822868e+03
1.273754e+03,2.833708e+03
1.276647e+03,2.824306e+03
1.279539e+03,2.832766e+03
1.282432e+03,2.818375e+03
1.285325e+03,2.816223e+03
1.288218e+03,2.836689e+03
1.291110e+03,2.831543e+03
1.294003e+03,2.810546e+03
1.296896e+03,2.831991e+03
1.299788e+03,2.828327e+03
1.302681e+03,2.824452e+03
1.305574e+03,2.822895e+03
1.308466e+03,2.812458e+03
1.311359e+03,2.817065e+03
1.314252e+03,2.808929e+03
1.317145e+03,2.825348e+03
1.320037e+03,2.846093e+03
1.322930e+03,2.823137e+03
1.325823e+03,2.816785e+03
1.328715e+03,2.833568e+03
1.331608e+03,2.822121e+03
1.334501e+03,2.839443e+03
1.337393e+03,2.825023e+03
1.340286e+03,2.834597e+03
1.343179e+03,2.822939e+03
1.346072e+03,2.822938e+03
1.348964e+03,2.823892e+03
1.351857e+03,2.812324e+03
1.354750e+03,2.796625e+03
1.357642e+03,2.794796e+03
1.360535e+03,2.788391e+03
1.363428e+03,2.793876e+03
1.366320e+03,2.795083e+03
1.369213e+03,2.786116e+03
1.372106e+03,2.781472e+03
1.374999e+03,2.770829e+03
1.377891e+03,2.794726e+03
1.380784e+03,2.761324e+03
1.383677e+03,2.773440e+03
1.386569e+03,2.760155e+03
1.389462e+03,2.767098e+03
1.392355e+03,2.752586e+03
1.395247e+03,2.758801e+03
1.398140e+03,2.763611e+03
1.401033e+03,2.739560e+03
1.403926e+03,2.755178e+03
1.406818e+03,2.766461e+03
1.409711e+03,2.739869e+03
1.412604e+03,2.751728e+03
1.415496e+03,2.762177e+03
1.418389e+03,2.739111e+03
1.421282e+03,2.752652e+03
1.424174e+03,2.754970e+03
1.427067e+03,2.744621e+03
1.429960e+03,2.753948e+03
1.432853e+03,2.751077e+03
1.435745e+03,2.737727e+03
1.438638e+03,2.733343e+03
1.441531e+03,2.747555e+03
1.444423e+03,2.754412e+03
1.447316e+03,2.742361e+03
1.450209e+03,2.738046e+03
1.453101e+03,2.737008e+03
1.455994e+03,2.739655e+03
1.458887e+03,2.737210e+03
1.461780e+03,2.736051e+03
1.464672e+03,2.735116e+03
1.467565e+03,2.720306e+03
1.470458e+03,2.733602e+03
1.473350e+03,2.725607e+03
1.476243e+03,2.740236e+03
1.479136e+03,2.722131e+03
1.482028e+03,2.726941e+03
1.484921e+03,2.722810e+03
1.487814e+03,2.725395e+03
1.490707e+03,2.719972e+03
1.493599e+03,2.728112e+03
1.496492e+03,2.693800e+03
1.499385e+03,2.680745e+03
1.502277e+03,2.698151e+03
1.505170e+03,2.699922e+03
1.508063e+03,2.712569e+03
1.510955e+03,2.701877e+03
1.513848e+03,2.679801e+03
1.516741e+03,2.716097e+03
1.519634e+03,2.699500e+03
1.522526e+03,2.697644e+03
1.525419e+03,2.699950e+03
1.528312e+03,2.676731e+03
1.531204e+03,2.687260e+03
1.534097e+03,2.702988e+03
1.536990e+03,2.693219e+03
1.539882e+03,2.691631e+03
1.542775e+03,2.694246e+03
1.545668e+03,2.681386e+03
1.548561e+03,2.660255e+03
1.551453e+03,2.694474e+03
1.554346e+03,2.682751e+03
1.557239e+03,2.682369e+03
1.560131e+03,2.677112e+03
1.563024e+03,2.677888e+03
1.565917e+03,2.693120e+03
1.568809e+03,2.678869e+03
1.571702e+03,2.684534e+03
1.574595e+03,2.683501e+03
1.577488e+03,2.684821e+03
1.580380e+03,2.688465e+03
1.583273e+03,2.701414e+03
1.586166e+03,2.703056e+03
1.589058e+03,2.688145e+03
1.591951e+03,2.701064e+03
1.594844e+03,2.702852e+03
1.597736e+03,2.697006e+03
1.600629e+03,2.672782e+03
1.603522e+03,2.699575e+03
1.606415e+03,2.654166e+03
1.609307e+03,2.680758e+03
1.612200e+03,2.663987e+03
1.615093e+03,2.652068e+03
1.617985e+03,2.653387e+03
1.620878e+03,2.647112e+03
1.623771e+03,2.638309e+03
1.626663e+03,2.616077e+03
1.629556e+03,2.639608e+03
1.632449e+03,2.628355e+03
1.635342e+03,2.613640e+03
1.638234e+03,2.600952e+03
1.641127e+03,2.605543e+03
1.644020e+03,2.593796e+03
1.646912e+03,2.602618e+03
1.649805e+03,2.576071e+03
1.652698e+03,2.583415e+03
1.655590e+03,2.591375e+03
1.658483e+03,2.568773e+03
1.661376e+03,2.553657e+03
1.664269e+03,2.564964e+03
1.667161e+03,2.563235e+03
1.670054e+03,2.543159e+03
1.672947e+03,2.561073e+03
1.675839e+03,2.567460e+03
1.678732e+03,2.563983e+03
1.681625e+03,2.550513e+03
1.684517e+03,2.535059e+03
1.687410e+03,2.552001e+03
1.690303e+03,2.534729e+03
1.693196e+03,2.529656e+03
1.696088e+03,2.527802e+03
1.698981e+03,2.525000e+03
1.701874e+03,2.520344e+03
1.704766e+03,2.538316e+03
1.707659e+03,2.532698e+03
1.710552e+03,2.521372e+03
1.713444e+03,2.525305e+03
1.716337e+03,2.518919e+03
1.719230e+03,2.506127e+03
1.722123e+03,2.523663e+03
1.725015e+03,2.507976e+03
1.727908e+03,2.521080e+03
1.730801e+03,2.497169e+03
1.733693e+03,2.503528e+03
1.736586e+03,2.523220e+03
1.739479e+03,2.507659e+03
1.742371e+03,2.489643e+03
1.745264e+03,2.492084e+03
1.748157e+03,2.488409e+03
1.751050e+03,2.506078e+03
1.753942e+03,2.489350e+03
1.756835e+03,2.486342e+03
1.759728e+03,2.479512e+03
1.762620e+03,2.470526e+03
1.765513e+03,2.478981e+03
1.768406e+03,2.489233e+03
1.771298e+03,2.475794e+03
1.774191e+03,2.480085e+03
1.777084e+03,2.488075e+03
1.779977e+03,2.458073e+03
1.782869e+03,2.472428e+03
1.785762e+03,2.467819e+03
1.788655e+03,2.430119e+03
1.791547e+03,2.454571e+03
1.794440e+03,2.441685e+03
1.797333e+03,2.459844e+03
1.800225e+03,2.455064e+03
1.803118e+03,2.450640e+03
1.806011e+03,2.441982e+03
1.808904e+03,2.458280e+03
1.811796e+03,2.444142e+03
1.814689e+03,2.454006e+03
1.817582e+03,2.442468e+03
1.820474e+03,2.446212e+03
1.823367e+03,2.438811e+03
1.826260e+03,2.423495e+03
1.829152e+03,2.437446e+03
1.832045e+03,2.440184e+03
1.834938e+03,2.438093e+03
1.837831e+03,2.422103e+03
1.840723e+03,2.414899e+03
1.843616e+03,2.414802e+03
1.846509e+03,2.416290e+03
1.849401e+03,2.402515e+03
1.852294e+03,2.393933e+03
1.855187e+03,2.410380e+03
1.858079e+03,2.411375e+03
1.860972e+03,2.389848e+03
1.863865e+03,2.414291e+03
1.866758e+03,2.403017e+03
1.869650e+03,2.406946e+03
1.872543e+03,2.399355e+03
1.875436e+03,2.397579e+03
1.878328e+03,2.363387e+03
1.881221e+03,2.379214e+03
1.884114e+03,2.398502e+03
1.887006e+03,2.380499e+03
1.889899e+03,2.378423e+03
1.892792e+03,2.370968e+03
1.895685e+03,2.396100e+03
1.898577e+03,2.354300e+03
1.901470e+03,2.372660e+03
1.904363e+03,2.374272e+03
1.907255e+03,2.370250e+03
1.910148e+03,2.350597e+03
1.913041e+03,2.362103e+03
1.915933e+03,2.357712e+03
1.918826e+03,2.357073e+03
1.921719e+03,2.357685e+03
1.924612e+03,2.366402e+03
1.927504e+03,2.358680e+03
1.930397e+03,2.347312e+03
1.933290e+03,2.345445e+03
1.936182e+03,2.347945e+03
1.939075e+03,2.355208e+03
1.941968e+03,2.339832e+03
1.944860e+03,2.336932e+03
1.947753e+03,2.331423e+03
1.950646e+03,2.324302e+03
1.953539e+03,2.326776e+03
1.956431e+03,2.331839e+03
1.959324e+03,2.328007e+03
1.962217e+03,2.327902e+03
1.965109e+03,2.304077e+03
1.968002e+03,2.324377e+03
1.970895e+03,2.331945e+03
1.973787e+03,2.305933e+03
1.976680e+03,2.322543e+03
1.979573e+03,2.293391e+03
1.982466e+03,2.289719e+03
1.985358e+03,2.308761e+03
1.988251e+03,2.286534e+03
1.991144e+03,2.288416e+03
1.994036e+03,2.309875e+03
1.996929e+03,2.297099e+03
1.999822e+03,2.289473e+03
2.002714e+03,2.283601e+03
2.005607e+03,2.287093e+03
2.008500e+03,2.272637e+03
2.011393e+03,2.286321e+03
2.014285e+03,2.275354e+03
2.017178e+03,2.266799e+03
2.020071e+03,2.250624e+03
2.022963e+03,2.252993e+03
2.025856e+03,2.246763e+03
2.028749e+03,2.252228e+03
2.031641e+03,2.271884e+03
2.034534e+03,2.244188e+03
2.037427e+03,2.248051e+03
2.040320e+03,2.239016e+03
2.043212e+03,2.229559e+03
2.046105e+03,2.249480e+03
2.048998e+03,2.244438e+03
2.051890e+03,2.231696e+03
2.054783e+03,2.228782e+03
2.057676e+03,2.225585e+03
2.060568e+03,2.226408e+03
2.063461e+03,2.224839e+03
2.066354e+03,2.216998e+03
2.069247e+03,2.209882e+03
2.072139e+03,2.214985e+03
2.075032e+03,2.204863e+03
2.077925e+03,2.212820e+03
2.080817e+03,2.196890e+03
2.083710e+03,2.203064e+03
2.086603e+03,2.180500e+03
2.089496e+03,2.192616e+03
2.092388e+03,2.187897e+03
2.095281e+03,2.194519e+03
2.098174e+03,2.199840e+03
2.101066e+03,2.186186e+03
2.103959e+03,2.173602e+03
2.106852e+03,2.169820e+03
2.109744e+03,2.179317e+03
2.112637e+03,2.185940e+03
2.115530e+03,2.165442e+03
2.118422e+03,2.134396e+03
2.121315e+03,2.173885e+03
2.124208e+03,2.161604e+03
2.127101e+03,2.172897e+03
2.129993e+03,2.147063e+03
2.132886e+03,2.137347e+03
2.135779e+03,2.148559e+03
2.138671e+03,2.147089e+03
2.141564e+03,2.147154e+03
2.144457e+03,2.138613e+03
2.147350e+03,2.139151e+03
2.150242e+03,2.131031e+03
2.153135e+03,2.134263e+03
2.156028e+03,2.115654e+03
2.158920e+03,2.138914e+03
2.161813e+03,2.120879e+03
2.164706e+03,2.100008e+03
2.167598e+03,2.110323e+03
2.170491e+03,2.126939e+03
2.173384e+03,2.126020e+03
2.176277e+03,2.101528e+03
2.179169e+03,2.088320e+03
2.182062e+03,2.097682e+03
2.184955e+03,2.103893e+03
2.187847e+03,2.101799e+03
2.190740e+03,2.104929e+03
2.193633e+03,2.084353e+03
2.196525e+03,2.076582e+03
2.199418e+03,2.075788e+03
2.202311e+03,2.079212e+03
2.205204e+03,2.078121e+03
2.208096e+03,2.069648e+03
2.210989e+03,2.049642e+03
2.213882e+03,2.062431e+03
2.216774e+03,2.059587e+03
2.219667e+03,2.064930e+03
2.222560e+03,2.062932e+03
2.225452e+03,2.020111e+03
2.228345e+03,2.045357e+03
2.231238e+03,2.050543e+03
2.234131e+03,2.035296e+03
2.237023e+03,2.046489e+03
2.239916e+03,2.026049e+03
2.242809e+03,2.017734e+03
2.245701e+03,2.029260e+03
2.248594e+03,1.999346e+03
2.251487e+03,2.015349e+03
2.254379e+03,2.024882e+03
2.257272e+03,2.004449e+03
2.260165e+03,2.011042e+03
2.263058e+03,2.029909e+03
2.265950e+03,1.999381e+03
2.268843e+03,2.005104e+03
2.271736e+03,1.984053e+03
2.274628e+03,2.000087e+03
2.277521e+03,1.982283e+03
2.280414e+03,1.992218e+03
2.283306e+03,1.989310e+03
2.286199e+03,1.966822e+03
2.289092e+03,1.989425e+03
2.291985e+03,1.962946e+03
2.294877e+03,1.996932e+03
2.297770e+03,1.965198e+03
2.300663e+03,1.962295e+03
2.303555e+03,1.963090e+03
2.306448e+03,1.939052e+03
2.309341e+03,1.960233e+03
2.312233e+03,1.933352e+03
2.315126e+03,1.959426e+03
2.318019e+03,1.943325e+03
2.320912e+03,1.953258e+03
2.323804e+03,1.958814e+03
2.326697e+03,1.939498e+03
2.329590e+03,1.953092e+03
2.332482e+03,1.924797e+03
2.335375e+03,1.927709e+03
2.338268e+03,1.933749e+03
2.341160e+03,1.920193e+03
2.344053e+03,1.940696e+03
2.346946e+03,1.929242e+03
2.349839e+03,1.906927e+03
2.352731e+03,1.908599e+03
2.355624e+03,1.908777e+03
2.358517e+03,1.909002e+03
2.361409e+03,1.888785e+03
2.364302e+03,1.893678e+03
2.367195e+03,1.892120e+03
2.370087e+03,1.896336e+03
2.372980e+03,1.898822e+03
2.375873e+03,1.893332e+03
2.378766e+03,1.886954e+03
2.381658e+03,1.859938e+03
2.384551e+03,1.876704e+03
2.387444e+03,1.882063e+03
2.390336e+03,1.877864e+03
2.393229e+03,1.879974e+03
2.396122e+03,1.877948e+03
2.399014e+03,1.865592e+03
2.401907e+03,1.868821e+03
2.404800e+03,1.879097e+03
2.407693e+03,1.845109e+03
2.410585e+03,1.856462e+03
2.413478e+03,1.865553e+03
2.416371e+03,1.833859e+03
2.419263e+03,1.854797e+03
2.422156e+03,1.852432e+03
2.425049e+03,1.845338e+03
2.427941e+03,1.818710e+03
2.430834e+03,1.815016e+03
2.433727e+03,1.824057e+03
2.436620e+03,1.824092e+03
2.439512e+03,1.822110e+03
2.442405e+03,1.834906e+03
2.445298e+03,1.839757e+03
2.448190e+03,1.807845e+03
2.451083e+03,1.819167e+03
2.453976e+03,1.808418e+03
2.456868e+03,1.800962e+03
2.459761e+03,1.808331e+03
2.462654e+03,1.814608e+03
2.465547e+03,1.792666e+03
2.468439e+03,1.809775e+03
2.471332e+03,1.797399e+03
2.474225e+03,1.805100e+03
2.477117e+03,1.789882e+03
2.480010e+03,1.801193e+03
2.482903e+03,1.779689e+03
2.485795e+03,1.786267e+03
2.488688e+03,1.780193e+03
2.491581e+03,1.784984e+03
2.494474e+03,1.771934e+03
2.497366e+03,1.773727e+03
2.500259e+03,1.753003e+03
2.503152e+03,1.782190e+03
2.506044e+03,1.748715e+03
2.508937e+03,1.775774e+03
2.511830e+03,1.763049e+03
2.514722e+03,1.774901e+03
2.517615e+03,1.775481e+03
2.520508e+03,1.765606e+03
2.523401e+03,1.742723e+03
2.526293e+03,1.746248e+03
2.529186e+03,1.733107e+03
2.532079e+03,1.743526e+03
2.534971e+03,1.756453e+03
2.537864e+03,1.734215e+03
2.540757e+03,1.728636e+03
2.543649e+03,1.741544e+03
2.546542e+03,1.742467e+03
2.549435e+03,1.742681e+03
2.552328e+03,1.726132e+03
2.555220e+03,1.719931e+03
2.558113e+03,1.726776e+03
2.561006e+03,1.714870e+03
2.563898e+03,1.726827e+03
2.566791e+03,1.718688e+03
2.569684e+03,1.726499e+03
2.572576e+03,1.722867e+03
2.575469e+03,1.710651e+03
2.578362e+03,1.705910e+03
2.581255e+03,1.718043e+03
2.584147e+03,1.724195e+03
2.587040e+03,1.698945e+03
2.589933e+03,1.703149e+03
2.592825e+03,1.698794e+03
2.595718e+03,1.684277e+03
2.598611e+03,1.691470e+03
2.601503e+03,1.687198e+03
2.604396e+03,1.683145e+03
2.607289e+03,1.673237e+03
2.610182e+03,1.695227e+03
2.613074e+03,1.695736e+03
2.615967e+03,1.691715e+03
2.618860e+03,1.690190e+03
2.621752e+03,1.651387e+03
2.624645e+03,1.673649e+03
2.627538e+03,1.668845e+03
2.630430e+03,1.665457e+03
2.633323e+03,1.641226e+03
2.636216e+03,1.661114e+03
2.639109e+03,1.656868e+03
2.642001e+03,1.645735e+03
2.644894e+03,1.658785e+03
2.647787e+03,1.638318e+03
2.650679e+03,1.642503e+03
2.653572e+03,1.648606e+03
2.656465e+03,1.644353e+03
2.659357e+03,1.638553e+03
2.662250e+03,1.658081e+03
2.665143e+03,1.642581e+03
2.668036e+03,1.647490e+03
2.670928e+03,1.621083e+03
2.673821e+03,1.623279e+03
2.676714e+03,1.626515e+03
2.679606e+03,1.638045e+03
2.682499e+03,1.627129e+03
2.685392e+03,1.621053e+03
2.688284e+03,1.624146e+03
2.691177e+03,1.628134e+03
2.694070e+03,1.615172e+03
2.696963e+03,1.626121e+03
2.699855e+03,1.604251e+03
2.702748e+03,1.615972e+03
2.705641e+03,1.607445e+03
2.708533e+03,1.621689e+03
2.711426e+03,1.597585e+03
2.714319e+03,1.605059e+03
2.717211e+03,1.587359e+03
2.720104e+03,1.587906e+03
2.722997e+03,1.606488e+03
2.725890e+03,1.598900e+03
2.728782e+03,1.615530e+03
2.731675e+03,1.564952e+03
2.734568e+03,1.584311e+03
2.737460e+03,1.582322e+03
2.740353e+03,1.581609e+03
2.743246e+03,1.561991e+03
2.746138e+03,1.567379e+03
2.749031e+03,1.584435e+03
2.751924e+03,1.565412e+03
2.754817e+03,1.548463e+03
2.757709e+03,1.570645e+03
2.760602e+03,1.564354e+03
2.763495e+03,1.550313e+03
2.766387e+03,1.574744e+03
2.769280e+03,1.559413e+03
2.772173e+03,1.545206e+03
2.775065e+03,1.551855e+03
2.777958e+03,1.551755e+03
2.780851e+03,1.549041e+03
2.783744e+03,1.554776e+03
2.786636e+03,1.527138e+03
2.789529e+03,1.538379e+03
2.792422e+03,1.525541e+03
2.795314e+03,1.531367e+03
2.798207e+03,1.525617e+03
2.801100e+03,1.523201e+03
2.803992e+03,1.512096e+03
2.806885e+03,1.520255e+03
2.809778e+03,1.551536e+03
2.812671e+03,1.511168e+03
2.815563e+03,1.524264e+03
2.818456e+03,1.522957e+03
2.821349e+03,1.518756e+03
2.824241e+03,1.514005e+03
2.827134e+03,1.521659e+03
2.830027e+03,1.520615e+03
2.832919e+03,1.489769e+03
2.835812e+03,1.519900e+03
2.838705e+03,1.508750e+03
2.841598e+03,1.514186e+03
2.844490e+03,1.506838e+03
2.847383e+03,1.511231e+03
2.850276e+03,1.499601e+03
2.853168e+03,1.524617e+03
2.856061e+03,1.524517e+03
2.858954e+03,1.481768e+03
2.861846e+03,1.491969e+03
2.864739e+03,1.513754e+03
2.867632e+03,1.519447e+03
2.870525e+03,1.497591e+03
2.873417e+03,1.487002e+03
2.876310e+03,1.497031e+03
2.879203e+03,1.482201e+03
2.882095e+03,1.474675e+03
2.884988e+03,1.512240e+03
2.887881e+03,1.477340e+03
2.890773e+03,1.451336e+03
2.893666e+03,1.497505e+03
2.896559e+03,1.469909e+03
2.899452e+03,1.515289e+03
2.902344e+03,1.454516e+03
2.905237e+03,1.467235e+03
2.908130e+03,1.454661e+03
2.911022e+03,1.485453e+03
2.913915e+03,1.473846e+03
2.916808e+03,1.476297e+03
2.919700e+03,1.476897e+03
2.922593e+03,1.439585e+03
2.925486e+03,1.462953e+03
2.928379e+03,1.451821e+03
2.931271e+03,1.452458e+03
2.934164e+03,1.445284e+03
2.937057e+03,1.435615e+03
2.939949e+03,1.464826e+03
2.942842e+03,1.437511e+03
2.945735e+03,1.476611e+03
2.948627e+03,1.462037e+03
2.951520e+03,1.432265e+03
2.954413e+03,1.411494e+03
2.957306e+03,1.485707e+03
2.960198e+03,1.463144e+03
2.963091e+03,1.419698e+03
2.965984e+03,1.456292e+03
2.968876e+03,1.436251e+03
2.971769e+03,1.423315e+03
2.974662e+03,1.416941e+03
2.977554e+03,1.439328e+03
2.980447e+03,1.422344e+03
2.983340e+03,1.448196e+03
2.986233e+03,1.399295e+03
2.989125e+03,1.453947e+03
2.992018e+03,1.434576e+03
2.994911e+03,1.431294e+03
2.997803e+03,1.397194e+03
3.000696e+03,1.412693e+03
3.003589e+03,1.423905e+03
3.006481e+03,1.403188e+03
3.009374e+03,1.411953e+03
3.012267e+03,1.426474e+03
3.015160e+03,1.410842e+03
3.018052e+03,1.405838e+03
3.020945e+03,1.397164e+03
3.023838e+03,1.397721e+03
3.026730e+03,1.408939e+03
3.029623e+03,1.400546e+03
3.032516e+03,1.366354e+03
3.035408e+03,1.406711e+03
3.038301e+03,1.389639e+03
3.041194e+03,1.377188e+03
3.044087e+03,1.366257e+03
3.046979e+03,1.377584e+03
3.049872e+03,1.373897e+03
3.052765e+03,1.395552e+03
3.055657e+03,1.391140e+03
3.058550e+03,1.330906e+03
3.061443e+03,1.386070e+03
3.064335e+03,1.373156e+03
3.067228e+03,1.368923e+03
3.070121e+03,1.378414e+03
3.073014e+03,1.381408e+03
3.075906e+03,1.354749e+03
3.078799e+03,1.403852e+03
3.081692e+03,1.386714e+03
3.084584e+03,1.356255e+03
3.087477e+03,1.361795e+03
3.090370e+03,1.360415e+03
3.093262e+03,1.341880e+03
3.096155e+03,1.409216e+03
3.099048e+03,1.353140e+03
3.101941e+03,1.392150e+03
3.104833e+03,1.366033e+03
3.107726e+03,1.347776e+03
3.110619e+03,1.351533e+03
3.113511e+03,1.364559e+03
3.116404e+03,1.347778e+03
3.119297e+03,1.386082e+03
3.122189e+03,1.344179e+03
3.125082e+03,1.334255e+03
3.127975e+03,1.349437e+03
3.130868e+03,1.390589e+03
3.133760e+03,1.374050e+03
3.136653e+03,1.320366e+03
3.139546e+03,1.336491e+03
3.142438e+03,1.377878e+03
3.145331e+03,1.339710e+03
3.148224e+03,1.330165e+03
3.151116e+03,1.351358e+03
3.154009e+03,1.390030e+03
3.156902e+03,1.334554e+03
3.159795e+03,1.340301e+03
3.162687e+03,1.337935e+03
3.165580e+03,1.289619e+03
3.168473e+03,1.344672e+03
3.171365e+03,1.333990e+03
3.174258e+03,1.345783e+03
3.177151e+03,1.318843e+03
3.180043e+03,1.386054e+03
3.182936e+03,1.287953e+03
3.185829e+03,1.337363e+03
3.188722e+03,1.312102e+03
3.191614e+03,1.369788e+03
3.194507e+03,1.343608e+03
3.197400e+03,1.320142e+03
3.200292e+03,1.366982e+03
3.203185e+03,0.000000e+00
3.206078e+03,0.000000e+00
3.208970e+03,0.000000e+00
3.211863e+03,0.000000e+00
3.214756e+03,0.000000e+00
3.217649e+03,0.000000e+00
3.220541e+03,0.000000e+00
3.223434e+03,0.000000e+00
3.226327e+03,0.000000e+00
3.229219e+03,0.000000e+00
3.232112e+03,0.000000e+00
3.235005e+03,0.000000e+00
3.237897e+03,0.000000e+00
3.240790e+03,0.000000e+00
3.243683e+03,0.000000e+00
3.246576e+03,0.000000e+00
3.249468e+03,0.000000e+00
3.252361e+03,0.000000e+00
3.255254e+03,0.000000e+00
3.258146e+03,0.000000e+00
3.261039e+03,0.000000e+00
3.263932e+03,0.000000e+00
3.266824e+03,0.000000e+00
3.269717e+03,0.000000e+00
3.272610e+03,0.000000e+00
3.275503e+03,0.000000e+00
3.278395e+03,0.000000e+00
3.281288e+03,0.000000e+00
3.284181e+03,0.000000e+00
3.287073e+03,0.000000e+00
3.289966e+03,0.000000e+00
3.292859e+03,0.000000e+00
3.295751e+03,0.000000e+00
3.298644e+03,0.000000e+00
3.301537e+03,0.000000e+00
3.304430e+03,0.000000e+00
3.307322e+03,0.000000e+00
3.310215e+03,0.000000e+00
3.313108e+03,0.000000e+00
3.316000e+03,0.000000e+00
3.318893e+03,0.000000e+00
3.321786e+03,0.000000e+00
3.324678e+03,0.000000e+00
3.327571e+03,0.000000e+00
3.330464e+03,0.000000e+00
3.333357e+03,0.000000e+00
3.336249e+03,0.000000e+00
3.339142e+03,0.000000e+00
3.342035e+03,0.000000e+00
3.344927e+03,0.000000e+00
3.347820e+03,0.000000e+00
3.350713e+03,0.000000e+00
3.353605e+03,0.000000e+00
3.356498e+03,0.000000e+00
3.359391e+03,0.000000e+00
3.362284e+03,0.000000e+00
3.365176e+03,0.000000e+00
3.368069e+03,0.000000e+00
3.370962e+03,0.000000e+00
3.373854e+03,0.000000e+00
3.376747e+03,0.000000e+00
3.379640e+03,0.000000e+00
3.382532e+03,0.000000e+00
3.385425e+03,0.000000e+00
3.388318e+03,0.000000e+00
3.391211e+03,0.000000e+00
3.394103e+03,0.000000e+00
3.396996e+03,0.000000e+00
3.399889e+03,0.000000e+00
3.402781e+03,0.000000e+00
3.405674e+03,0.000000e+00
3.408567e+03,0.000000e+00
3.411459e+03,0.000000e+00
3.414352e+03,0.000000e+00
3.417245e+03,0.000000e+00
3.420138e+03,0.000000e+00
3.423030e+03,0.000000e+00
3.425923e+03,0.000000e+00
3.428816e+03,0.000000e+00
3.431708e+03,0.000000e+00
3.434601e+03,0.000000e+00
3.437494e+03,0.000000e+00
3.440386e+03,0.000000e+00
3.443279e+03,0.000000e+00
3.446172e+03,0.000000e+00
3.449065e+03,0.000000e+00
3.451957e+03,0.000000e+00
3.454850e+03,0.000000e+00
3.457743e+03,0.000000e+00
3.460635e+03,0.000000e+00
3.463528e+03,0.000000e+00
3.466421e+03,0.000000e+00
3.469313e+03,0.000000e+00
3.472206e+03,0.000000e+00
3.475099e+03,0.000000e+00
3.477992e+03,0.000000e+00
3.480884e+03,0.000000e+00
3.483777e+03,0.000000e+00
3.486670e+03,0.000000e+00
3.489563e+03,0.000000e+00
3.492455e+03,0.000000e+00
3.495348e+03,0.000000e+00
3.498240e+03,0.000000e+00
3.500169e+03,0.000000e+00