File: RAMAN_data/not_plastic/defo not plastic1.CSV
9.931763e+01,0.000000e+00
1.022103e+02,0.000000e+00
1.051030e+02,0.000000e+00
1.079957e+02,0.000000e+00
1.108884e+02,0.000000e+00
1.137811e+02,0.000000e+00
1.166738e+02,0.000000e+00
1.195665e+02,0.000000e+00
1.224592e+02,0.000000e+00
1.253519e+02,0.000000e+00
1.282446e+02,0.000000e+00
1.311373e+02,0.000000e+00
1.340300e+02,0.000000e+00
1.369227e+02,0.000000e+00
1.398154e+02,0.000000e+00
1.427081e+02,0.000000e+00
1.456008e+02,0.000000e+00
1.484935e+02,0.000000e+00
1.513862e+02,0.000000e+00
1.542789e+02,0.000000e+00
1.571716e+02,0.000000e+00
1.600643e+02,0.000000e+00
1.629570e+02,0.000000e+00
1.658497e+02,0.000000e+00
1.687424e+02,0.000000e+00
1.716351e+02,0.000000e+00
1.745278e+02,0.000000e+00
1.774205e+02,0.000000e+00
1.803132e+02,0.000000e+00
1.832059e+02,0.000000e+00
1.860986e+02,0.000000e+00
1.889913e+02,0.000000e+00
1.918840e+02,0.000000e+00
1.947767e+02,0.000000e+00
1.976694e+02,0.000000e+00
2.005621e+02,5.106500e+03
2.034548e+02,5.099251e+03
2.063475e+02,5.102786e+03
2.092402e+02,5.073119e+03
2.121329e+02,5.053104e+03
2.150256e+02,5.053598e+03
2.179183e+02,5.040538e+03
2.208110e+02,5.020242e+03
2.237037e+02,5.022664e+03
2.265964e+02,4.996043e+03
2.294892e+02,4.986333e+03
2.323819e+02,4.977305e+03
2.352746e+02,4.964179e+03
2.381673e+02,4.971130e+03
2.410600e+02,4.934948e+03
2.439527e+02,4.917476e+03
2.468454e+02,4.911584e+03
2.497381e+02,4.904836e+03
2.526308e+02,4.887147e+03
2.555235e+02,4.866192e+03
2.584161e+02,4.843435e+03
2.613088e+02,4.835472e+03
2.642015e+02,4.841632e+03
2.670942e+02,4.836133e+03
2.699869e+02,4.835958e+03
2.728796e+02,4.801901e+03
2.757723e+02,4.811220e+03
2.786650e+02,4.794961e+03
2.815577e+02,4.769466e+03
2.844504e+02,4.767783e+03
2.873431e+02,4.751173e+03
2.902358e+02,4.741833e+03
2.931285e+02,4.725359e+03
2.960212e+02,4.722390e+03
2.989139e+02,4.702256e+03
3.018066e+02,4.698636e+03
3.046993e+02,4.712528e+03
3.075920e+02,4.694408e+03
3.104847e+02,4.665558e+03
3.133774e+02,4.663781e+03
3.162701e+02,4.644536e+03
3.191628e+02,4.625216e+03
3.220555e+02,4.613475e+03
3.249482e+02,4.618021e+03
3.278409e+02,4.604881e+03
3.307336e+02,4.592444e+03
3.336263e+02,4.581745e+03
3.365190e+02,4.558041e+03
3.394117e+02,4.560841e+03
3.423044e+02,4.535298e+03
3.451971e+02,4.537459e+03
3.480898e+02,4.517076e+03
3.509825e+02,4.501745e+03
3.538752e+02,4.483570e+03
3.567680e+02,4.479194e+03
3.596607e+02,4.473617e+03
3.625534e+02,4.461112e+03
3.654461e+02,4.449493e+03
3.683388e+02,4.418657e+03
3.712315e+02,4.428675e+03
3.741242e+02,4.416793e+03
3.770169e+02,4.419966e+03
3.799096e+02,4.401804e+03
3.828023e+02,4.378995e+03
3.856950e+02,4.378470e+03
3.885877e+02,4.356031e+03
3.914804e+02,4.344917e+03
3.943731e+02,4.363985e+03
3.972658e+02,4.334943e+03
4.001585e+02,4.309383e+03
4.030512e+02,4.304185e+03
4.059439e+02,4.303991e+03
4.088366e+02,4.288146e+03
4.117293e+02,4.272402e+03
4.146220e+02,4.255281e+03
4.175147e+02,4.269101e+03
4.204074e+02,4.239298e+03
4.233001e+02,4.243190e+03
4.261928e+02,4.239368e+03
4.290855e+02,4.226981e+03
4.319782e+02,4.211891e+03
4.348709e+02,4.213287e+03
4.377636e+02,4.201647e+03
4.406563e+02,4.192543e+03
4.435490e+02,4.185837e+03
4.464417e+02,4.160172e+03
4.493344e+02,4.160813e+03
4.522271e+02,4.149319e+03
4.551198e+02,4.140577e+03
4.580125e+02,4.134377e+03
4.609052e+02,4.100858e+03
4.637979e+02,4.101952e+03
4.666906e+02,4.089574e+03
4.695833e+02,4.083259e+03
4.724760e+02,4.080727e+03
4.753687e+02,4.053045e+03
4.782614e+02,4.060976e+03
4.811541e+02,4.045146e+03
4.840468e+02,4.041610e+03
4.869395e+02,4.028055e+03
4.898322e+02,4.018972e+03
4.927249e+02,4.015329e+03
4.956176e+02,4.016619e+03
4.985103e+02,4.007848e+03
5.014030e+02,3.972831e+03
5.042957e+02,3.977452e+03
5.071884e+02,3.959156e+03
5.100811e+02,3.969410e+03
5.129738e+02,3.968817e+03
5.158665e+02,3.955017e+03
5.187592e+02,3.950599e+03
5.216519e+02,3.949544e+03
5.245446e+02,3.916785e+03
5.274373e+02,3.913503e+03
5.303300e+02,3.916413e+03
5.332227e+02,3.911124e+03
5.361154e+02,3.877137e+03
5.390081e+02,3.864604e+03
5.419008e+02,3.877190e+03
5.447935e+02,3.870776e+03
5.476862e+02,3.874517e+03
5.505789e+02,3.859320e+03
5.534716e+02,3.833727e+03
5.563643e+02,3.837791e+03
5.592570e+02,3.838156e+03
5.621497e+02,3.842287e+03
5.650424e+02,3.829470e+03
5.679351e+02,3.816175e+03
5.708278e+02,3.813220e+03
5.737205e+02,3.807190e+03
5.766132e+02,3.805303e+03
5.795059e+02,3.806721e+03
5.823986e+02,3.791440e+03
5.852913e+02,3.771348e+03
5.881840e+02,3.775626e+03
5.910767e+02,3.771503e+03
5.939694e+02,3.771994e+03
5.968621e+02,3.761823e+03
5.997548e+02,3.746343e+03
6.026475e+02,3.740284e+03
6.055402e+02,3.760203e+03
6.084329e+02,3.743284e+03
6.113256e+02,3.729230e+03
6.142183e+02,3.720003e+03
6.171110e+02,3.697761e+03
6.200037e+02,3.701586e+03
6.228964e+02,3.698544e+03
6.257891e+02,3.685924e+03
6.286818e+02,3.694203e+03
6.315745e+02,3.693530e+03
6.344672e+02,3.681698e+03
6.373599e+02,3.677842e+03
6.402526e+02,3.685900e+03
6.431453e+02,3.666723e+03
6.460380e+02,3.663515e+03
6.489307e+02,3.652616e+03
6.518234e+02,3.652044e+03
6.547161e+02,3.645701e+03
6.576088e+02,3.645695e+03
6.605015e+02,3.638463e+03
6.633942e+02,3.629483e+03
6.662869e+02,3.629731e+03
6.691796e+02,3.627528e+03
6.720723e+02,3.635897e+03
6.749650e+02,3.592519e+03
6.778577e+02,3.616012e+03
6.807504e+02,3.617555e+03
6.836431e+02,3.610289e+03
6.865358e+02,3.584841e+03
6.894285e+02,3.583093e+03
6.923212e+02,3.602606e+03
6.952139e+02,3.566462e+03
6.981066e+02,3.562331e+03
7.009993e+02,3.576663e+03
7.038920e+02,3.563124e+03
7.067847e+02,3.558653e+03
7.096774e+02,3.568311e+03
7.125701e+02,3.564917e+03
7.154628e+02,3.548200e+03
7.183555e+02,3.542447e+03
7.212482e+02,3.539621e+03
7.241409e+02,3.534993e+03
7.270336e+02,3.527727e+03
7.299263e+02,3.507851e+03
7.328190e+02,3.534978e+03
7.357117e+02,3.500223e+03
7.386044e+02,3.515270e+03
7.414971e+02,3.499700e+03
7.443898e+02,3.499059e+03
7.472825e+02,3.468713e+03
7.501752e+02,3.501087e+03
7.530679e+02,3.495471e+03
7.559606e+02,3.477095e+03
7.588533e+02,3.478784e+03
7.617460e+02,3.475320e+03
7.646387e+02,3.460534e+03
7.675314e+02,3.460896e+03
7.704241e+02,3.457797e+03
7.733168e+02,3.436676e+03
7.762095e+02,3.458808e+03
7.791022e+02,3.449274e+03
7.819949e+02,3.432550e+03
7.848876e+02,3.425645e+03
7.877803e+02,3.429862e+03
7.906730e+02,3.431784e+03
7.935657e+02,3.423117e+03
7.964584e+02,3.403944e+03
7.993511e+02,3.420781e+03
8.022438e+02,3.409941e+03
8.051365e+02,3.401228e+03
8.080292e+02,3.403578e+03
8.109219e+02,3.411008e+03
8.138146e+02,3.404623e+03
8.167073e+02,3.394806e+03
8.196000e+02,3.375793e+03
8.224927e+02,3.379909e+03
8.253854e+02,3.360498e+03
8.282781e+02,3.370861e+03
8.311708e+02,3.364999e+03
8.340635e+02,3.366860e+03
8.369562e+02,3.367675e+03
8.398489e+02,3.349582e+03
8.427416e+02,3.346750e+03
8.456343e+02,3.331135e+03
8.485270e+02,3.350950e+03
8.514197e+02,3.356993e+03
8.543124e+02,3.322369e+03
8.572051e+02,3.331316e+03
8.600978e+02,3.299210e+03
8.629905e+02,3.322605e+03
8.658832e+02,3.297837e+03
8.687759e+02,3.315811e+03
8.716686e+02,3.327445e+03
8.745613e+02,3.310554e+03
8.774540e+02,3.294513e+03
8.803467e+02,3.315399e+03
8.832394e+02,3.303776e+03
8.861321e+02,3.292370e+03
8.890248e+02,3.288827e+03
8.919175e+02,3.263069e+03
8.948102e+02,3.266830e+03
8.977029e+02,3.271007e+03
9.005956e+02,3.262182e+03
9.034883e+02,3.247879e+03
9.063810e+02,3.243474e+03
9.092737e+02,3.241841e+03
9.121664e+02,3.242156e+03
9.150591e+02,3.225681e+03
9.179518e+02,3.224088e+03
9.208445e+02,3.219251e+03
9.237372e+02,3.213563e+03
9.266299e+02,3.209511e+03
9.295226e+02,3.220858e+03
9.324153e+02,3.199830e+03
9.353080e+02,3.212502e+03
9.382007e+02,3.199014e+03
9.410934e+02,3.196603e+03
9.439861e+02,3.201781e+03
9.468788e+02,3.194292e+03
9.497715e+02,3.186776e+03
9.526642e+02,3.175145e+03
9.555569e+02,3.174378e+03
9.584496e+02,3.171731e+03
9.613423e+02,3.180523e+03
9.642350e+02,3.178674e+03
9.671277e+02,3.158530e+03
9.700204e+02,3.146109e+03
9.729131e+02,3.123769e+03
9.758058e+02,3.135683e+03
9.786985e+02,3.138340e+03
9.815912e+02,3.141237e+03
9.844839e+02,3.114577e+03
9.873766e+02,3.138605e+03
9.902693e+02,3.120701e+03
9.931620e+02,3.110990e+03
9.960547e+02,3.109488e+03
9.989474e+02,3.099686e+03
1.001840e+03,3.095116e+03
1.004733e+03,3.105464e+03
1.007626e+03,3.102232e+03
1.010518e+03,3.081070e+03
1.013411e+03,3.087234e+03
1.016304e+03,3.074749e+03
1.019196e+03,3.081465e+03
1.022089e+03,3.073214e+03
1.024982e+03,3.073076e+03
1.027875e+03,3.062617e+03
1.030767e+03,3.059823e+03
1.033660e+03,3.064491e+03
1.036552e+03,3.061072e+03
1.039445e+03,3.054851e+03
1.042338e+03,3.055987e+03
1.045231e+03,3.058583e+03
1.048123e+03,3.037817e+03
1.051016e+03,3.033753e+03
1.053909e+03,3.019363e+03
1.056802e+03,3.028333e+03
1.059694e+03,3.031125e+03
1.062587e+03,3.023211e+03
1.065479e+03,3.018743e+03
1.068372e+03,3.006010e+03
1.071265e+03,3.016782e+03
1.074158e+03,3.012076e+03
1.077050e+03,3.010045e+03
1.079943e+03,2.989714e+03
1.082836e+03,3.002402e+03
1.085729e+03,3.005921e+03
1.088621e+03,3.009849e+03
1.091514e+03,3.001180e+03
1.094406e+03,2.984527e+03
1.097299e+03,2.982676e+03
1.100192e+03,2.988161e+03
1.103085e+03,2.987888e+03
1.105977e+03,2.984038e+03
1.108870e+03,2.971954e+03
1.111763e+03,2.955705e+03
1.114656e+03,2.970612e+03
1.117548e+03,2.982340e+03
1.120441e+03,2.956750e+03
1.123334e+03,2.963795e+03
1.126226e+03,2.959885e+03
1.129119e+03,2.947754e+03
1.132012e+03,2.952570e+03
1.134904e+03,2.939140e+03
1.137797e+03,2.934337e+03
1.140690e+03,2.944798e+03
1.143583e+03,2.938546e+03
1.146475e+03,2.925696e+03
1.149368e+03,2.922419e+03
1.152261e+03,2.923735e+03
1.155153e+03,2.909066e+03
1.158046e+03,2.907629e+03
1.160939e+03,2.895966e+03
1.163831e+03,2.907894e+03
1.166724e+03,2.913749e+03
1.169617e+03,2.913999e+03
1.172510e+03,2.878692e+03
1.175402e+03,2.883235e+03
1.178295e+03,2.901662e+03
1.181188e+03,2.876126e+03
1.184080e+03,2.870351e+03
1.186973e+03,2.854080e+03
1.189866e+03,2.864362e+03
1.192758e+03,2.868456e+03
1.195651e+03,2.864915e+03
1.198544e+03,2.863035e+03
1.201437e+03,2.864858e+03
1.204329e+03,2.856284e+03
1.207222e+03,2.847541e+03
1.210115e+03,2.850601e+03
1.213007e+03,2.865179e+03
1.215900e+03,2.849019e+03
1.218793e+03,2.842962e+03
1.221685e+03,2.830960e+03
1.224578e+03,2.839761e+03
1.227471e+03,2.834794e+03
1.230364e+03,2.817887e+03
1.233256e+03,2.806048e+03
1.236149e+03,2.804741e+03
1.239042e+03,2.831137e+03
1.241934e+03,2.819208e+03
1.244827e+03,2.805946e+03
1.247720e+03,2.820391e+03
1.250612e+03,2.798518e+03
1.253505e+03,2.789165e+03
1.256398e+03,2.813746e+03
1.259291e+03,2.786825e+03
1.262183e+03,2.789204e+03
1.265076e+03,2.781479e+03
1.267969e+03,2.777914e+03
1.270861e+03,2.794713e+03
1.273754e+03,2.801475e+03
1.276647e+03,2.768526e+03
1.279539e+03,2.757075e+03
1.282432e+03,2.783499e+03
1.285325e+03,2.784508e+03
1.288218e+03,2.767549e+03
1.291110e+03,2.758818e+03
1.294003e+03,2.758412e+03
1.296896e+03,2.749434e+03
1.299788e+03,2.753074e+03
1.302681e+03,2.760295e+03
1.305574e+03,2.746878e+03
1.308466e+03,2.749954e+03
1.311359e+03,2.745171e+03
1.314252e+03,2.731277e+03
1.317145e+03,2.740260e+03
1.320037e+03,2.746350e+03
1.322930e+03,2.729585e+03
1.325823e+03,2.734406e+03
1.328715e+03,2.722090e+03
1.331608e+03,2.724333e+03
1.334501e+03,2.721507e+03
1.337393e+03,2.746976e+03
1.340286e+03,2.720646e+03
1.343179e+03,2.712016e+03
1.346072e+03,2.709568e+03
1.348964e+03,2.719867e+03
1.351857e+03,2.711294e+03
1.354750e+03,2.704073e+03
1.357642e+03,2.701035e+03
1.360535e+03,2.698805e+03
1.363428e+03,2.694452e+03
1.366320e+03,2.696019e+03
1.369213e+03,2.710410e+03
1.372106e+03,2.701087e+03
1.374999e+03,2.695810e+03
1.377891e+03,2.695061e+03
1.380784e+03,2.687688e+03
1.383677e+03,2.687664e+03
1.386569e+03,2.688943e+03
1.389462e+03,2.659263e+03
1.392355e+03,2.662928e+03
1.395247e+03,2.654977e+03
1.398140e+03,2.657550e+03
1.401033e+03,2.661546e+03
1.403926e+03,2.639863e+03
1.406818e+03,2.655178e+03
1.409711e+03,2.648121e+03
1.412604e+03,2.655392e+03
1.415496e+03,2.638704e+03
1.418389e+03,2.636506e+03
1.421282e+03,2.630410e+03
1.424174e+03,2.628552e+03
1.427067e+03,2.625145e+03
1.429960e+03,2.623407e+03
1.432853e+03,2.615452e+03
1.435745e+03,2.617419e+03
1.438638e+03,2.610259e+03
1.441531e+03,2.606439e+03
1.444423e+03,2.594741e+03
1.447316e+03,2.595657e+03
1.450209e+03,2.598738e+03
1.453101e+03,2.599805e+03
1.455994e+03,2.572860e+03
1.458887e+03,2.592641e+03
1.461780e+03,2.587659e+03
1.464672e+03,2.569864e+03
1.467565e+03,2.576300e+03
1.470458e+03,2.567876e+03
1.473350e+03,2.566447e+03
1.476243e+03,2.576186e+03
1.479136e+03,2.574132e+03
1.482028e+03,2.561514e+03
1.484921e+03,2.554280e+03
1.487814e+03,2.574092e+03
1.490707e+03,2.549858e+03
1.493599e+03,2.541306e+03
1.496492e+03,2.557500e+03
1.499385e+03,2.535508e+03
1.502277e+03,2.539628e+03
1.505170e+03,2.549452e+03
1.508063e+03,2.537988e+03
1.510955e+03,2.526930e+03
1.513848e+03,2.521557e+03
1.516741e+03,2.531707e+03
1.519634e+03,2.524210e+03
1.522526e+03,2.525070e+03
1.525419e+03,2.523411e+03
1.528312e+03,2.527618e+03
1.531204e+03,2.529225e+03
1.534097e+03,2.534800e+03
1.536990e+03,2.522282e+03
1.539882e+03,2.517011e+03
1.542775e+03,2.512728e+03
1.545668e+03,2.492971e+03
1.548561e+03,2.499767e+03
1.551453e+03,2.510349e+03
1.554346e+03,2.509274e+03
1.557239e+03,2.493403e+03
1.560131e+03,2.476026e+03
1.563024e+03,2.495598e+03
1.565917e+03,2.501791e+03
1.568809e+03,2.488395e+03
1.571702e+03,2.487859e+03
1.574595e+03,2.476471e+03
1.577488e+03,2.475133e+03
1.580380e+03,2.474605e+03
1.583273e+03,2.481374e+03
1.586166e+03,2.473348e+03
1.589058e+03,2.454915e+03
1.591951e+03,2.465242e+03
1.594844e+03,2.474435e+03
1.597736e+03,2.449387e+03
1.600629e+03,2.447327e+03
1.603522e+03,2.464376e+03
1.606415e+03,2.435372e+03
1.609307e+03,2.445857e+03
1.612200e+03,2.435821e+03
1.615093e+03,2.431111e+03
1.617985e+03,2.432107e+03
1.620878e+03,2.419393e+03
1.623771e+03,2.405914e+03
1.626663e+03,2.404312e+03
1.629556e+03,2.399084e+03
1.632449e+03,2.406739e+03
1.635342e+03,2.416569e+03
1.638234e+03,2.395124e+03
1.641127e+03,2.380728e+03
1.644020e+03,2.390152e+03
1.646912e+03,2.377038e+03
1.649805e+03,2.380013e+03
1.652698e+03,2.379398e+03
1.655590e+03,2.365235e+03
1.658483e+03,2.353211e+03
1.661376e+03,2.340591e+03
1.664269e+03,2.324985e+03
1.667161e+03,2.348789e+03
1.670054e+03,2.359633e+03
1.672947e+03,2.349021e+03
1.675839e+03,2.338164e+03
1.678732e+03,2.331659e+03
1.681625e+03,2.336794e+03
1.684517e+03,2.324044e+03
1.687410e+03,2.311099e+03
1.690303e+03,2.303309e+03
1.693196e+03,2.299832e+03
1.696088e+03,2.300941e+03
1.698981e+03,2.290042e+03
1.701874e+03,2.302710e+03
1.704766e+03,2.304421e+03
1.707659e+03,2.286133e+03
1.710552e+03,2.295266e+03
1.713444e+03,2.277098e+03
1.716337e+03,2.270200e+03
1.719230e+03,2.277051e+03
1.722123e+03,2.260161e+03
1.725015e+03,2.266387e+03
1.727908e+03,2.259094e+03
1.730801e+03,2.264513e+03
1.733693e+03,2.258286e+03
1.736586e+03,2.266467e+03
1.739479e+03,2.249770e+03
1.742371e+03,2.253815e+03
1.745264e+03,2.265999e+03
1.748157e+03,2.221093e+03
1.751050e+03,2.245989e+03
1.753942e+03,2.238673e+03
1.756835e+03,2.241233e+03
1.759728e+03,2.213558e+03
1.762620e+03,2.219807e+03
1.765513e+03,2.210872e+03
1.768406e+03,2.224062e+03
1.771298e+03,2.218669e+03
1.774191e+03,2.206071e+03
1.777084e+03,2.203706e+03
1.779977e+03,2.192041e+03
1.782869e+03,2.202902e+03
1.785762e+03,2.206901e+03
1.788655e+03,2.200110e+03
1.791547e+03,2.185551e+03
1.794440e+03,2.188806e+03
1.797333e+03,2.180579e+03
1.800225e+03,2.184317e+03
1.803118e+03,2.191727e+03
1.806011e+03,2.176104e+03
1.808904e+03,2.169179e+03
1.811796e+03,2.175055e+03
1.814689e+03,2.148031e+03
1.817582e+03,2.159748e+03
1.820474e+03,2.150104e+03
1.823367e+03,2.146675e+03
1.826260e+03,2.149807e+03
1.829152e+03,2.162922e+03
1.832045e+03,2.146188e+03
1.834938e+03,2.137417e+03
1.837831e+03,2.139004e+03
1.840723e+03,2.139956e+03
1.843616e+03,2.127158e+03
1.846509e+03,2.123046e+03
1.849401e+03,2.108669e+03
1.852294e+03,2.119970e+03
1.855187e+03,2.104948e+03
1.858079e+03,2.120168e+03
1.860972e+03,2.120434e+03
1.863865e+03,2.112436e+03
1.866758e+03,2.105901e+03
1.869650e+03,2.098460e+03
1.872543e+03,2.107317e+03
1.875436e+03,2.122728e+03
1.878328e+03,2.076429e+03
1.881221e+03,2.093584e+03
1.884114e+03,2.085480e+03
1.887006e+03,2.053477e+03
1.889899e+03,2.099472e+03
1.892792e+03,2.058355e+03
1.895685e+03,2.079499e+03
1.898577e+03,2.056901e+03
1.901470e+03,2.063961e+03
1.904363e+03,2.043437e+03
1.907255e+03,2.053112e+03
1.910148e+03,2.060103e+03
1.913041e+03,2.040293e+03
1.915933e+03,2.048910e+03
1.918826e+03,2.043773e+03
1.921719e+03,2.043869e+03
1.924612e+03,2.026382e+03
1.927504e+03,2.023121e+03
1.930397e+03,2.043061e+03
1.933290e+03,2.026732e+03
1.936182e+03,2.004159e+03
1.939075e+03,2.022220e+03
1.941968e+03,2.005650e+03
1.944860e+03,2.000314e+03
1.947753e+03,1.997914e+03
1.950646e+03,1.998525e+03
1.953539e+03,2.002877e+03
1.956431e+03,2.003373e+03
1.959324e+03,1.988634e+03
1.962217e+03,2.003844e+03
1.965109e+03,1.988788e+03
1.968002e+03,1.998451e+03
1.970895e+03,1.987344e+03
1.973787e+03,1.977467e+03
1.976680e+03,1.977371e+03
1.979573e+03,1.966323e+03
1.982466e+03,1.982993e+03
1.985358e+03,1.959603e+03
1.988251e+03,1.939567e+03
1.991144e+03,1.958222e+03
1.994036e+03,1.945723e+03
1.996929e+03,1.947923e+03
1.999822e+03,1.950641e+03
2.002714e+03,1.950072e+03
2.005607e+03,1.949503e+03
2.008500e+03,1.941053e+03
2.011393e+03,1.940809e+03
2.014285e+03,1.937439e+03
2.017178e+03,1.924518e+03
2.020071e+03,1.925724e+03
2.022963e+03,1.909660e+03
2.025856e+03,1.904655e+03
2.028749e+03,1.906503e+03
2.031641e+03,1.907158e+03
2.034534e+03,1.894506e+03
2.037427e+03,1.904980e+03
2.040320e+03,1.893912e+03
2.043212e+03,1.883328e+03
2.046105e+03,1.891989e+03
2.048998e+03,1.896269e+03
2.051890e+03,1.879981e+03
2.054783e+03,1.882856e+03
2.057676e+03,1.887380e+03
2.060568e+03,1.877331e+03
2.063461e+03,1.868557e+03
2.066354e+03,1.857441e+03
2.069247e+03,1.867201e+03
2.072139e+03,1.849890e+03
2.075032e+03,1.854119e+03
2.077925e+03,1.856734e+03
2.080817e+03,1.866422e+03
2.083710e+03,1.846583e+03
2.086603e+03,1.837198e+03
2.089496e+03,1.835771e+03
2.092388e+03,1.838164e+03
2.095281e+03,1.838764e+03
2.098174e+03,1.823638e+03
2.101066e+03,1.816101e+03
2.103959e+03,1.809995e+03
2.106852e+03,1.824229e+03
2.109744e+03,1.809339e+03
2.112637e+03,1.808131e+03
2.115530e+03,1.802803e+03
2.118422e+03,1.788890e+03
2.121315e+03,1.802252e+03
2.124208e+03,1.815528e+03
2.127101e+03,1.782099e+03
2.129993e+03,1.794848e+03
2.132886e+03,1.792047e+03
2.135779e+03,1.770959e+03
2.138671e+03,1.786140e+03
2.141564e+03,1.776370e+03
2.144457e+03,1.760308e+03
2.147350e+03,1.759652e+03
2.150242e+03,1.757003e+03
2.153135e+03,1.773628e+03
2.156028e+03,1.763249e+03
2.158920e+03,1.736660e+03
2.161813e+03,1.760982e+03
2.164706e+03,1.748201e+03
2.167598e+03,1.725281e+03
2.170491e+03,1.762467e+03
2.173384e+03,1.733349e+03
2.176277e+03,1.720645e+03
2.179169e+03,1.725523e+03
2.182062e+03,1.725278e+03
2.184955e+03,1.724064e+03
2.187847e+03,1.714944e+03
2.190740e+03,1.714982e+03
2.193633e+03,1.712009e+03
2.196525e+03,1.716509e+03
2.199418e+03,1.724959e+03
2.202311e+03,1.694846e+03
2.205204e+03,1.714208e+03
2.208096e+03,1.693137e+03
2.210989e+03,1.676338e+03
2.213882e+03,1.677941e+03
2.216774e+03,1.688538e+03
2.219667e+03,1.696736e+03
2.222560e+03,1.670088e+03
2.225452e+03,1.662349e+03
2.228345e+03,1.656965e+03
2.231238e+03,1.680715e+03
2.234131e+03,1.678454e+03
2.237023e+03,1.673610e+03
2.239916e+03,1.674432e+03
2.242809e+03,1.659598e+03
2.245701e+03,1.639797e+03
2.248594e+03,1.650017e+03
2.251487e+03,1.651235e+03
2.254379e+03,1.647215e+03
2.257272e+03,1.650341e+03
2.260165e+03,1.644590e+03
2.263058e+03,1.623355e+03
2.265950e+03,1.621888e+03
2.268843e+03,1.630355e+03
2.271736e+03,1.607656e+03
2.274628e+03,1.623827e+03
2.277521e+03,1.624721e+03
2.280414e+03,1.616781e+03
2.283306e+03,1.608017e+03
2.286199e+03,1.604053e+03
2.289092e+03,1.609625e+03
2.291985e+03,1.593357e+03
2.294877e+03,1.594329e+03
2.297770e+03,1.605739e+03
2.300663e+03,1.594413e+03
2.303555e+03,1.590814e+03
2.306448e+03,1.580282e+03
2.309341e+03,1.588508e+03
2.312233e+03,1.579695e+03
2.315126e+03,1.571377e+03
2.318019e+03,1.570859e+03
2.320912e+03,1.569747e+03
2.323804e+03,1.581292e+03
2.326697e+03,1.558825e+03
2.329590e+03,1.558329e+03
2.332482e+03,1.550484e+03
2.335375e+03,1.544122e+03
2.338268e+03,1.563161e+03
2.341160e+03,1.541918e+03
2.344053e+03,1.550683e+03
2.346946e+03,1.529387e+03
2.349839e+03,1.538972e+03
2.352731e+03,1.533906e+03
2.355624e+03,1.533175e+03
2.358517e+03,1.534898e+03
2.361409e+03,1.536370e+03
2.364302e+03,1.516111e+03
2.367195e+03,1.529316e+03
2.370087e+03,1.520394e+03
2.372980e+03,1.528072e+03
2.375873e+03,1.509325e+03
2.378766e+03,1.509446e+03
2.381658e+03,1.520901e+03
2.384551e+03,1.494073e+03
2.387444e+03,1.498506e+03
2.390336e+03,1.496575e+03
2.393229e+03,1.500076e+03
2.396122e+03,1.478617e+03
2.399014e+03,1.494860e+03
2.401907e+03,1.488935e+03
2.404800e+03,1.480755e+03
2.407693e+03,1.484044e+03
2.410585e+03,1.496531e+03
2.413478e+03,1.473752e+03
2.416371e+03,1.473849e+03
2.419263e+03,1.455885e+03
2.422156e+03,1.489725e+03
2.425049e+03,1.473614e+03
2.427941e+03,1.450986e+03
2.430834e+03,1.458970e+03
2.433727e+03,1.447140e+03
2.436620e+03,1.465333e+03
2.439512e+03,1.453038e+03
2.442405e+03,1.447148e+03
2.445298e+03,1.441858e+03
2.448190e+03,1.450789e+03
2.451083e+03,1.452575e+03
2.453976e+03,1.443946e+03
2.456868e+03,1.436410e+03
2.459761e+03,1.438177e+03
2.462654e+03,1.436541e+03
2.465547e+03,1.420080e+03
2.468439e+03,1.422305e+03
2.471332e+03,1.422645e+03
2.474225e+03,1.404494e+03
2.477117e+03,1.418940e+03
2.480010e+03,1.429456e+03
2.482903e+03,1.415207e+03
2.485795e+03,1.416427e+03
2.488688e+03,1.417804e+03
2.491581e+03,1.413088e+03
2.494474e+03,1.393479e+03
2.497366e+03,1.411996e+03
2.500259e+03,1.395283e+03
2.503152e+03,1.404531e+03
2.506044e+03,1.400569e+03
2.508937e+03,1.375604e+03
2.511830e+03,1.388041e+03
2.514722e+03,1.405964e+03
2.517615e+03,1.387553e+03
2.520508e+03,1.380489e+03
2.523401e+03,1.375540e+03
2.526293e+03,1.388168e+03
2.529186e+03,1.371313e+03
2.532079e+03,1.388456e+03
2.534971e+03,1.353343e+03
2.537864e+03,1.360870e+03
2.540757e+03,1.370246e+03
2.543649e+03,1.374194e+03
2.546542e+03,1.379553e+03
2.549435e+03,1.366458e+03
2.552328e+03,1.380038e+03
2.555220e+03,1.351823e+03
2.558113e+03,1.347604e+03
2.561006e+03,1.353233e+03
2.563898e+03,1.345845e+03
2.566791e+03,1.342711e+03
2.569684e+03,1.366076e+03
2.572576e+03,1.346607e+03
2.575469e+03,1.357907e+03
2.578362e+03,1.340711e+03
2.581255e+03,1.346252e+03
2.584147e+03,1.339654e+03
2.587040e+03,1.322405e+03
2.589933e+03,1.334356e+03
2.592825e+03,1.320537e+03
2.595718e+03,1.311619e+03
2.598611e+03,1.328355e+03
2.601503e+03,1.314252e+03
2.604396e+03,1.325673e+03
2.607289e+03,1.322496e+03
2.610182e+03,1.317099e+03
2.613074e+03,1.310981e+03
2.615967e+03,1.309077e+03
2.618860e+03,1.317720e+03
2.621752e+03,1.317510e+03
2.624645e+03,1.309894e+03
2.627538e+03,1.310320e+03
2.630430e+03,1.308210e+03
2.633323e+03,1.297178e+03
2.636216e+03,1.302977e+03
2.639109e+03,1.315567e+03
2.642001e+03,1.282270e+03
2.644894e+03,1.310307e+03
2.647787e+03,1.279732e+03
2.650679e+03,1.296626e+03
2.653572e+03,1.281464e+03
2.656465e+03,1.275001e+03
2.659357e+03,1.280011e+03
2.662250e+03,1.275500e+03
2.665143e+03,1.275952e+03
2.668036e+03,1.266442e+03
2.670928e+03,1.267604e+03
2.673821e+03,1.275085e+03
2.676714e+03,1.256979e+03
2.679606e+03,1.271815e+03
2.682499e+03,1.263155e+03
2.685392e+03,1.257563e+03
2.688284e+03,1.248840e+03
2.691177e+03,1.256602e+03
2.694070e+03,1.243567e+03
2.696963e+03,1.265381e+03
2.699855e+03,1.279871e+03
2.702748e+03,1.233945e+03
2.705641e+03,1.244959e+03
2.708533e+03,1.249288e+03
2.711426e+03,1.238713e+03
2.714319e+03,1.236178e+03
2.717211e+03,1.264324e+03
2.720104e+03,1.231236e+03
2.722997e+03,1.224105e+03
2.725890e+03,1.245617e+03
2.728782e+03,1.235697e+03
2.731675e+03,1.215356e+03
2.734568e+03,1.225447e+03
2.737460e+03,1.236830e+03
2.740353e+03,1.218920e+03
2.743246e+03,1.241966e+03
2.746138e+03,1.224580e+03
2.749031e+03,1.243075e+03
2.751924e+03,1.209197e+03
2.754817e+03,1.222700e+03
2.757709e+03,1.197532e+03
2.760602e+03,1.209689e+03
2.763495e+03,1.215932e+03
2.766387e+03,1.222296e+03
2.769280e+03,1.212652e+03
2.772173e+03,1.231953e+03
2.775065e+03,1.198732e+03
2.777958e+03,1.215488e+03
2.780851e+03,1.195212e+03
2.783744e+03,1.197772e+03
2.786636e+03,1.199029e+03
2.789529e+03,1.185979e+03
2.792422e+03,1.176680e+03
2.795314e+03,1.176073e+03
2.798207e+03,1.175058e+03
2.801100e+03,1.175707e+03
2.803992e+03,1.179037e+03
2.806885e+03,1.170849e+03
2.809778e+03,1.201240e+03
2.812671e+03,1.162027e+03
2.815563e+03,1.157080e+03
2.818456e+03,1.188388e+03
2.821349e+03,1.176929e+03
2.824241e+03,1.170718e+03
2.827134e+03,1.176783e+03
2.830027e+03,1.194294e+03
2.832919e+03,1.158488e+03
2.835812e+03,1.178429e+03
2.838705e+03,1.176344e+03
2.841598e+03,1.175958e+03
2.844490e+03,1.168640e+03
2.847383e+03,1.151774e+03
2.850276e+03,1.168119e+03
2.853168e+03,1.159418e+03
2.856061e+03,1.154602e+03
2.858954e+03,1.162584e+03
2.861846e+03,1.200720e+03
2.864739e+03,1.158327e+03
2.867632e+03,1.150404e+03
2.870525e+03,1.167970e+03
2.873417e+03,1.164573e+03
2.876310e+03,1.176291e+03
2.879203e+03,1.160816e+03
2.882095e+03,1.156840e+03
2.884988e+03,1.190585e+03
2.887881e+03,1.138052e+03
2.890773e+03,1.142459e+03
2.893666e+03,1.138639e+03
2.896559e+03,1.162323e+03
2.899452e+03,1.148322e+03
2.902344e+03,1.148663e+03
2.905237e+03,1.138907e+03
2.908130e+03,1.124736e+03
2.911022e+03,1.147530e+03
2.913915e+03,1.151342e+03
2.916808e+03,1.138163e+03
2.919700e+03,1.135435e+03
2.922593e+03,1.132115e+03
2.925486e+03,1.149265e+03
2.928379e+03,1.155477e+03
2.931271e+03,1.116175e+03
2.934164e+03,1.145736e+03
2.937057e+03,1.111597e+03
2.939949e+03,1.122672e+03
2.942842e+03,1.149765e+03
2.945735e+03,1.133508e+03
2.948627e+03,1.127396e+03
2.951520e+03,1.128881e+03
2.954413e+03,1.100470e+03
2.957306e+03,1.131071e+03
2.960198e+03,1.125430e+03
2.963091e+03,1.111364e+03
2.965984e+03,1.127328e+03
2.968876e+03,1.104363e+03
2.971769e+03,1.084266e+03
2.974662e+03,1.120707e+03
2.977554e+03,1.084227e+03
2.980447e+03,1.093582e+03
2.983340e+03,1.102668e+03
2.986233e+03,1.092151e+03
2.989125e+03,1.079764e+03
2.992018e+03,1.088238e+03
2.994911e+03,1.091786e+03
2.997803e+03,1.113615e+03
3.000696e+03,1.115948e+03
3.003589e+03,1.066965e+03
3.006481e+03,1.098302e+03
3.009374e+03,1.088280e+03
3.012267e+03,1.104728e+03
3.015160e+03,1.074295e+03
3.018052e+03,1.034429e+03
3.020945e+03,1.060037e+03
3.023838e+03,1.071682e+03
3.026730e+03,1.050952e+03
3.029623e+03,1.077037e+03
3.032516e+03,1.102096e+03
3.035408e+03,1.040117e+03
3.038301e+03,1.066722e+03
3.041194e+03,1.067120e+03
3.044087e+03,1.078404e+03
3.046979e+03,1.065315e+03
3.049872e+03,1.067008e+03
3.052765e+03,1.051156e+03
3.055657e+03,1.047932e+03
3.058550e+03,1.070456e+03
3.061443e+03,1.077083e+03
3.064335e+03,1.041161e+03
3.067228e+03,1.047191e+03
3.070121e+03,1.049598e+03
3.073014e+03,1.044960e+03
3.075906e+03,1.058199e+03
3.078799e+03,1.073959e+03
3.081692e+03,1.056237e+03
3.084584e+03,1.047094e+03
3.087477e+03,1.022362e+03
3.090370e+03,1.087786e+03
3.093262e+03,1.047983e+03
3.096155e+03,1.082172e+03
3.099048e+03,1.061322e+03
3.101941e+03,1.043782e+03
3.104833e+03,1.073720e+03
3.107726e+03,1.081091e+03
3.110619e+03,1.046249e+03
3.113511e+03,1.035818e+03
3.116404e+03,1.062784e+03
3.119297e+03,1.031007e+03
3.122189e+03,1.062250e+03
3.125082e+03,1.048232e+03
3.127975e+03,1.044281e+03
3.130868e+03,1.027928e+03
3.133760e+03,1.032012e+03
3.136653e+03,1.055612e+03
3.139546e+03,1.056541e+03
3.142438e+03,1.030975e+03
3.145331e+03,1.016370e+03
3.148224e+03,1.045344e+03
3.151116e+03,1.023808e+03
3.154009e+03,1.121055e+03
3.156902e+03,1.061822e+03
3.159795e+03,1.045392e+03
3.162687e+03,1.028675e+03
3.165580e+03,1.057728e+03
3.168473e+03,1.064526e+03
3.171365e+03,1.059380e+03
3.174258e+03,1.036697e+03
3.177151e+03,1.030943e+03
3.180043e+03,1.033609e+03
3.182936e+03,1.070669e+03
3.185829e+03,1.029273e+03
3.188722e+03,1.037363e+03
3.191614e+03,1.024948e+03
3.194507e+03,1.041439e+03
3.197400e+03,9.976246e+02
3.200292e+03,1.045052e+03
3.203185e+03,0.000000e+00
3.206078e+03,0.000000e+00
3.208970e+03,0.000000e+00
3.211863e+03,0.000000e+00
3.214756e+03,0.000000e+00
3.217649e+03,0.000000e+00
3.220541e+03,0.000000e+00
3.223434e+03,0.000000e+00
3.226327e+03,0.000000e+00
3.229219e+03,0.000000e+00
3.232112e+03,0.000000e+00
3.235005e+03,0.000000e+00
3.237897e+03,0.000000e+00
3.240790e+03,0.000000e+00
3.243683e+03,0.000000e+00
3.246576e+03,0.000000e+00
3.249468e+03,0.000000e+00
3.252361e+03,0.000000e+00
3.255254e+03,0.000000e+00
3.258146e+03,0.000000e+00
3.261039e+03,0.000000e+00
3.263932e+03,0.000000e+00
3.266824e+03,0.000000e+00
3.269717e+03,0.000000e+00
3.272610e+03,0.000000e+00
3.275503e+03,0.000000e+00
3.278395e+03,0.000000e+00
3.281288e+03,0.000000e+00
3.284181e+03,0.000000e+00
3.287073e+03,0.000000e+00
3.289966e+03,0.000000e+00
3.292859e+03,0.000000e+00
3.295751e+03,0.000000e+00
3.298644e+03,0.000000e+00
3.301537e+03,0.000000e+00
3.304430e+03,0.000000e+00
3.307322e+03,0.000000e+00
3.310215e+03,0.000000e+00
3.313108e+03,0.000000e+00
3.316000e+03,0.000000e+00
3.318893e+03,0.000000e+00
3.321786e+03,0.000000e+00
3.324678e+03,0.000000e+00
3.327571e+03,0.000000e+00
3.330464e+03,0.000000e+00
3.333357e+03,0.000000e+00
3.336249e+03,0.000000e+00
3.339142e+03,0.000000e+00
3.342035e+03,0.000000e+00
3.344927e+03,0.000000e+00
3.347820e+03,0.000000e+00
3.350713e+03,0.000000e+00
3.353605e+03,0.000000e+00
3.356498e+03,0.000000e+00
3.359391e+03,0.000000e+00
3.362284e+03,0.000000e+00
3.365176e+03,0.000000e+00
3.368069e+03,0.000000e+00
3.370962e+03,0.000000e+00
3.373854e+03,0.000000e+00
3.376747e+03,0.000000e+00
3.379640e+03,0.000000e+00
3.382532e+03,0.000000e+00
3.385425e+03,0.000000e+00
3.388318e+03,0.000000e+00
3.391211e+03,0.000000e+00
3.394103e+03,0.000000e+00
3.396996e+03,0.000000e+00
3.399889e+03,0.000000e+00
3.402781e+03,0.000000e+00
3.405674e+03,0.000000e+00
3.408567e+03,0.000000e+00
3.411459e+03,0.000000e+00
3.414352e+03,0.000000e+00
3.417245e+03,0.000000e+00
3.420138e+03,0.000000e+00
3.423030e+03,0.000000e+00
3.425923e+03,0.000000e+00
3.428816e+03,0.000000e+00
3.431708e+03,0.000000e+00
3.434601e+03,0.000000e+00
3.437494e+03,0.000000e+00
3.440386e+03,0.000000e+00
3.443279e+03,0.000000e+00
3.446172e+03,0.000000e+00
3.449065e+03,0.000000e+00
3.451957e+03,0.000000e+00
3.454850e+03,0.000000e+00
3.457743e+03,0.000000e+00
3.460635e+03,0.000000e+00
3.463528e+03,0.000000e+00
3.466421e+03,0.000000e+00
3.469313e+03,0.000000e+00
3.472206e+03,0.000000e+00
3.475099e+03,0.000000e+00
3.477992e+03,0.000000e+00
3.480884e+03,0.000000e+00
3.483777e+03,0.000000e+00
3.486670e+03,0.000000e+00
3.489563e+03,0.000000e+00
3.492455e+03,0.000000e+00
3.495348e+03,0.000000e+00
3.498240e+03,0.000000e+00
3.500169e+03,0.000000e+00