File: RAMAN_data/20012023_r3/black fibre1.CSV
9.931763e+01,0.000000e+00
1.022103e+02,0.000000e+00
1.051030e+02,0.000000e+00
1.079957e+02,0.000000e+00
1.108884e+02,0.000000e+00
1.137811e+02,0.000000e+00
1.166738e+02,0.000000e+00
1.195665e+02,0.000000e+00
1.224592e+02,0.000000e+00
1.253519e+02,0.000000e+00
1.282446e+02,0.000000e+00
1.311373e+02,0.000000e+00
1.340300e+02,0.000000e+00
1.369227e+02,0.000000e+00
1.398154e+02,0.000000e+00
1.427081e+02,0.000000e+00
1.456008e+02,0.000000e+00
1.484935e+02,0.000000e+00
1.513862e+02,0.000000e+00
1.542789e+02,0.000000e+00
1.571716e+02,0.000000e+00
1.600643e+02,0.000000e+00
1.629570e+02,0.000000e+00
1.658497e+02,0.000000e+00
1.687424e+02,0.000000e+00
1.716351e+02,0.000000e+00
1.745278e+02,0.000000e+00
1.774205e+02,0.000000e+00
1.803132e+02,0.000000e+00
1.832059e+02,0.000000e+00
1.860986e+02,0.000000e+00
1.889913e+02,0.000000e+00
1.918840e+02,0.000000e+00
1.947767e+02,0.000000e+00
1.976694e+02,0.000000e+00
2.005621e+02,2.035935e+03
2.034548e+02,2.049811e+03
2.063475e+02,2.056726e+03
2.092402e+02,2.047926e+03
2.121329e+02,2.036772e+03
2.150256e+02,2.035928e+03
2.179183e+02,2.056483e+03
2.208110e+02,2.051432e+03
2.237037e+02,2.038944e+03
2.265964e+02,2.044450e+03
2.294892e+02,2.044386e+03
2.323819e+02,2.048164e+03
2.352746e+02,2.045665e+03
2.381673e+02,2.045867e+03
2.410600e+02,2.033370e+03
2.439527e+02,2.043634e+03
2.468454e+02,2.045604e+03
2.497381e+02,2.040015e+03
2.526308e+02,2.043519e+03
2.555235e+02,2.049490e+03
2.584161e+02,2.042184e+03
2.613088e+02,2.042918e+03
2.642015e+02,2.058192e+03
2.670942e+02,2.057796e+03
2.699869e+02,2.054885e+03
2.728796e+02,2.051959e+03
2.757723e+02,2.051429e+03
2.786650e+02,2.061165e+03
2.815577e+02,2.062226e+03
2.844504e+02,2.057219e+03
2.873431e+02,2.051348e+03
2.902358e+02,2.046305e+03
2.931285e+02,2.048615e+03
2.960212e+02,2.044647e+03
2.989139e+02,2.059998e+03
3.018066e+02,2.057645e+03
3.046993e+02,2.046854e+03
3.075920e+02,2.048066e+03
3.104847e+02,2.051774e+03
3.133774e+02,2.055327e+03
3.162701e+02,2.048337e+03
3.191628e+02,2.036813e+03
3.220555e+02,2.037019e+03
3.249482e+02,2.050161e+03
3.278409e+02,2.051751e+03
3.307336e+02,2.036896e+03
3.336263e+02,2.038162e+03
3.365190e+02,2.043194e+03
3.394117e+02,2.040467e+03
3.423044e+02,2.036311e+03
3.451971e+02,2.050879e+03
3.480898e+02,2.025526e+03
3.509825e+02,2.033430e+03
3.538752e+02,2.037670e+03
3.567680e+02,2.028055e+03
3.596607e+02,2.026837e+03
3.625534e+02,2.029029e+03
3.654461e+02,2.034784e+03
3.683388e+02,2.035738e+03
3.712315e+02,2.041674e+03
3.741242e+02,2.045729e+03
3.770169e+02,2.050310e+03
3.799096e+02,2.039590e+03
3.828023e+02,2.023166e+03
3.856950e+02,2.021146e+03
3.885877e+02,2.015947e+03
3.914804e+02,2.016472e+03
3.943731e+02,2.011998e+03
3.972658e+02,2.001656e+03
4.001585e+02,2.003161e+03
4.030512e+02,2.005615e+03
4.059439e+02,2.005828e+03
4.088366e+02,2.007326e+03
4.117293e+02,1.998534e+03
4.146220e+02,1.996302e+03
4.175147e+02,2.006291e+03
4.204074e+02,2.006253e+03
4.233001e+02,2.008168e+03
4.261928e+02,1.988679e+03
4.290855e+02,2.009486e+03
4.319782e+02,2.007105e+03
4.348709e+02,1.998952e+03
4.377636e+02,1.997442e+03
4.406563e+02,1.993989e+03
4.435490e+02,1.985953e+03
4.464417e+02,1.973448e+03
4.493344e+02,1.969534e+03
4.522271e+02,1.988921e+03
4.551198e+02,1.986886e+03
4.580125e+02,1.986128e+03
4.609052e+02,1.988346e+03
4.637979e+02,1.979436e+03
4.666906e+02,1.964241e+03
4.695833e+02,1.957661e+03
4.724760e+02,1.963792e+03
4.753687e+02,1.952803e+03
4.782614e+02,1.946479e+03
4.811541e+02,1.954664e+03
4.840468e+02,1.950274e+03
4.869395e+02,1.952382e+03
4.898322e+02,1.936799e+03
4.927249e+02,1.929729e+03
4.956176e+02,1.939263e+03
4.985103e+02,1.948858e+03
5.014030e+02,1.937303e+03
5.042957e+02,1.932525e+03
5.071884e+02,1.941709e+03
5.100811e+02,1.945293e+03
5.129738e+02,1.940090e+03
5.158665e+02,1.949454e+03
5.187592e+02,1.941032e+03
5.216519e+02,1.931402e+03
5.245446e+02,1.916921e+03
5.274373e+02,1.925612e+03
5.303300e+02,1.922678e+03
5.332227e+02,1.920763e+03
5.361154e+02,1.910922e+03
5.390081e+02,1.921079e+03
5.419008e+02,1.893324e+03
5.447935e+02,1.902889e+03
5.476862e+02,1.918911e+03
5.505789e+02,1.900279e+03
5.534716e+02,1.887475e+03
5.563643e+02,1.894503e+03
5.592570e+02,1.900544e+03
5.621497e+02,1.892113e+03
5.650424e+02,1.886402e+03
5.679351e+02,1.883215e+03
5.708278e+02,1.868816e+03
5.737205e+02,1.870100e+03
5.766132e+02,1.872674e+03
5.795059e+02,1.866289e+03
5.823986e+02,1.870625e+03
5.852913e+02,1.868992e+03
5.881840e+02,1.863625e+03
5.910767e+02,1.876305e+03
5.939694e+02,1.879405e+03
5.968621e+02,1.866791e+03
5.997548e+02,1.876289e+03
6.026475e+02,1.864409e+03
6.055402e+02,1.857992e+03
6.084329e+02,1.858347e+03
6.113256e+02,1.845973e+03
6.142183e+02,1.848595e+03
6.171110e+02,1.842929e+03
6.200037e+02,1.847534e+03
6.228964e+02,1.840305e+03
6.257891e+02,1.836025e+03
6.286818e+02,1.848979e+03
6.315745e+02,1.848399e+03
6.344672e+02,1.837296e+03
6.373599e+02,1.834464e+03
6.402526e+02,1.826962e+03
6.431453e+02,1.816049e+03
6.460380e+02,1.818559e+03
6.489307e+02,1.824572e+03
6.518234e+02,1.817623e+03
6.547161e+02,1.800808e+03
6.576088e+02,1.806236e+03
6.605015e+02,1.806661e+03
6.633942e+02,1.793740e+03
6.662869e+02,1.804891e+03
6.691796e+02,1.802842e+03
6.720723e+02,1.796432e+03
6.749650e+02,1.786608e+03
6.778577e+02,1.783783e+03
6.807504e+02,1.792700e+03
6.836431e+02,1.778436e+03
6.865358e+02,1.780187e+03
6.894285e+02,1.783955e+03
6.923212e+02,1.775940e+03
6.952139e+02,1.776690e+03
6.981066e+02,1.775537e+03
7.009993e+02,1.769254e+03
7.038920e+02,1.769285e+03
7.067847e+02,1.771374e+03
7.096774e+02,1.756526e+03
7.125701e+02,1.777493e+03
7.154628e+02,1.753139e+03
7.183555e+02,1.752945e+03
7.212482e+02,1.752263e+03
7.241409e+02,1.758559e+03
7.270336e+02,1.764684e+03
7.299263e+02,1.751710e+03
7.328190e+02,1.752217e+03
7.357117e+02,1.740900e+03
7.386044e+02,1.739330e+03
7.414971e+02,1.737312e+03
7.443898e+02,1.721128e+03
7.472825e+02,1.737776e+03
7.501752e+02,1.721144e+03
7.530679e+02,1.723001e+03
7.559606e+02,1.721680e+03
7.588533e+02,1.719812e+03
7.617460e+02,1.723946e+03
7.646387e+02,1.702897e+03
7.675314e+02,1.707539e+03
7.704241e+02,1.696847e+03
7.733168e+02,1.691456e+03
7.762095e+02,1.702394e+03
7.791022e+02,1.715734e+03
7.819949e+02,1.694868e+03
7.848876e+02,1.686331e+03
7.877803e+02,1.668995e+03
7.906730e+02,1.682925e+03
7.935657e+02,1.690250e+03
7.964584e+02,1.690766e+03
7.993511e+02,1.674762e+03
8.022438e+02,1.678781e+03
8.051365e+02,1.666609e+03
8.080292e+02,1.675601e+03
8.109219e+02,1.678646e+03
8.138146e+02,1.664079e+03
8.167073e+02,1.676306e+03
8.196000e+02,1.655851e+03
8.224927e+02,1.663917e+03
8.253854e+02,1.658503e+03
8.282781e+02,1.651148e+03
8.311708e+02,1.655270e+03
8.340635e+02,1.654083e+03
8.369562e+02,1.637240e+03
8.398489e+02,1.638281e+03
8.427416e+02,1.651401e+03
8.456343e+02,1.645745e+03
8.485270e+02,1.636770e+03
8.514197e+02,1.639967e+03
8.543124e+02,1.645348e+03
8.572051e+02,1.643289e+03
8.600978e+02,1.624841e+03
8.629905e+02,1.630989e+03
8.658832e+02,1.626757e+03
8.687759e+02,1.629203e+03
8.716686e+02,1.613140e+03
8.745613e+02,1.613185e+03
8.774540e+02,1.615163e+03
8.803467e+02,1.612251e+03
8.832394e+02,1.610848e+03
8.861321e+02,1.617880e+03
8.890248e+02,1.603663e+03
8.919175e+02,1.598448e+03
8.948102e+02,1.595467e+03
8.977029e+02,1.582046e+03
9.005956e+02,1.583516e+03
9.034883e+02,1.592234e+03
9.063810e+02,1.578944e+03
9.092737e+02,1.576904e+03
9.121664e+02,1.577877e+03
9.150591e+02,1.575573e+03
9.179518e+02,1.569932e+03
9.208445e+02,1.562179e+03
9.237372e+02,1.559156e+03
9.266299e+02,1.560350e+03
9.295226e+02,1.559083e+03
9.324153e+02,1.566451e+03
9.353080e+02,1.544743e+03
9.382007e+02,1.541999e+03
9.410934e+02,1.546411e+03
9.439861e+02,1.546128e+03
9.468788e+02,1.530293e+03
9.497715e+02,1.536909e+03
9.526642e+02,1.535202e+03
9.555569e+02,1.531620e+03
9.584496e+02,1.523337e+03
9.613423e+02,1.528877e+03
9.642350e+02,1.523088e+03
9.671277e+02,1.524562e+03
9.700204e+02,1.528653e+03
9.729131e+02,1.506435e+03
9.758058e+02,1.512063e+03
9.786985e+02,1.510155e+03
9.815912e+02,1.509291e+03
9.844839e+02,1.523485e+03
9.873766e+02,1.501371e+03
9.902693e+02,1.500782e+03
9.931620e+02,1.505531e+03
9.960547e+02,1.506911e+03
9.989474e+02,1.502601e+03
1.001840e+03,1.494085e+03
1.004733e+03,1.478661e+03
1.007626e+03,1.484143e+03
1.010518e+03,1.489731e+03
1.013411e+03,1.470674e+03
1.016304e+03,1.476375e+03
1.019196e+03,1.478844e+03
1.022089e+03,1.472891e+03
1.024982e+03,1.478939e+03
1.027875e+03,1.474317e+03
1.030767e+03,1.471110e+03
1.033660e+03,1.472407e+03
1.036552e+03,1.470041e+03
1.039445e+03,1.470965e+03
1.042338e+03,1.457716e+03
1.045231e+03,1.454602e+03
1.048123e+03,1.457939e+03
1.051016e+03,1.458623e+03
1.053909e+03,1.469730e+03
1.056802e+03,1.453285e+03
1.059694e+03,1.460912e+03
1.062587e+03,1.449374e+03
1.065479e+03,1.461027e+03
1.068372e+03,1.460042e+03
1.071265e+03,1.461194e+03
1.074158e+03,1.469309e+03
1.077050e+03,1.468705e+03
1.079943e+03,1.467832e+03
1.082836e+03,1.474049e+03
1.085729e+03,1.466048e+03
1.088621e+03,1.484313e+03
1.091514e+03,1.493859e+03
1.094406e+03,1.499145e+03
1.097299e+03,1.482316e+03
1.100192e+03,1.466934e+03
1.103085e+03,1.455723e+03
1.105977e+03,1.455028e+03
1.108870e+03,1.449377e+03
1.111763e+03,1.440674e+03
1.114656e+03,1.452155e+03
1.117548e+03,1.464980e+03
1.120441e+03,1.452407e+03
1.123334e+03,1.437269e+03
1.126226e+03,1.428439e+03
1.129119e+03,1.422645e+03
1.132012e+03,1.433176e+03
1.134904e+03,1.424119e+03
1.137797e+03,1.415996e+03
1.140690e+03,1.420880e+03
1.143583e+03,1.414342e+03
1.146475e+03,1.425849e+03
1.149368e+03,1.423870e+03
1.152261e+03,1.427912e+03
1.155153e+03,1.428595e+03
1.158046e+03,1.425204e+03
1.160939e+03,1.427931e+03
1.163831e+03,1.428991e+03
1.166724e+03,1.412345e+03
1.169617e+03,1.407043e+03
1.172510e+03,1.399616e+03
1.175402e+03,1.389117e+03
1.178295e+03,1.386307e+03
1.181188e+03,1.374121e+03
1.184080e+03,1.368268e+03
1.186973e+03,1.364583e+03
1.189866e+03,1.362177e+03
1.192758e+03,1.352826e+03
1.195651e+03,1.368363e+03
1.198544e+03,1.371290e+03
1.201437e+03,1.350248e+03
1.204329e+03,1.345801e+03
1.207222e+03,1.353951e+03
1.210115e+03,1.354838e+03
1.213007e+03,1.353492e+03
1.215900e+03,1.333797e+03
1.218793e+03,1.330167e+03
1.221685e+03,1.334589e+03
1.224578e+03,1.329365e+03
1.227471e+03,1.326756e+03
1.230364e+03,1.320528e+03
1.233256e+03,1.318386e+03
1.236149e+03,1.316550e+03
1.239042e+03,1.315696e+03
1.241934e+03,1.310944e+03
1.244827e+03,1.309279e+03
1.247720e+03,1.305218e+03
1.250612e+03,1.313471e+03
1.253505e+03,1.310328e+03
1.256398e+03,1.294490e+03
1.259291e+03,1.304197e+03
1.262183e+03,1.310611e+03
1.265076e+03,1.304288e+03
1.267969e+03,1.294699e+03
1.270861e+03,1.314043e+03
1.273754e+03,1.313560e+03
1.276647e+03,1.323374e+03
1.279539e+03,1.309400e+03
1.282432e+03,1.317127e+03
1.285325e+03,1.327230e+03
1.288218e+03,1.323988e+03
1.291110e+03,1.324963e+03
1.294003e+03,1.321391e+03
1.296896e+03,1.306246e+03
1.299788e+03,1.319021e+03
1.302681e+03,1.309761e+03
1.305574e+03,1.331307e+03
1.308466e+03,1.308808e+03
1.311359e+03,1.328914e+03
1.314252e+03,1.334652e+03
1.317145e+03,1.320320e+03
1.320037e+03,1.329898e+03
1.322930e+03,1.337611e+03
1.325823e+03,1.330840e+03
1.328715e+03,1.336319e+03
1.331608e+03,1.320883e+03
1.334501e+03,1.318472e+03
1.337393e+03,1.321622e+03
1.340286e+03,1.308299e+03
1.343179e+03,1.293223e+03
1.346072e+03,1.283156e+03
1.348964e+03,1.287945e+03
1.351857e+03,1.279030e+03
1.354750e+03,1.266510e+03
1.357642e+03,1.264608e+03
1.360535e+03,1.251782e+03
1.363428e+03,1.255384e+03
1.366320e+03,1.262213e+03
1.369213e+03,1.252636e+03
1.372106e+03,1.244372e+03
1.374999e+03,1.253672e+03
1.377891e+03,1.249340e+03
1.380784e+03,1.249745e+03
1.383677e+03,1.245071e+03
1.386569e+03,1.234725e+03
1.389462e+03,1.234910e+03
1.392355e+03,1.228313e+03
1.395247e+03,1.221265e+03
1.398140e+03,1.218447e+03
1.401033e+03,1.217296e+03
1.403926e+03,1.210198e+03
1.406818e+03,1.207411e+03
1.409711e+03,1.214022e+03
1.412604e+03,1.202601e+03
1.415496e+03,1.216079e+03
1.418389e+03,1.196008e+03
1.421282e+03,1.203654e+03
1.424174e+03,1.205124e+03
1.427067e+03,1.198468e+03
1.429960e+03,1.185922e+03
1.432853e+03,1.188902e+03
1.435745e+03,1.186744e+03
1.438638e+03,1.179355e+03
1.441531e+03,1.172822e+03
1.444423e+03,1.190484e+03
1.447316e+03,1.169217e+03
1.450209e+03,1.170820e+03
1.453101e+03,1.178847e+03
1.455994e+03,1.171319e+03
1.458887e+03,1.162556e+03
1.461780e+03,1.165045e+03
1.464672e+03,1.156731e+03
1.467565e+03,1.150584e+03
1.470458e+03,1.156854e+03
1.473350e+03,1.156903e+03
1.476243e+03,1.148353e+03
1.479136e+03,1.143932e+03
1.482028e+03,1.146494e+03
1.484921e+03,1.137302e+03
1.487814e+03,1.138097e+03
1.490707e+03,1.130234e+03
1.493599e+03,1.129268e+03
1.496492e+03,1.132341e+03
1.499385e+03,1.130555e+03
1.502277e+03,1.127995e+03
1.505170e+03,1.123061e+03
1.508063e+03,1.124190e+03
1.510955e+03,1.121696e+03
1.513848e+03,1.119141e+03
1.516741e+03,1.127532e+03
1.519634e+03,1.117238e+03
1.522526e+03,1.121435e+03
1.525419e+03,1.110657e+03
1.528312e+03,1.108186e+03
1.531204e+03,1.110330e+03
1.534097e+03,1.106214e+03
1.536990e+03,1.104267e+03
1.539882e+03,1.101102e+03
1.542775e+03,1.095230e+03
1.545668e+03,1.095441e+03
1.548561e+03,1.098215e+03
1.551453e+03,1.101470e+03
1.554346e+03,1.099118e+03
1.557239e+03,1.097598e+03
1.560131e+03,1.098994e+03
1.563024e+03,1.101970e+03
1.565917e+03,1.095660e+03
1.568809e+03,1.105877e+03
1.571702e+03,1.103525e+03
1.574595e+03,1.112654e+03
1.577488e+03,1.111229e+03
1.580380e+03,1.111560e+03
1.583273e+03,1.102696e+03
1.586166e+03,1.097696e+03
1.589058e+03,1.088159e+03
1.591951e+03,1.076682e+03
1.594844e+03,1.079621e+03
1.597736e+03,1.072186e+03
1.600629e+03,1.077205e+03
1.603522e+03,1.087258e+03
1.606415e+03,1.092634e+03
1.609307e+03,1.107633e+03
1.612200e+03,1.124564e+03
1.615093e+03,1.117417e+03
1.617985e+03,1.101334e+03
1.620878e+03,1.071095e+03
1.623771e+03,1.056612e+03
1.626663e+03,1.046762e+03
1.629556e+03,1.052812e+03
1.632449e+03,1.050026e+03
1.635342e+03,1.029347e+03
1.638234e+03,1.022357e+03
1.641127e+03,1.025756e+03
1.644020e+03,1.023534e+03
1.646912e+03,1.019974e+03
1.649805e+03,1.020910e+03
1.652698e+03,1.014545e+03
1.655590e+03,1.005198e+03
1.658483e+03,1.018733e+03
1.661376e+03,1.013043e+03
1.664269e+03,9.987718e+02
1.667161e+03,9.995145e+02
1.670054e+03,9.965922e+02
1.672947e+03,1.003323e+03
1.675839e+03,9.925361e+02
1.678732e+03,9.879056e+02
1.681625e+03,9.948619e+02
1.684517e+03,9.891983e+02
1.687410e+03,9.872267e+02
1.690303e+03,9.876021e+02
1.693196e+03,9.911678e+02
1.696088e+03,9.805397e+02
1.698981e+03,9.734207e+02
1.701874e+03,9.797715e+02
1.704766e+03,9.780303e+02
1.707659e+03,9.703431e+02
1.710552e+03,9.777382e+02
1.713444e+03,9.905666e+02
1.716337e+03,9.762590e+02
1.719230e+03,9.843535e+02
1.722123e+03,9.996357e+02
1.725015e+03,1.000896e+03
1.727908e+03,9.858108e+02
1.730801e+03,9.854503e+02
1.733693e+03,9.812524e+02
1.736586e+03,9.609464e+02
1.739479e+03,9.571262e+02
1.742371e+03,9.523234e+02
1.745264e+03,9.516435e+02
1.748157e+03,9.381682e+02
1.751050e+03,9.363998e+02
1.753942e+03,9.366815e+02
1.756835e+03,9.373837e+02
1.759728e+03,9.273307e+02
1.762620e+03,9.119289e+02
1.765513e+03,9.270040e+02
1.768406e+03,9.331287e+02
1.771298e+03,9.200342e+02
1.774191e+03,9.126436e+02
1.777084e+03,9.110899e+02
1.779977e+03,9.166994e+02
1.782869e+03,9.111301e+02
1.785762e+03,9.139866e+02
1.788655e+03,8.988795e+02
1.791547e+03,8.995986e+02
1.794440e+03,8.870916e+02
1.797333e+03,8.951865e+02
1.800225e+03,9.049643e+02
1.803118e+03,9.008479e+02
1.806011e+03,8.853702e+02
1.808904e+03,8.981776e+02
1.811796e+03,8.913299e+02
1.814689e+03,8.809496e+02
1.817582e+03,8.799775e+02
1.820474e+03,8.838927e+02
1.823367e+03,8.722438e+02
1.826260e+03,8.793015e+02
1.829152e+03,8.778342e+02
1.832045e+03,8.709187e+02
1.834938e+03,8.807278e+02
1.837831e+03,8.733641e+02
1.840723e+03,8.621416e+02
1.843616e+03,8.608662e+02
1.846509e+03,8.603406e+02
1.849401e+03,8.652559e+02
1.852294e+03,8.521844e+02
1.855187e+03,8.571369e+02
1.858079e+03,8.540370e+02
1.860972e+03,8.529765e+02
1.863865e+03,8.543619e+02
1.866758e+03,8.494705e+02
1.869650e+03,8.368859e+02
1.872543e+03,8.402277e+02
1.875436e+03,8.477500e+02
1.878328e+03,8.323651e+02
1.881221e+03,8.288265e+02
1.884114e+03,8.342267e+02
1.887006e+03,8.274357e+02
1.889899e+03,8.166703e+02
1.892792e+03,8.198611e+02
1.895685e+03,8.112643e+02
1.898577e+03,8.157897e+02
1.901470e+03,8.132371e+02
1.904363e+03,8.004377e+02
1.907255e+03,8.070310e+02
1.910148e+03,8.176601e+02
1.913041e+03,8.098674e+02
1.915933e+03,8.138695e+02
1.918826e+03,7.956309e+02
1.921719e+03,8.002507e+02
1.924612e+03,8.025673e+02
1.927504e+03,7.932556e+02
1.930397e+03,7.976830e+02
1.933290e+03,7.978988e+02
1.936182e+03,7.811475e+02
1.939075e+03,7.872675e+02
1.941968e+03,7.794695e+02
1.944860e+03,7.804020e+02
1.947753e+03,7.730580e+02
1.950646e+03,7.712927e+02
1.953539e+03,7.679723e+02
1.956431e+03,7.876513e+02
1.959324e+03,7.760856e+02
1.962217e+03,7.744856e+02
1.965109e+03,7.702936e+02
1.968002e+03,7.627629e+02
1.970895e+03,7.624193e+02
1.973787e+03,7.638221e+02
1.976680e+03,7.758746e+02
1.979573e+03,7.576428e+02
1.982466e+03,7.531139e+02
1.985358e+03,7.567970e+02
1.988251e+03,7.566768e+02
1.991144e+03,7.451015e+02
1.994036e+03,7.385930e+02
1.996929e+03,7.414935e+02
1.999822e+03,7.450324e+02
2.002714e+03,7.289940e+02
2.005607e+03,7.345236e+02
2.008500e+03,7.257520e+02
2.011393e+03,7.415417e+02
2.014285e+03,7.337751e+02
2.017178e+03,7.291559e+02
2.020071e+03,7.146144e+02
2.022963e+03,7.245236e+02
2.025856e+03,7.223078e+02
2.028749e+03,7.295894e+02
2.031641e+03,7.160999e+02
2.034534e+03,7.108427e+02
2.037427e+03,7.135859e+02
2.040320e+03,7.053274e+02
2.043212e+03,7.003633e+02
2.046105e+03,7.053439e+02
2.048998e+03,7.105787e+02
2.051890e+03,6.930430e+02
2.054783e+03,6.911088e+02
2.057676e+03,6.967296e+02
2.060568e+03,6.897277e+02
2.063461e+03,6.957464e+02
2.066354e+03,7.074779e+02
2.069247e+03,6.856349e+02
2.072139e+03,6.943390e+02
2.075032e+03,6.812670e+02
2.077925e+03,6.755051e+02
2.080817e+03,6.931917e+02
2.083710e+03,6.752429e+02
2.086603e+03,6.658173e+02
2.089496e+03,6.730126e+02
2.092388e+03,6.687487e+02
2.095281e+03,6.736761e+02
2.098174e+03,6.752093e+02
2.101066e+03,6.656472e+02
2.103959e+03,6.591765e+02
2.106852e+03,6.606698e+02
2.109744e+03,6.641945e+02
2.112637e+03,6.538926e+02
2.115530e+03,6.490774e+02
2.118422e+03,6.535869e+02
2.121315e+03,6.636490e+02
2.124208e+03,6.467838e+02
2.127101e+03,6.519666e+02
2.129993e+03,6.425647e+02
2.132886e+03,6.391394e+02
2.135779e+03,6.437135e+02
2.138671e+03,6.370768e+02
2.141564e+03,6.345678e+02
2.144457e+03,6.364127e+02
2.147350e+03,6.338253e+02
2.150242e+03,6.258770e+02
2.153135e+03,6.336738e+02
2.156028e+03,6.260520e+02
2.158920e+03,6.277548e+02
2.161813e+03,6.259449e+02
2.164706e+03,6.233823e+02
2.167598e+03,6.136080e+02
2.170491e+03,6.174757e+02
2.173384e+03,6.150532e+02
2.176277e+03,6.110813e+02
2.179169e+03,6.137670e+02
2.182062e+03,6.020432e+02
2.184955e+03,6.125831e+02
2.187847e+03,6.088665e+02
2.190740e+03,6.071130e+02
2.193633e+03,6.038912e+02
2.196525e+03,5.936437e+02
2.199418e+03,5.957265e+02
2.202311e+03,5.993707e+02
2.205204e+03,5.964441e+02
2.208096e+03,5.952765e+02
2.210989e+03,5.868845e+02
2.213882e+03,5.844440e+02
2.216774e+03,5.869841e+02
2.219667e+03,5.853119e+02
2.222560e+03,5.814252e+02
2.225452e+03,5.780488e+02
2.228345e+03,5.747775e+02
2.231238e+03,5.760059e+02
2.234131e+03,5.719517e+02
2.237023e+03,5.797117e+02
2.239916e+03,5.652672e+02
2.242809e+03,5.717630e+02
2.245701e+03,5.713558e+02
2.248594e+03,5.640925e+02
2.251487e+03,5.623212e+02
2.254379e+03,5.621594e+02
2.257272e+03,5.648994e+02
2.260165e+03,5.544405e+02
2.263058e+03,5.507653e+02
2.265950e+03,5.578062e+02
2.268843e+03,5.505170e+02
2.271736e+03,5.480410e+02
2.274628e+03,5.365609e+02
2.277521e+03,5.439817e+02
2.280414e+03,5.539006e+02
2.283306e+03,5.473869e+02
2.286199e+03,5.385661e+02
2.289092e+03,5.361607e+02
2.291985e+03,5.256235e+02
2.294877e+03,5.283243e+02
2.297770e+03,5.387682e+02
2.300663e+03,5.486259e+02
2.303555e+03,5.335493e+02
2.306448e+03,5.295413e+02
2.309341e+03,5.221773e+02
2.312233e+03,5.282056e+02
2.315126e+03,5.116196e+02
2.318019e+03,5.208599e+02
2.320912e+03,5.213172e+02
2.323804e+03,5.183780e+02
2.326697e+03,5.187345e+02
2.329590e+03,5.085040e+02
2.332482e+03,5.147635e+02
2.335375e+03,5.212921e+02
2.338268e+03,5.117046e+02
2.341160e+03,5.075875e+02
2.344053e+03,5.146654e+02
2.346946e+03,5.009946e+02
2.349839e+03,5.101019e+02
2.352731e+03,5.095372e+02
2.355624e+03,4.945616e+02
2.358517e+03,5.011978e+02
2.361409e+03,5.124887e+02
2.364302e+03,4.989989e+02
2.367195e+03,4.850964e+02
2.370087e+03,4.995615e+02
2.372980e+03,4.950482e+02
2.375873e+03,4.877174e+02
2.378766e+03,4.978478e+02
2.381658e+03,4.913855e+02
2.384551e+03,4.782234e+02
2.387444e+03,4.859736e+02
2.390336e+03,4.820773e+02
2.393229e+03,4.829972e+02
2.396122e+03,4.805119e+02
2.399014e+03,4.810296e+02
2.401907e+03,4.915249e+02
2.404800e+03,4.741782e+02
2.407693e+03,4.797183e+02
2.410585e+03,4.699355e+02
2.413478e+03,4.821534e+02
2.416371e+03,4.749513e+02
2.419263e+03,4.690257e+02
2.422156e+03,4.639855e+02
2.425049e+03,4.615187e+02
2.427941e+03,4.661552e+02
2.430834e+03,4.576613e+02
2.433727e+03,4.660487e+02
2.436620e+03,4.667197e+02
2.439512e+03,4.521293e+02
2.442405e+03,4.525215e+02
2.445298e+03,4.536579e+02
2.448190e+03,4.598232e+02
2.451083e+03,4.505665e+02
2.453976e+03,4.480148e+02
2.456868e+03,4.464207e+02
2.459761e+03,4.520955e+02
2.462654e+03,4.586968e+02
2.465547e+03,4.410981e+02
2.468439e+03,4.433255e+02
2.471332e+03,4.398349e+02
2.474225e+03,4.408757e+02
2.477117e+03,4.531785e+02
2.480010e+03,4.458940e+02
2.482903e+03,4.454371e+02
2.485795e+03,4.416510e+02
2.488688e+03,4.434906e+02
2.491581e+03,4.320243e+02
2.494474e+03,4.356162e+02
2.497366e+03,4.367397e+02
2.500259e+03,4.442875e+02
2.503152e+03,4.394940e+02
2.506044e+03,4.338799e+02
2.508937e+03,4.336202e+02
2.511830e+03,4.383926e+02
2.514722e+03,4.243555e+02
2.517615e+03,4.261508e+02
2.520508e+03,4.262072e+02
2.523401e+03,4.292231e+02
2.526293e+03,4.306507e+02
2.529186e+03,4.150040e+02
2.532079e+03,4.248793e+02
2.534971e+03,4.213601e+02
2.537864e+03,4.155329e+02
2.540757e+03,4.240456e+02
2.543649e+03,4.220257e+02
2.546542e+03,4.264494e+02
2.549435e+03,4.258256e+02
2.552328e+03,4.198054e+02
2.555220e+03,4.373094e+02
2.558113e+03,4.156445e+02
2.561006e+03,4.228908e+02
2.563898e+03,4.295057e+02
2.566791e+03,4.180064e+02
2.569684e+03,4.097213e+02
2.572576e+03,4.143843e+02
2.575469e+03,4.108723e+02
2.578362e+03,4.035406e+02
2.581255e+03,4.064532e+02
2.584147e+03,3.970635e+02
2.587040e+03,4.117240e+02
2.589933e+03,4.016268e+02
2.592825e+03,3.980159e+02
2.595718e+03,3.995956e+02
2.598611e+03,3.975499e+02
2.601503e+03,4.036721e+02
2.604396e+03,3.911406e+02
2.607289e+03,3.974366e+02
2.610182e+03,3.855787e+02
2.613074e+03,3.972257e+02
2.615967e+03,3.949160e+02
2.618860e+03,3.771784e+02
2.621752e+03,4.117188e+02
2.624645e+03,3.908896e+02
2.627538e+03,3.972942e+02
2.630430e+03,3.927162e+02
2.633323e+03,3.833309e+02
2.636216e+03,3.836569e+02
2.639109e+03,3.873490e+02
2.642001e+03,3.854236e+02
2.644894e+03,3.797322e+02
2.647787e+03,3.857990e+02
2.650679e+03,3.785799e+02
2.653572e+03,3.897173e+02
2.656465e+03,3.703506e+02
2.659357e+03,3.721943e+02
2.662250e+03,3.929109e+02
2.665143e+03,3.795122e+02
2.668036e+03,3.757501e+02
2.670928e+03,3.803301e+02
2.673821e+03,3.771461e+02
2.676714e+03,3.696882e+02
2.679606e+03,3.644317e+02
2.682499e+03,3.725817e+02
2.685392e+03,3.690926e+02
2.688284e+03,3.697657e+02
2.691177e+03,3.719982e+02
2.694070e+03,3.683926e+02
2.696963e+03,3.693771e+02
2.699855e+03,3.670311e+02
2.702748e+03,3.733303e+02
2.705641e+03,3.614551e+02
2.708533e+03,3.677732e+02
2.711426e+03,3.579742e+02
2.714319e+03,3.715291e+02
2.717211e+03,3.672455e+02
2.720104e+03,3.612531e+02
2.722997e+03,3.700117e+02
2.725890e+03,3.570542e+02
2.728782e+03,3.635742e+02
2.731675e+03,3.590132e+02
2.734568e+03,3.570049e+02
2.737460e+03,3.470926e+02
2.740353e+03,3.542720e+02
2.743246e+03,3.511615e+02
2.746138e+03,3.537822e+02
2.749031e+03,3.589099e+02
2.751924e+03,3.449951e+02
2.754817e+03,3.622005e+02
2.757709e+03,3.493305e+02
2.760602e+03,3.582251e+02
2.763495e+03,3.518400e+02
2.766387e+03,3.560231e+02
2.769280e+03,3.462940e+02
2.772173e+03,3.606788e+02
2.775065e+03,3.449474e+02
2.777958e+03,3.534197e+02
2.780851e+03,3.509496e+02
2.783744e+03,3.581746e+02
2.786636e+03,3.359287e+02
2.789529e+03,3.479923e+02
2.792422e+03,3.523469e+02
2.795314e+03,3.421385e+02
2.798207e+03,3.456244e+02
2.801100e+03,3.495423e+02
2.803992e+03,3.374238e+02
2.806885e+03,3.351377e+02
2.809778e+03,3.356734e+02
2.812671e+03,3.429264e+02
2.815563e+03,3.254221e+02
2.818456e+03,3.465836e+02
2.821349e+03,3.518718e+02
2.824241e+03,3.315096e+02
2.827134e+03,3.448602e+02
2.830027e+03,3.484258e+02
2.832919e+03,3.414702e+02
2.835812e+03,3.476844e+02
2.838705e+03,3.410616e+02
2.841598e+03,3.386547e+02
2.844490e+03,3.370604e+02
2.847383e+03,3.572074e+02
2.850276e+03,3.483330e+02
2.853168e+03,3.542506e+02
2.856061e+03,3.463595e+02
2.858954e+03,3.359178e+02
2.861846e+03,3.591248e+02
2.864739e+03,3.493211e+02
2.867632e+03,3.560764e+02
2.870525e+03,3.639205e+02
2.873417e+03,3.548513e+02
2.876310e+03,3.600960e+02
2.879203e+03,3.595151e+02
2.882095e+03,3.534084e+02
2.884988e+03,3.683022e+02
2.887881e+03,3.672712e+02
2.890773e+03,3.727047e+02
2.893666e+03,3.802354e+02
2.896559e+03,3.624447e+02
2.899452e+03,3.794447e+02
2.902344e+03,3.701794e+02
2.905237e+03,3.784137e+02
2.908130e+03,3.640183e+02
2.911022e+03,3.600020e+02
2.913915e+03,3.535646e+02
2.916808e+03,3.520479e+02
2.919700e+03,3.470797e+02
2.922593e+03,3.443666e+02
2.925486e+03,3.527938e+02
2.928379e+03,3.258147e+02
2.931271e+03,3.514604e+02
2.934164e+03,3.395394e+02
2.937057e+03,3.271869e+02
2.939949e+03,3.352645e+02
2.942842e+03,3.253217e+02
2.945735e+03,3.303996e+02
2.948627e+03,3.322191e+02
2.951520e+03,3.472279e+02
2.954413e+03,3.098651e+02
2.957306e+03,3.617426e+02
2.960198e+03,3.415492e+02
2.963091e+03,3.232081e+02
2.965984e+03,3.143779e+02
2.968876e+03,3.312601e+02
2.971769e+03,3.111514e+02
2.974662e+03,3.197996e+02
2.977554e+03,3.175418e+02
2.980447e+03,3.142356e+02
2.983340e+03,3.102220e+02
2.986233e+03,3.051711e+02
2.989125e+03,3.054819e+02
2.992018e+03,3.103977e+02
2.994911e+03,2.967589e+02
2.997803e+03,3.012043e+02
3.000696e+03,3.159868e+02
3.003589e+03,3.224925e+02
3.006481e+03,3.195586e+02
3.009374e+03,3.145870e+02
3.012267e+03,3.129776e+02
3.015160e+03,3.036738e+02
3.018052e+03,2.749597e+02
3.020945e+03,3.036900e+02
3.023838e+03,2.626319e+02
3.026730e+03,2.917465e+02
3.029623e+03,2.938615e+02
3.032516e+03,3.063266e+02
3.035408e+03,2.938205e+02
3.038301e+03,2.968135e+02
3.041194e+03,2.821799e+02
3.044087e+03,2.691689e+02
3.046979e+03,2.858918e+02
3.049872e+03,2.835533e+02
3.052765e+03,2.805317e+02
3.055657e+03,2.821062e+02
3.058550e+03,2.870830e+02
3.061443e+03,2.929308e+02
3.064335e+03,2.772064e+02
3.067228e+03,2.893553e+02
3.070121e+03,3.014795e+02
3.073014e+03,2.871870e+02
3.075906e+03,2.937474e+02
3.078799e+03,2.871117e+02
3.081692e+03,3.314394e+02
3.084584e+03,2.871127e+02
3.087477e+03,2.825485e+02
3.090370e+03,2.921299e+02
3.093262e+03,2.905555e+02
3.096155e+03,3.175870e+02
3.099048e+03,2.799388e+02
3.101941e+03,2.823867e+02
3.104833e+03,2.784434e+02
3.107726e+03,2.941552e+02
3.110619e+03,2.774167e+02
3.113511e+03,2.883102e+02
3.116404e+03,2.835435e+02
3.119297e+03,2.873602e+02
3.122189e+03,2.843349e+02
3.125082e+03,2.853134e+02
3.127975e+03,2.947881e+02
3.130868e+03,3.092426e+02
3.133760e+03,2.924351e+02
3.136653e+03,2.708344e+02
3.139546e+03,2.924174e+02
3.142438e+03,2.895211e+02
3.145331e+03,2.755352e+02
3.148224e+03,3.069075e+02
3.151116e+03,2.823170e+02
3.154009e+03,3.097125e+02
3.156902e+03,2.778804e+02
3.159795e+03,2.795217e+02
3.162687e+03,2.875146e+02
3.165580e+03,2.884411e+02
3.168473e+03,3.325487e+02
3.171365e+03,2.876826e+02
3.174258e+03,3.112968e+02
3.177151e+03,2.935405e+02
3.180043e+03,2.839828e+02
3.182936e+03,2.926605e+02
3.185829e+03,3.238646e+02
3.188722e+03,2.765786e+02
3.191614e+03,3.097804e+02
3.194507e+03,3.117262e+02
3.197400e+03,2.753417e+02
3.200292e+03,3.112216e+02
3.203185e+03,0.000000e+00
3.206078e+03,0.000000e+00
3.208970e+03,0.000000e+00
3.211863e+03,0.000000e+00
3.214756e+03,0.000000e+00
3.217649e+03,0.000000e+00
3.220541e+03,0.000000e+00
3.223434e+03,0.000000e+00
3.226327e+03,0.000000e+00
3.229219e+03,0.000000e+00
3.232112e+03,0.000000e+00
3.235005e+03,0.000000e+00
3.237897e+03,0.000000e+00
3.240790e+03,0.000000e+00
3.243683e+03,0.000000e+00
3.246576e+03,0.000000e+00
3.249468e+03,0.000000e+00
3.252361e+03,0.000000e+00
3.255254e+03,0.000000e+00
3.258146e+03,0.000000e+00
3.261039e+03,0.000000e+00
3.263932e+03,0.000000e+00
3.266824e+03,0.000000e+00
3.269717e+03,0.000000e+00
3.272610e+03,0.000000e+00
3.275503e+03,0.000000e+00
3.278395e+03,0.000000e+00
3.281288e+03,0.000000e+00
3.284181e+03,0.000000e+00
3.287073e+03,0.000000e+00
3.289966e+03,0.000000e+00
3.292859e+03,0.000000e+00
3.295751e+03,0.000000e+00
3.298644e+03,0.000000e+00
3.301537e+03,0.000000e+00
3.304430e+03,0.000000e+00
3.307322e+03,0.000000e+00
3.310215e+03,0.000000e+00
3.313108e+03,0.000000e+00
3.316000e+03,0.000000e+00
3.318893e+03,0.000000e+00
3.321786e+03,0.000000e+00
3.324678e+03,0.000000e+00
3.327571e+03,0.000000e+00
3.330464e+03,0.000000e+00
3.333357e+03,0.000000e+00
3.336249e+03,0.000000e+00
3.339142e+03,0.000000e+00
3.342035e+03,0.000000e+00
3.344927e+03,0.000000e+00
3.347820e+03,0.000000e+00
3.350713e+03,0.000000e+00
3.353605e+03,0.000000e+00
3.356498e+03,0.000000e+00
3.359391e+03,0.000000e+00
3.362284e+03,0.000000e+00
3.365176e+03,0.000000e+00
3.368069e+03,0.000000e+00
3.370962e+03,0.000000e+00
3.373854e+03,0.000000e+00
3.376747e+03,0.000000e+00
3.379640e+03,0.000000e+00
3.382532e+03,0.000000e+00
3.385425e+03,0.000000e+00
3.388318e+03,0.000000e+00
3.391211e+03,0.000000e+00
3.394103e+03,0.000000e+00
3.396996e+03,0.000000e+00
3.399889e+03,0.000000e+00
3.402781e+03,0.000000e+00
3.405674e+03,0.000000e+00
3.408567e+03,0.000000e+00
3.411459e+03,0.000000e+00
3.414352e+03,0.000000e+00
3.417245e+03,0.000000e+00
3.420138e+03,0.000000e+00
3.423030e+03,0.000000e+00
3.425923e+03,0.000000e+00
3.428816e+03,0.000000e+00
3.431708e+03,0.000000e+00
3.434601e+03,0.000000e+00
3.437494e+03,0.000000e+00
3.440386e+03,0.000000e+00
3.443279e+03,0.000000e+00
3.446172e+03,0.000000e+00
3.449065e+03,0.000000e+00
3.451957e+03,0.000000e+00
3.454850e+03,0.000000e+00
3.457743e+03,0.000000e+00
3.460635e+03,0.000000e+00
3.463528e+03,0.000000e+00
3.466421e+03,0.000000e+00
3.469313e+03,0.000000e+00
3.472206e+03,0.000000e+00
3.475099e+03,0.000000e+00
3.477992e+03,0.000000e+00
3.480884e+03,0.000000e+00
3.483777e+03,0.000000e+00
3.486670e+03,0.000000e+00
3.489563e+03,0.000000e+00
3.492455e+03,0.000000e+00
3.495348e+03,0.000000e+00
3.498240e+03,0.000000e+00
3.500169e+03,0.000000e+00