File: RAMAN_data/20012023_r3/black fibre8.CSV
9.931763e+01,0.000000e+00
1.022103e+02,0.000000e+00
1.051030e+02,0.000000e+00
1.079957e+02,0.000000e+00
1.108884e+02,0.000000e+00
1.137811e+02,0.000000e+00
1.166738e+02,0.000000e+00
1.195665e+02,0.000000e+00
1.224592e+02,0.000000e+00
1.253519e+02,0.000000e+00
1.282446e+02,0.000000e+00
1.311373e+02,0.000000e+00
1.340300e+02,0.000000e+00
1.369227e+02,0.000000e+00
1.398154e+02,0.000000e+00
1.427081e+02,0.000000e+00
1.456008e+02,0.000000e+00
1.484935e+02,0.000000e+00
1.513862e+02,0.000000e+00
1.542789e+02,0.000000e+00
1.571716e+02,0.000000e+00
1.600643e+02,0.000000e+00
1.629570e+02,0.000000e+00
1.658497e+02,0.000000e+00
1.687424e+02,0.000000e+00
1.716351e+02,0.000000e+00
1.745278e+02,0.000000e+00
1.774205e+02,0.000000e+00
1.803132e+02,0.000000e+00
1.832059e+02,0.000000e+00
1.860986e+02,0.000000e+00
1.889913e+02,0.000000e+00
1.918840e+02,0.000000e+00
1.947767e+02,0.000000e+00
1.976694e+02,0.000000e+00
2.005621e+02,4.398765e+03
2.034548e+02,4.404446e+03
2.063475e+02,4.417769e+03
2.092402e+02,4.423373e+03
2.121329e+02,4.418799e+03
2.150256e+02,4.417554e+03
2.179183e+02,4.422991e+03
2.208110e+02,4.423677e+03
2.237037e+02,4.421639e+03
2.265964e+02,4.393584e+03
2.294892e+02,4.407385e+03
2.323819e+02,4.410210e+03
2.352746e+02,4.418674e+03
2.381673e+02,4.418995e+03
2.410600e+02,4.430486e+03
2.439527e+02,4.401304e+03
2.468454e+02,4.421696e+03
2.497381e+02,4.425100e+03
2.526308e+02,4.422776e+03
2.555235e+02,4.411048e+03
2.584161e+02,4.422022e+03
2.613088e+02,4.433749e+03
2.642015e+02,4.433332e+03
2.670942e+02,4.426990e+03
2.699869e+02,4.439437e+03
2.728796e+02,4.432761e+03
2.757723e+02,4.445534e+03
2.786650e+02,4.440943e+03
2.815577e+02,4.431476e+03
2.844504e+02,4.437233e+03
2.873431e+02,4.423388e+03
2.902358e+02,4.419949e+03
2.931285e+02,4.433931e+03
2.960212e+02,4.431241e+03
2.989139e+02,4.421834e+03
3.018066e+02,4.433936e+03
3.046993e+02,4.430113e+03
3.075920e+02,4.431922e+03
3.104847e+02,4.416039e+03
3.133774e+02,4.432108e+03
3.162701e+02,4.421583e+03
3.191628e+02,4.426703e+03
3.220555e+02,4.425061e+03
3.249482e+02,4.439860e+03
3.278409e+02,4.431196e+03
3.307336e+02,4.431923e+03
3.336263e+02,4.426314e+03
3.365190e+02,4.412896e+03
3.394117e+02,4.409808e+03
3.423044e+02,4.399051e+03
3.451971e+02,4.417015e+03
3.480898e+02,4.406767e+03
3.509825e+02,4.409356e+03
3.538752e+02,4.405039e+03
3.567680e+02,4.403884e+03
3.596607e+02,4.407864e+03
3.625534e+02,4.395972e+03
3.654461e+02,4.393978e+03
3.683388e+02,4.381277e+03
3.712315e+02,4.400901e+03
3.741242e+02,4.428241e+03
3.770169e+02,4.419779e+03
3.799096e+02,4.418508e+03
3.828023e+02,4.395633e+03
3.856950e+02,4.383579e+03
3.885877e+02,4.376409e+03
3.914804e+02,4.389993e+03
3.943731e+02,4.377246e+03
3.972658e+02,4.365502e+03
4.001585e+02,4.373064e+03
4.030512e+02,4.378073e+03
4.059439e+02,4.350061e+03
4.088366e+02,4.359812e+03
4.117293e+02,4.344782e+03
4.146220e+02,4.345396e+03
4.175147e+02,4.351429e+03
4.204074e+02,4.359392e+03
4.233001e+02,4.331812e+03
4.261928e+02,4.346337e+03
4.290855e+02,4.320916e+03
4.319782e+02,4.334457e+03
4.348709e+02,4.354750e+03
4.377636e+02,4.333346e+03
4.406563e+02,4.300580e+03
4.435490e+02,4.298220e+03
4.464417e+02,4.308184e+03
4.493344e+02,4.315534e+03
4.522271e+02,4.321521e+03
4.551198e+02,4.302505e+03
4.580125e+02,4.293247e+03
4.609052e+02,4.306035e+03
4.637979e+02,4.292574e+03
4.666906e+02,4.271760e+03
4.695833e+02,4.280843e+03
4.724760e+02,4.263091e+03
4.753687e+02,4.234885e+03
4.782614e+02,4.255398e+03
4.811541e+02,4.258361e+03
4.840468e+02,4.246378e+03
4.869395e+02,4.236512e+03
4.898322e+02,4.238176e+03
4.927249e+02,4.225547e+03
4.956176e+02,4.227146e+03
4.985103e+02,4.263435e+03
5.014030e+02,4.229813e+03
5.042957e+02,4.215825e+03
5.071884e+02,4.209387e+03
5.100811e+02,4.209276e+03
5.129738e+02,4.203597e+03
5.158665e+02,4.202840e+03
5.187592e+02,4.202534e+03
5.216519e+02,4.187804e+03
5.245446e+02,4.179475e+03
5.274373e+02,4.182618e+03
5.303300e+02,4.182828e+03
5.332227e+02,4.174063e+03
5.361154e+02,4.178805e+03
5.390081e+02,4.152450e+03
5.419008e+02,4.146130e+03
5.447935e+02,4.157048e+03
5.476862e+02,4.159834e+03
5.505789e+02,4.145063e+03
5.534716e+02,4.117142e+03
5.563643e+02,4.136689e+03
5.592570e+02,4.146601e+03
5.621497e+02,4.117897e+03
5.650424e+02,4.112629e+03
5.679351e+02,4.098522e+03
5.708278e+02,4.107596e+03
5.737205e+02,4.111039e+03
5.766132e+02,4.087109e+03
5.795059e+02,4.090070e+03
5.823986e+02,4.068804e+03
5.852913e+02,4.070021e+03
5.881840e+02,4.068469e+03
5.910767e+02,4.067157e+03
5.939694e+02,4.069333e+03
5.968621e+02,4.057392e+03
5.997548e+02,4.046667e+03
6.026475e+02,4.035547e+03
6.055402e+02,4.052612e+03
6.084329e+02,4.055705e+03
6.113256e+02,4.023840e+03
6.142183e+02,4.013055e+03
6.171110e+02,4.005596e+03
6.200037e+02,4.024981e+03
6.228964e+02,4.031848e+03
6.257891e+02,4.006196e+03
6.286818e+02,4.008335e+03
6.315745e+02,4.009171e+03
6.344672e+02,3.999983e+03
6.373599e+02,3.988542e+03
6.402526e+02,3.977020e+03
6.431453e+02,3.965490e+03
6.460380e+02,3.947730e+03
6.489307e+02,3.954538e+03
6.518234e+02,3.939640e+03
6.547161e+02,3.957414e+03
6.576088e+02,3.923483e+03
6.605015e+02,3.927860e+03
6.633942e+02,3.935197e+03
6.662869e+02,3.931295e+03
6.691796e+02,3.925483e+03
6.720723e+02,3.902721e+03
6.749650e+02,3.900603e+03
6.778577e+02,3.896840e+03
6.807504e+02,3.902011e+03
6.836431e+02,3.893420e+03
6.865358e+02,3.864115e+03
6.894285e+02,3.857459e+03
6.923212e+02,3.853397e+03
6.952139e+02,3.853313e+03
6.981066e+02,3.871299e+03
7.009993e+02,3.850361e+03
7.038920e+02,3.843780e+03
7.067847e+02,3.836055e+03
7.096774e+02,3.834287e+03
7.125701e+02,3.821902e+03
7.154628e+02,3.807550e+03
7.183555e+02,3.807694e+03
7.212482e+02,3.790870e+03
7.241409e+02,3.792075e+03
7.270336e+02,3.799532e+03
7.299263e+02,3.782058e+03
7.328190e+02,3.788946e+03
7.357117e+02,3.773327e+03
7.386044e+02,3.786714e+03
7.414971e+02,3.761103e+03
7.443898e+02,3.768708e+03
7.472825e+02,3.748462e+03
7.501752e+02,3.747677e+03
7.530679e+02,3.749922e+03
7.559606e+02,3.734864e+03
7.588533e+02,3.734465e+03
7.617460e+02,3.711504e+03
7.646387e+02,3.713455e+03
7.675314e+02,3.694618e+03
7.704241e+02,3.680187e+03
7.733168e+02,3.686352e+03
7.762095e+02,3.682199e+03
7.791022e+02,3.702570e+03
7.819949e+02,3.668532e+03
7.848876e+02,3.662185e+03
7.877803e+02,3.675798e+03
7.906730e+02,3.673352e+03
7.935657e+02,3.647952e+03
7.964584e+02,3.619490e+03
7.993511e+02,3.655084e+03
8.022438e+02,3.634514e+03
8.051365e+02,3.631290e+03
8.080292e+02,3.623664e+03
8.109219e+02,3.621516e+03
8.138146e+02,3.614374e+03
8.167073e+02,3.597545e+03
8.196000e+02,3.600185e+03
8.224927e+02,3.601251e+03
8.253854e+02,3.598427e+03
8.282781e+02,3.579630e+03
8.311708e+02,3.582360e+03
8.340635e+02,3.557076e+03
8.369562e+02,3.559073e+03
8.398489e+02,3.556331e+03
8.427416e+02,3.555412e+03
8.456343e+02,3.555450e+03
8.485270e+02,3.538644e+03
8.514197e+02,3.551861e+03
8.543124e+02,3.533462e+03
8.572051e+02,3.534068e+03
8.600978e+02,3.499102e+03
8.629905e+02,3.503367e+03
8.658832e+02,3.505544e+03
8.687759e+02,3.502993e+03
8.716686e+02,3.510118e+03
8.745613e+02,3.484741e+03
8.774540e+02,3.493866e+03
8.803467e+02,3.487998e+03
8.832394e+02,3.491569e+03
8.861321e+02,3.485522e+03
8.890248e+02,3.467760e+03
8.919175e+02,3.463506e+03
8.948102e+02,3.449853e+03
8.977029e+02,3.447670e+03
9.005956e+02,3.441651e+03
9.034883e+02,3.434118e+03
9.063810e+02,3.406542e+03
9.092737e+02,3.412169e+03
9.121664e+02,3.418073e+03
9.150591e+02,3.401452e+03
9.179518e+02,3.406831e+03
9.208445e+02,3.387352e+03
9.237372e+02,3.375031e+03
9.266299e+02,3.371952e+03
9.295226e+02,3.384288e+03
9.324153e+02,3.360184e+03
9.353080e+02,3.363432e+03
9.382007e+02,3.354539e+03
9.410934e+02,3.351289e+03
9.439861e+02,3.334669e+03
9.468788e+02,3.341536e+03
9.497715e+02,3.365712e+03
9.526642e+02,3.336880e+03
9.555569e+02,3.325128e+03
9.584496e+02,3.312097e+03
9.613423e+02,3.310851e+03
9.642350e+02,3.307796e+03
9.671277e+02,3.301848e+03
9.700204e+02,3.294895e+03
9.729131e+02,3.273966e+03
9.758058e+02,3.292410e+03
9.786985e+02,3.293511e+03
9.815912e+02,3.265825e+03
9.844839e+02,3.252429e+03
9.873766e+02,3.257769e+03
9.902693e+02,3.259878e+03
9.931620e+02,3.262916e+03
9.960547e+02,3.258228e+03
9.989474e+02,3.246593e+03
1.001840e+03,3.235918e+03
1.004733e+03,3.229526e+03
1.007626e+03,3.240987e+03
1.010518e+03,3.225445e+03
1.013411e+03,3.203574e+03
1.016304e+03,3.204241e+03
1.019196e+03,3.208354e+03
1.022089e+03,3.204727e+03
1.024982e+03,3.196000e+03
1.027875e+03,3.199153e+03
1.030767e+03,3.194536e+03
1.033660e+03,3.192393e+03
1.036552e+03,3.184948e+03
1.039445e+03,3.175691e+03
1.042338e+03,3.172560e+03
1.045231e+03,3.173374e+03
1.048123e+03,3.161524e+03
1.051016e+03,3.157927e+03
1.053909e+03,3.172964e+03
1.056802e+03,3.171648e+03
1.059694e+03,3.158219e+03
1.062587e+03,3.144586e+03
1.065479e+03,3.160919e+03
1.068372e+03,3.169417e+03
1.071265e+03,3.156064e+03
1.074158e+03,3.161877e+03
1.077050e+03,3.140083e+03
1.079943e+03,3.142770e+03
1.082836e+03,3.136919e+03
1.085729e+03,3.151331e+03
1.088621e+03,3.150518e+03
1.091514e+03,3.167107e+03
1.094406e+03,3.149851e+03
1.097299e+03,3.136947e+03
1.100192e+03,3.117648e+03
1.103085e+03,3.112009e+03
1.105977e+03,3.127702e+03
1.108870e+03,3.109406e+03
1.111763e+03,3.111214e+03
1.114656e+03,3.091651e+03
1.117548e+03,3.100526e+03
1.120441e+03,3.102181e+03
1.123334e+03,3.072642e+03
1.126226e+03,3.076219e+03
1.129119e+03,3.067805e+03
1.132012e+03,3.079345e+03
1.134904e+03,3.053587e+03
1.137797e+03,3.050740e+03
1.140690e+03,3.048765e+03
1.143583e+03,3.044069e+03
1.146475e+03,3.057255e+03
1.149368e+03,3.061367e+03
1.152261e+03,3.066347e+03
1.155153e+03,3.037222e+03
1.158046e+03,3.043556e+03
1.160939e+03,3.058024e+03
1.163831e+03,3.045740e+03
1.166724e+03,3.040182e+03
1.169617e+03,3.025648e+03
1.172510e+03,3.012233e+03
1.175402e+03,3.012759e+03
1.178295e+03,2.997839e+03
1.181188e+03,2.992622e+03
1.184080e+03,2.964795e+03
1.186973e+03,2.973112e+03
1.189866e+03,2.983173e+03
1.192758e+03,2.952931e+03
1.195651e+03,2.969917e+03
1.198544e+03,2.972805e+03
1.201437e+03,2.947282e+03
1.204329e+03,2.945864e+03
1.207222e+03,2.943864e+03
1.210115e+03,2.940664e+03
1.213007e+03,2.935056e+03
1.215900e+03,2.923099e+03
1.218793e+03,2.920270e+03
1.221685e+03,2.915969e+03
1.224578e+03,2.925049e+03
1.227471e+03,2.909091e+03
1.230364e+03,2.911666e+03
1.233256e+03,2.893249e+03
1.236149e+03,2.882850e+03
1.239042e+03,2.896696e+03
1.241934e+03,2.900147e+03
1.244827e+03,2.912713e+03
1.247720e+03,2.885853e+03
1.250612e+03,2.889163e+03
1.253505e+03,2.889700e+03
1.256398e+03,2.873444e+03
1.259291e+03,2.879146e+03
1.262183e+03,2.867521e+03
1.265076e+03,2.870322e+03
1.267969e+03,2.865754e+03
1.270861e+03,2.882028e+03
1.273754e+03,2.884332e+03
1.276647e+03,2.889338e+03
1.279539e+03,2.873969e+03
1.282432e+03,2.867828e+03
1.285325e+03,2.855476e+03
1.288218e+03,2.878961e+03
1.291110e+03,2.873026e+03
1.294003e+03,2.866905e+03
1.296896e+03,2.856835e+03
1.299788e+03,2.865806e+03
1.302681e+03,2.868322e+03
1.305574e+03,2.861496e+03
1.308466e+03,2.846945e+03
1.311359e+03,2.854516e+03
1.314252e+03,2.852362e+03
1.317145e+03,2.844753e+03
1.320037e+03,2.878230e+03
1.322930e+03,2.869711e+03
1.325823e+03,2.863599e+03
1.328715e+03,2.861943e+03
1.331608e+03,2.847378e+03
1.334501e+03,2.847288e+03
1.337393e+03,2.851793e+03
1.340286e+03,2.839528e+03
1.343179e+03,2.821550e+03
1.346072e+03,2.808135e+03
1.348964e+03,2.796237e+03
1.351857e+03,2.793016e+03
1.354750e+03,2.781857e+03
1.357642e+03,2.757965e+03
1.360535e+03,2.771784e+03
1.363428e+03,2.769161e+03
1.366320e+03,2.783689e+03
1.369213e+03,2.766306e+03
1.372106e+03,2.777096e+03
1.374999e+03,2.754862e+03
1.377891e+03,2.759393e+03
1.380784e+03,2.739441e+03
1.383677e+03,2.757458e+03
1.386569e+03,2.731824e+03
1.389462e+03,2.723013e+03
1.392355e+03,2.727035e+03
1.395247e+03,2.724685e+03
1.398140e+03,2.729386e+03
1.401033e+03,2.727147e+03
1.403926e+03,2.709658e+03
1.406818e+03,2.698627e+03
1.409711e+03,2.702509e+03
1.412604e+03,2.693473e+03
1.415496e+03,2.678395e+03
1.418389e+03,2.688980e+03
1.421282e+03,2.688895e+03
1.424174e+03,2.690390e+03
1.427067e+03,2.675023e+03
1.429960e+03,2.670343e+03
1.432853e+03,2.655848e+03
1.435745e+03,2.661240e+03
1.438638e+03,2.649078e+03
1.441531e+03,2.648382e+03
1.444423e+03,2.636025e+03
1.447316e+03,2.639882e+03
1.450209e+03,2.632355e+03
1.453101e+03,2.632405e+03
1.455994e+03,2.614759e+03
1.458887e+03,2.627288e+03
1.461780e+03,2.625910e+03
1.464672e+03,2.625632e+03
1.467565e+03,2.599374e+03
1.470458e+03,2.600252e+03
1.473350e+03,2.600215e+03
1.476243e+03,2.586801e+03
1.479136e+03,2.581775e+03
1.482028e+03,2.591754e+03
1.484921e+03,2.585674e+03
1.487814e+03,2.581949e+03
1.490707e+03,2.575034e+03
1.493599e+03,2.581337e+03
1.496492e+03,2.565150e+03
1.499385e+03,2.557452e+03
1.502277e+03,2.560055e+03
1.505170e+03,2.571354e+03
1.508063e+03,2.557349e+03
1.510955e+03,2.545146e+03
1.513848e+03,2.518151e+03
1.516741e+03,2.529848e+03
1.519634e+03,2.521125e+03
1.522526e+03,2.537900e+03
1.525419e+03,2.530742e+03
1.528312e+03,2.505710e+03
1.531204e+03,2.515276e+03
1.534097e+03,2.512720e+03
1.536990e+03,2.506336e+03
1.539882e+03,2.518188e+03
1.542775e+03,2.501492e+03
1.545668e+03,2.503435e+03
1.548561e+03,2.512032e+03
1.551453e+03,2.505530e+03
1.554346e+03,2.491254e+03
1.557239e+03,2.501737e+03
1.560131e+03,2.501223e+03
1.563024e+03,2.491391e+03
1.565917e+03,2.496126e+03
1.568809e+03,2.489934e+03
1.571702e+03,2.497865e+03
1.574595e+03,2.495990e+03
1.577488e+03,2.488747e+03
1.580380e+03,2.494233e+03
1.583273e+03,2.487409e+03
1.586166e+03,2.476768e+03
1.589058e+03,2.467480e+03
1.591951e+03,2.452063e+03
1.594844e+03,2.434979e+03
1.597736e+03,2.437231e+03
1.600629e+03,2.452769e+03
1.603522e+03,2.453620e+03
1.606415e+03,2.438446e+03
1.609307e+03,2.454798e+03
1.612200e+03,2.477980e+03
1.615093e+03,2.476445e+03
1.617985e+03,2.436417e+03
1.620878e+03,2.410696e+03
1.623771e+03,2.398544e+03
1.626663e+03,2.385107e+03
1.629556e+03,2.388414e+03
1.632449e+03,2.378832e+03
1.635342e+03,2.370006e+03
1.638234e+03,2.352441e+03
1.641127e+03,2.350524e+03
1.644020e+03,2.350551e+03
1.646912e+03,2.349581e+03
1.649805e+03,2.335319e+03
1.652698e+03,2.340461e+03
1.655590e+03,2.329944e+03
1.658483e+03,2.343483e+03
1.661376e+03,2.327821e+03
1.664269e+03,2.333729e+03
1.667161e+03,2.302649e+03
1.670054e+03,2.301466e+03
1.672947e+03,2.298742e+03
1.675839e+03,2.300867e+03
1.678732e+03,2.297632e+03
1.681625e+03,2.283290e+03
1.684517e+03,2.276691e+03
1.687410e+03,2.281498e+03
1.690303e+03,2.283523e+03
1.693196e+03,2.265234e+03
1.696088e+03,2.276797e+03
1.698981e+03,2.258228e+03
1.701874e+03,2.266026e+03
1.704766e+03,2.262817e+03
1.707659e+03,2.261740e+03
1.710552e+03,2.254299e+03
1.713444e+03,2.240653e+03
1.716337e+03,2.238189e+03
1.719230e+03,2.247925e+03
1.722123e+03,2.264943e+03
1.725015e+03,2.240068e+03
1.727908e+03,2.251668e+03
1.730801e+03,2.232589e+03
1.733693e+03,2.229804e+03
1.736586e+03,2.247391e+03
1.739479e+03,2.203829e+03
1.742371e+03,2.188250e+03
1.745264e+03,2.199702e+03
1.748157e+03,2.184674e+03
1.751050e+03,2.191459e+03
1.753942e+03,2.162078e+03
1.756835e+03,2.174538e+03
1.759728e+03,2.151254e+03
1.762620e+03,2.155953e+03
1.765513e+03,2.169802e+03
1.768406e+03,2.152367e+03
1.771298e+03,2.140023e+03
1.774191e+03,2.124170e+03
1.777084e+03,2.133353e+03
1.779977e+03,2.136614e+03
1.782869e+03,2.119046e+03
1.785762e+03,2.118942e+03
1.788655e+03,2.111669e+03
1.791547e+03,2.113524e+03
1.794440e+03,2.094075e+03
1.797333e+03,2.097748e+03
1.800225e+03,2.085687e+03
1.803118e+03,2.065031e+03
1.806011e+03,2.083841e+03
1.808904e+03,2.081780e+03
1.811796e+03,2.072019e+03
1.814689e+03,2.073335e+03
1.817582e+03,2.045343e+03
1.820474e+03,2.078191e+03
1.823367e+03,2.037541e+03
1.826260e+03,2.050694e+03
1.829152e+03,2.033413e+03
1.832045e+03,2.051448e+03
1.834938e+03,2.036235e+03
1.837831e+03,2.034193e+03
1.840723e+03,2.037964e+03
1.843616e+03,2.026927e+03
1.846509e+03,2.018728e+03
1.849401e+03,2.014086e+03
1.852294e+03,2.009224e+03
1.855187e+03,2.001848e+03
1.858079e+03,1.987961e+03
1.860972e+03,1.990141e+03
1.863865e+03,1.997977e+03
1.866758e+03,1.969411e+03
1.869650e+03,1.988503e+03
1.872543e+03,1.970137e+03
1.875436e+03,1.963253e+03
1.878328e+03,1.962530e+03
1.881221e+03,1.956586e+03
1.884114e+03,1.936921e+03
1.887006e+03,1.945367e+03
1.889899e+03,1.937473e+03
1.892792e+03,1.944140e+03
1.895685e+03,1.927010e+03
1.898577e+03,1.924127e+03
1.901470e+03,1.909296e+03
1.904363e+03,1.921503e+03
1.907255e+03,1.910798e+03
1.910148e+03,1.912415e+03
1.913041e+03,1.915000e+03
1.915933e+03,1.900084e+03
1.918826e+03,1.872518e+03
1.921719e+03,1.882010e+03
1.924612e+03,1.864884e+03
1.927504e+03,1.870774e+03
1.930397e+03,1.878482e+03
1.933290e+03,1.857438e+03
1.936182e+03,1.862333e+03
1.939075e+03,1.852178e+03
1.941968e+03,1.846938e+03
1.944860e+03,1.837328e+03
1.947753e+03,1.836841e+03
1.950646e+03,1.850511e+03
1.953539e+03,1.840514e+03
1.956431e+03,1.821976e+03
1.959324e+03,1.830977e+03
1.962217e+03,1.822832e+03
1.965109e+03,1.805951e+03
1.968002e+03,1.825659e+03
1.970895e+03,1.810409e+03
1.973787e+03,1.810494e+03
1.976680e+03,1.792083e+03
1.979573e+03,1.786422e+03
1.982466e+03,1.785082e+03
1.985358e+03,1.786812e+03
1.988251e+03,1.783311e+03
1.991144e+03,1.753070e+03
1.994036e+03,1.760809e+03
1.996929e+03,1.761229e+03
1.999822e+03,1.766046e+03
2.002714e+03,1.745025e+03
2.005607e+03,1.754094e+03
2.008500e+03,1.729837e+03
2.011393e+03,1.723893e+03
2.014285e+03,1.728825e+03
2.017178e+03,1.736164e+03
2.020071e+03,1.738844e+03
2.022963e+03,1.721817e+03
2.025856e+03,1.702592e+03
2.028749e+03,1.711615e+03
2.031641e+03,1.703512e+03
2.034534e+03,1.686061e+03
2.037427e+03,1.692165e+03
2.040320e+03,1.682293e+03
2.043212e+03,1.672691e+03
2.046105e+03,1.684474e+03
2.048998e+03,1.674896e+03
2.051890e+03,1.673073e+03
2.054783e+03,1.657819e+03
2.057676e+03,1.658799e+03
2.060568e+03,1.653614e+03
2.063461e+03,1.652432e+03
2.066354e+03,1.639583e+03
2.069247e+03,1.629759e+03
2.072139e+03,1.639800e+03
2.075032e+03,1.631987e+03
2.077925e+03,1.617253e+03
2.080817e+03,1.603563e+03
2.083710e+03,1.618712e+03
2.086603e+03,1.588746e+03
2.089496e+03,1.599099e+03
2.092388e+03,1.592901e+03
2.095281e+03,1.610490e+03
2.098174e+03,1.598799e+03
2.101066e+03,1.585664e+03
2.103959e+03,1.571273e+03
2.106852e+03,1.566540e+03
2.109744e+03,1.586484e+03
2.112637e+03,1.572601e+03
2.115530e+03,1.552332e+03
2.118422e+03,1.538204e+03
2.121315e+03,1.568067e+03
2.124208e+03,1.560482e+03
2.127101e+03,1.537496e+03
2.129993e+03,1.542438e+03
2.132886e+03,1.533581e+03
2.135779e+03,1.534854e+03
2.138671e+03,1.520681e+03
2.141564e+03,1.520185e+03
2.144457e+03,1.509485e+03
2.147350e+03,1.512819e+03
2.150242e+03,1.505138e+03
2.153135e+03,1.497762e+03
2.156028e+03,1.506343e+03
2.158920e+03,1.501177e+03
2.161813e+03,1.489307e+03
2.164706e+03,1.488288e+03
2.167598e+03,1.481920e+03
2.170491e+03,1.481217e+03
2.173384e+03,1.483135e+03
2.176277e+03,1.461599e+03
2.179169e+03,1.460917e+03
2.182062e+03,1.451779e+03
2.184955e+03,1.465632e+03
2.187847e+03,1.471991e+03
2.190740e+03,1.451813e+03
2.193633e+03,1.458992e+03
2.196525e+03,1.436659e+03
2.199418e+03,1.434201e+03
2.202311e+03,1.427417e+03
2.205204e+03,1.427355e+03
2.208096e+03,1.409107e+03
2.210989e+03,1.424683e+03
2.213882e+03,1.407716e+03
2.216774e+03,1.422705e+03
2.219667e+03,1.420728e+03
2.222560e+03,1.400927e+03
2.225452e+03,1.392364e+03
2.228345e+03,1.388451e+03
2.231238e+03,1.389438e+03
2.234131e+03,1.389303e+03
2.237023e+03,1.380609e+03
2.239916e+03,1.373068e+03
2.242809e+03,1.366508e+03
2.245701e+03,1.364586e+03
2.248594e+03,1.367480e+03
2.251487e+03,1.364451e+03
2.254379e+03,1.356708e+03
2.257272e+03,1.341641e+03
2.260165e+03,1.341172e+03
2.263058e+03,1.339294e+03
2.265950e+03,1.347953e+03
2.268843e+03,1.320787e+03
2.271736e+03,1.318271e+03
2.274628e+03,1.304371e+03
2.277521e+03,1.323181e+03
2.280414e+03,1.313071e+03
2.283306e+03,1.315242e+03
2.286199e+03,1.319739e+03
2.289092e+03,1.306889e+03
2.291985e+03,1.298819e+03
2.294877e+03,1.293464e+03
2.297770e+03,1.300801e+03
2.300663e+03,1.281419e+03
2.303555e+03,1.282049e+03
2.306448e+03,1.273391e+03
2.309341e+03,1.286097e+03
2.312233e+03,1.275822e+03
2.315126e+03,1.271940e+03
2.318019e+03,1.267772e+03
2.320912e+03,1.270770e+03
2.323804e+03,1.261918e+03
2.326697e+03,1.251534e+03
2.329590e+03,1.276187e+03
2.332482e+03,1.253963e+03
2.335375e+03,1.231070e+03
2.338268e+03,1.267536e+03
2.341160e+03,1.234786e+03
2.344053e+03,1.233668e+03
2.346946e+03,1.234668e+03
2.349839e+03,1.230177e+03
2.352731e+03,1.219264e+03
2.355624e+03,1.214130e+03
2.358517e+03,1.222536e+03
2.361409e+03,1.241652e+03
2.364302e+03,1.220787e+03
2.367195e+03,1.207747e+03
2.370087e+03,1.193091e+03
2.372980e+03,1.210424e+03
2.375873e+03,1.200897e+03
2.378766e+03,1.196915e+03
2.381658e+03,1.184659e+03
2.384551e+03,1.182717e+03
2.387444e+03,1.199457e+03
2.390336e+03,1.180321e+03
2.393229e+03,1.170369e+03
2.396122e+03,1.173441e+03
2.399014e+03,1.165912e+03
2.401907e+03,1.176938e+03
2.404800e+03,1.171913e+03
2.407693e+03,1.157141e+03
2.410585e+03,1.163815e+03
2.413478e+03,1.168839e+03
2.416371e+03,1.149937e+03
2.419263e+03,1.146606e+03
2.422156e+03,1.150710e+03
2.425049e+03,1.137299e+03
2.427941e+03,1.140469e+03
2.430834e+03,1.139037e+03
2.433727e+03,1.123136e+03
2.436620e+03,1.130726e+03
2.439512e+03,1.139632e+03
2.442405e+03,1.129042e+03
2.445298e+03,1.132230e+03
2.448190e+03,1.108404e+03
2.451083e+03,1.126850e+03
2.453976e+03,1.109618e+03
2.456868e+03,1.103045e+03
2.459761e+03,1.099952e+03
2.462654e+03,1.102727e+03
2.465547e+03,1.097797e+03
2.468439e+03,1.104277e+03
2.471332e+03,1.085209e+03
2.474225e+03,1.097307e+03
2.477117e+03,1.072826e+03
2.480010e+03,1.082105e+03
2.482903e+03,1.087119e+03
2.485795e+03,1.071448e+03
2.488688e+03,1.081511e+03
2.491581e+03,1.066818e+03
2.494474e+03,1.041856e+03
2.497366e+03,1.065404e+03
2.500259e+03,1.077452e+03
2.503152e+03,1.067338e+03
2.506044e+03,1.058934e+03
2.508937e+03,1.064672e+03
2.511830e+03,1.055879e+03
2.514722e+03,1.042694e+03
2.517615e+03,1.047142e+03
2.520508e+03,1.059428e+03
2.523401e+03,1.039429e+03
2.526293e+03,1.052020e+03
2.529186e+03,1.048249e+03
2.532079e+03,1.041440e+03
2.534971e+03,1.051080e+03
2.537864e+03,1.035247e+03
2.540757e+03,1.021094e+03
2.543649e+03,1.020304e+03
2.546542e+03,1.033690e+03
2.549435e+03,1.042573e+03
2.552328e+03,1.034207e+03
2.555220e+03,1.021441e+03
2.558113e+03,1.007174e+03
2.561006e+03,1.017157e+03
2.563898e+03,1.025902e+03
2.566791e+03,1.004313e+03
2.569684e+03,1.014526e+03
2.572576e+03,1.000994e+03
2.575469e+03,1.020613e+03
2.578362e+03,1.003175e+03
2.581255e+03,9.870635e+02
2.584147e+03,1.005477e+03
2.587040e+03,9.893445e+02
2.589933e+03,9.917858e+02
2.592825e+03,9.829207e+02
2.595718e+03,9.824359e+02
2.598611e+03,9.946261e+02
2.601503e+03,9.964660e+02
2.604396e+03,9.714429e+02
2.607289e+03,9.946965e+02
2.610182e+03,9.677523e+02
2.613074e+03,9.701180e+02
2.615967e+03,9.744374e+02
2.618860e+03,9.749779e+02
2.621752e+03,9.619401e+02
2.624645e+03,9.748321e+02
2.627538e+03,9.470276e+02
2.630430e+03,9.455302e+02
2.633323e+03,9.618823e+02
2.636216e+03,9.444904e+02
2.639109e+03,9.313938e+02
2.642001e+03,9.528942e+02
2.644894e+03,9.521396e+02
2.647787e+03,9.570053e+02
2.650679e+03,9.411414e+02
2.653572e+03,9.327554e+02
2.656465e+03,9.242601e+02
2.659357e+03,9.380573e+02
2.662250e+03,9.345610e+02
2.665143e+03,9.433589e+02
2.668036e+03,9.519045e+02
2.670928e+03,9.417626e+02
2.673821e+03,9.265572e+02
2.676714e+03,9.233460e+02
2.679606e+03,9.298840e+02
2.682499e+03,9.313729e+02
2.685392e+03,9.019208e+02
2.688284e+03,9.076101e+02
2.691177e+03,9.228234e+02
2.694070e+03,9.271516e+02
2.696963e+03,9.156300e+02
2.699855e+03,9.070034e+02
2.702748e+03,9.108926e+02
2.705641e+03,9.050862e+02
2.708533e+03,9.127426e+02
2.711426e+03,9.121498e+02
2.714319e+03,9.028314e+02
2.717211e+03,9.088972e+02
2.720104e+03,8.961173e+02
2.722997e+03,9.045106e+02
2.725890e+03,8.931261e+02
2.728782e+03,8.957756e+02
2.731675e+03,8.819589e+02
2.734568e+03,8.690773e+02
2.737460e+03,8.866178e+02
2.740353e+03,8.699853e+02
2.743246e+03,8.884651e+02
2.746138e+03,8.776183e+02
2.749031e+03,8.763182e+02
2.751924e+03,8.612389e+02
2.754817e+03,8.632571e+02
2.757709e+03,8.757498e+02
2.760602e+03,8.703997e+02
2.763495e+03,8.809064e+02
2.766387e+03,8.507789e+02
2.769280e+03,8.652391e+02
2.772173e+03,8.774780e+02
2.775065e+03,8.727977e+02
2.777958e+03,8.465099e+02
2.780851e+03,8.638412e+02
2.783744e+03,8.674421e+02
2.786636e+03,8.523368e+02
2.789529e+03,8.445906e+02
2.792422e+03,8.524836e+02
2.795314e+03,8.377957e+02
2.798207e+03,8.590868e+02
2.801100e+03,8.489238e+02
2.803992e+03,8.408972e+02
2.806885e+03,8.393624e+02
2.809778e+03,8.419787e+02
2.812671e+03,8.460194e+02
2.815563e+03,8.482382e+02
2.818456e+03,8.320065e+02
2.821349e+03,8.158664e+02
2.824241e+03,8.255881e+02
2.827134e+03,8.424963e+02
2.830027e+03,8.371849e+02
2.832919e+03,8.243574e+02
2.835812e+03,8.351315e+02
2.838705e+03,8.337935e+02
2.841598e+03,8.257000e+02
2.844490e+03,8.610843e+02
2.847383e+03,8.189515e+02
2.850276e+03,8.334094e+02
2.853168e+03,8.489150e+02
2.856061e+03,8.379985e+02
2.858954e+03,8.541925e+02
2.861846e+03,8.384342e+02
2.864739e+03,8.251900e+02
2.867632e+03,8.480084e+02
2.870525e+03,8.309954e+02
2.873417e+03,8.295270e+02
2.876310e+03,8.626459e+02
2.879203e+03,8.309407e+02
2.882095e+03,8.570453e+02
2.884988e+03,8.180783e+02
2.887881e+03,8.574271e+02
2.890773e+03,8.305130e+02
2.893666e+03,8.538175e+02
2.896559e+03,8.264685e+02
2.899452e+03,8.516316e+02
2.902344e+03,8.397864e+02
2.905237e+03,8.449296e+02
2.908130e+03,8.408045e+02
2.911022e+03,8.405223e+02
2.913915e+03,8.338557e+02
2.916808e+03,8.164246e+02
2.919700e+03,8.138719e+02
2.922593e+03,8.156898e+02
2.925486e+03,8.314924e+02
2.928379e+03,7.826748e+02
2.931271e+03,7.913291e+02
2.934164e+03,8.330082e+02
2.937057e+03,7.941418e+02
2.939949e+03,7.923632e+02
2.942842e+03,7.940535e+02
2.945735e+03,8.052741e+02
2.948627e+03,7.857820e+02
2.951520e+03,8.025964e+02
2.954413e+03,7.744833e+02
2.957306e+03,8.328682e+02
2.960198e+03,7.979078e+02
2.963091e+03,7.901498e+02
2.965984e+03,7.850232e+02
2.968876e+03,7.944537e+02
2.971769e+03,7.728531e+02
2.974662e+03,7.828190e+02
2.977554e+03,7.604405e+02
2.980447e+03,7.574814e+02
2.983340e+03,7.601738e+02
2.986233e+03,7.503385e+02
2.989125e+03,7.331384e+02
2.992018e+03,7.640696e+02
2.994911e+03,7.360976e+02
2.997803e+03,7.514234e+02
3.000696e+03,7.546489e+02
3.003589e+03,7.612525e+02
3.006481e+03,7.596212e+02
3.009374e+03,7.439605e+02
3.012267e+03,7.552963e+02
3.015160e+03,7.213835e+02
3.018052e+03,7.376083e+02
3.020945e+03,7.486544e+02
3.023838e+03,7.436624e+02
3.026730e+03,7.365009e+02
3.029623e+03,7.314319e+02
3.032516e+03,7.460938e+02
3.035408e+03,7.352488e+02
3.038301e+03,7.562330e+02
3.041194e+03,7.082949e+02
3.044087e+03,7.281760e+02
3.046979e+03,7.350361e+02
3.049872e+03,7.341070e+02
3.052765e+03,7.091483e+02
3.055657e+03,7.155836e+02
3.058550e+03,7.279206e+02
3.061443e+03,7.197286e+02
3.064335e+03,7.463276e+02
3.067228e+03,7.551219e+02
3.070121e+03,7.330703e+02
3.073014e+03,7.330801e+02
3.075906e+03,7.447611e+02
3.078799e+03,7.397067e+02
3.081692e+03,7.389190e+02
3.084584e+03,7.055397e+02
3.087477e+03,7.035027e+02
3.090370e+03,7.018341e+02
3.093262e+03,6.957042e+02
3.096155e+03,7.317787e+02
3.099048e+03,7.376790e+02
3.101941e+03,7.184581e+02
3.104833e+03,7.244434e+02
3.107726e+03,6.874423e+02
3.110619e+03,7.283681e+02
3.113511e+03,7.179055e+02
3.116404e+03,7.080073e+02
3.119297e+03,7.601331e+02
3.122189e+03,7.310613e+02
3.125082e+03,7.308183e+02
3.127975e+03,6.977485e+02
3.130868e+03,7.295678e+02
3.133760e+03,7.287266e+02
3.136653e+03,6.925842e+02
3.139546e+03,7.343844e+02
3.142438e+03,6.762123e+02
3.145331e+03,6.878931e+02
3.148224e+03,7.233680e+02
3.151116e+03,7.132581e+02
3.154009e+03,7.221056e+02
3.156902e+03,7.059508e+02
3.159795e+03,7.194196e+02
3.162687e+03,6.965779e+02
3.165580e+03,7.230258e+02
3.168473e+03,7.265638e+02
3.171365e+03,7.153681e+02
3.174258e+03,7.123401e+02
3.177151e+03,6.719870e+02
3.180043e+03,7.238936e+02
3.182936e+03,6.885681e+02
3.185829e+03,6.930371e+02
3.188722e+03,7.136901e+02
3.191614e+03,7.430052e+02
3.194507e+03,7.388698e+02
3.197400e+03,6.947258e+02
3.200292e+03,7.346490e+02
3.203185e+03,0.000000e+00
3.206078e+03,0.000000e+00
3.208970e+03,0.000000e+00
3.211863e+03,0.000000e+00
3.214756e+03,0.000000e+00
3.217649e+03,0.000000e+00
3.220541e+03,0.000000e+00
3.223434e+03,0.000000e+00
3.226327e+03,0.000000e+00
3.229219e+03,0.000000e+00
3.232112e+03,0.000000e+00
3.235005e+03,0.000000e+00
3.237897e+03,0.000000e+00
3.240790e+03,0.000000e+00
3.243683e+03,0.000000e+00
3.246576e+03,0.000000e+00
3.249468e+03,0.000000e+00
3.252361e+03,0.000000e+00
3.255254e+03,0.000000e+00
3.258146e+03,0.000000e+00
3.261039e+03,0.000000e+00
3.263932e+03,0.000000e+00
3.266824e+03,0.000000e+00
3.269717e+03,0.000000e+00
3.272610e+03,0.000000e+00
3.275503e+03,0.000000e+00
3.278395e+03,0.000000e+00
3.281288e+03,0.000000e+00
3.284181e+03,0.000000e+00
3.287073e+03,0.000000e+00
3.289966e+03,0.000000e+00
3.292859e+03,0.000000e+00
3.295751e+03,0.000000e+00
3.298644e+03,0.000000e+00
3.301537e+03,0.000000e+00
3.304430e+03,0.000000e+00
3.307322e+03,0.000000e+00
3.310215e+03,0.000000e+00
3.313108e+03,0.000000e+00
3.316000e+03,0.000000e+00
3.318893e+03,0.000000e+00
3.321786e+03,0.000000e+00
3.324678e+03,0.000000e+00
3.327571e+03,0.000000e+00
3.330464e+03,0.000000e+00
3.333357e+03,0.000000e+00
3.336249e+03,0.000000e+00
3.339142e+03,0.000000e+00
3.342035e+03,0.000000e+00
3.344927e+03,0.000000e+00
3.347820e+03,0.000000e+00
3.350713e+03,0.000000e+00
3.353605e+03,0.000000e+00
3.356498e+03,0.000000e+00
3.359391e+03,0.000000e+00
3.362284e+03,0.000000e+00
3.365176e+03,0.000000e+00
3.368069e+03,0.000000e+00
3.370962e+03,0.000000e+00
3.373854e+03,0.000000e+00
3.376747e+03,0.000000e+00
3.379640e+03,0.000000e+00
3.382532e+03,0.000000e+00
3.385425e+03,0.000000e+00
3.388318e+03,0.000000e+00
3.391211e+03,0.000000e+00
3.394103e+03,0.000000e+00
3.396996e+03,0.000000e+00
3.399889e+03,0.000000e+00
3.402781e+03,0.000000e+00
3.405674e+03,0.000000e+00
3.408567e+03,0.000000e+00
3.411459e+03,0.000000e+00
3.414352e+03,0.000000e+00
3.417245e+03,0.000000e+00
3.420138e+03,0.000000e+00
3.423030e+03,0.000000e+00
3.425923e+03,0.000000e+00
3.428816e+03,0.000000e+00
3.431708e+03,0.000000e+00
3.434601e+03,0.000000e+00
3.437494e+03,0.000000e+00
3.440386e+03,0.000000e+00
3.443279e+03,0.000000e+00
3.446172e+03,0.000000e+00
3.449065e+03,0.000000e+00
3.451957e+03,0.000000e+00
3.454850e+03,0.000000e+00
3.457743e+03,0.000000e+00
3.460635e+03,0.000000e+00
3.463528e+03,0.000000e+00
3.466421e+03,0.000000e+00
3.469313e+03,0.000000e+00
3.472206e+03,0.000000e+00
3.475099e+03,0.000000e+00
3.477992e+03,0.000000e+00
3.480884e+03,0.000000e+00
3.483777e+03,0.000000e+00
3.486670e+03,0.000000e+00
3.489563e+03,0.000000e+00
3.492455e+03,0.000000e+00
3.495348e+03,0.000000e+00
3.498240e+03,0.000000e+00
3.500169e+03,0.000000e+00