File: RAMAN_data/20012023_r3/black fibre12.CSV
9.931763e+01,0.000000e+00
1.022103e+02,0.000000e+00
1.051030e+02,0.000000e+00
1.079957e+02,0.000000e+00
1.108884e+02,0.000000e+00
1.137811e+02,0.000000e+00
1.166738e+02,0.000000e+00
1.195665e+02,0.000000e+00
1.224592e+02,0.000000e+00
1.253519e+02,0.000000e+00
1.282446e+02,0.000000e+00
1.311373e+02,0.000000e+00
1.340300e+02,0.000000e+00
1.369227e+02,0.000000e+00
1.398154e+02,0.000000e+00
1.427081e+02,0.000000e+00
1.456008e+02,0.000000e+00
1.484935e+02,0.000000e+00
1.513862e+02,0.000000e+00
1.542789e+02,0.000000e+00
1.571716e+02,0.000000e+00
1.600643e+02,0.000000e+00
1.629570e+02,0.000000e+00
1.658497e+02,0.000000e+00
1.687424e+02,0.000000e+00
1.716351e+02,0.000000e+00
1.745278e+02,0.000000e+00
1.774205e+02,0.000000e+00
1.803132e+02,0.000000e+00
1.832059e+02,0.000000e+00
1.860986e+02,0.000000e+00
1.889913e+02,0.000000e+00
1.918840e+02,0.000000e+00
1.947767e+02,0.000000e+00
1.976694e+02,0.000000e+00
2.005621e+02,2.681919e+03
2.034548e+02,2.684872e+03
2.063475e+02,2.716251e+03
2.092402e+02,2.701017e+03
2.121329e+02,2.708247e+03
2.150256e+02,2.697020e+03
2.179183e+02,2.704243e+03
2.208110e+02,2.711823e+03
2.237037e+02,2.699431e+03
2.265964e+02,2.696321e+03
2.294892e+02,2.712746e+03
2.323819e+02,2.709164e+03
2.352746e+02,2.720702e+03
2.381673e+02,2.725894e+03
2.410600e+02,2.725897e+03
2.439527e+02,2.720002e+03
2.468454e+02,2.714355e+03
2.497381e+02,2.736547e+03
2.526308e+02,2.740367e+03
2.555235e+02,2.742868e+03
2.584161e+02,2.751203e+03
2.613088e+02,2.739182e+03
2.642015e+02,2.740983e+03
2.670942e+02,2.757994e+03
2.699869e+02,2.762691e+03
2.728796e+02,2.749960e+03
2.757723e+02,2.764609e+03
2.786650e+02,2.755690e+03
2.815577e+02,2.764656e+03
2.844504e+02,2.773404e+03
2.873431e+02,2.757990e+03
2.902358e+02,2.769778e+03
2.931285e+02,2.760335e+03
2.960212e+02,2.749288e+03
2.989139e+02,2.764373e+03
3.018066e+02,2.773850e+03
3.046993e+02,2.780918e+03
3.075920e+02,2.753936e+03
3.104847e+02,2.742239e+03
3.133774e+02,2.756796e+03
3.162701e+02,2.770740e+03
3.191628e+02,2.768367e+03
3.220555e+02,2.771698e+03
3.249482e+02,2.768890e+03
3.278409e+02,2.770417e+03
3.307336e+02,2.767116e+03
3.336263e+02,2.801624e+03
3.365190e+02,2.792914e+03
3.394117e+02,2.790047e+03
3.423044e+02,2.771567e+03
3.451971e+02,2.785027e+03
3.480898e+02,2.781305e+03
3.509825e+02,2.788030e+03
3.538752e+02,2.786527e+03
3.567680e+02,2.788104e+03
3.596607e+02,2.780539e+03
3.625534e+02,2.782942e+03
3.654461e+02,2.782395e+03
3.683388e+02,2.767522e+03
3.712315e+02,2.781851e+03
3.741242e+02,2.803669e+03
3.770169e+02,2.800512e+03
3.799096e+02,2.795858e+03
3.828023e+02,2.791909e+03
3.856950e+02,2.779949e+03
3.885877e+02,2.783073e+03
3.914804e+02,2.788249e+03
3.943731e+02,2.765767e+03
3.972658e+02,2.761270e+03
4.001585e+02,2.770775e+03
4.030512e+02,2.764348e+03
4.059439e+02,2.766285e+03
4.088366e+02,2.778456e+03
4.117293e+02,2.775586e+03
4.146220e+02,2.766112e+03
4.175147e+02,2.782855e+03
4.204074e+02,2.772175e+03
4.233001e+02,2.762583e+03
4.261928e+02,2.770359e+03
4.290855e+02,2.775571e+03
4.319782e+02,2.782063e+03
4.348709e+02,2.796686e+03
4.377636e+02,2.776171e+03
4.406563e+02,2.768085e+03
4.435490e+02,2.765691e+03
4.464417e+02,2.751867e+03
4.493344e+02,2.752495e+03
4.522271e+02,2.766324e+03
4.551198e+02,2.770173e+03
4.580125e+02,2.756493e+03
4.609052e+02,2.756867e+03
4.637979e+02,2.750250e+03
4.666906e+02,2.753766e+03
4.695833e+02,2.743328e+03
4.724760e+02,2.744144e+03
4.753687e+02,2.744843e+03
4.782614e+02,2.744071e+03
4.811541e+02,2.747868e+03
4.840468e+02,2.760431e+03
4.869395e+02,2.758813e+03
4.898322e+02,2.760310e+03
4.927249e+02,2.747879e+03
4.956176e+02,2.734391e+03
4.985103e+02,2.754075e+03
5.014030e+02,2.740528e+03
5.042957e+02,2.731567e+03
5.071884e+02,2.733638e+03
5.100811e+02,2.736413e+03
5.129738e+02,2.742880e+03
5.158665e+02,2.724391e+03
5.187592e+02,2.738117e+03
5.216519e+02,2.741241e+03
5.245446e+02,2.723672e+03
5.274373e+02,2.725907e+03
5.303300e+02,2.733770e+03
5.332227e+02,2.710365e+03
5.361154e+02,2.711608e+03
5.390081e+02,2.728322e+03
5.419008e+02,2.723831e+03
5.447935e+02,2.720314e+03
5.476862e+02,2.704723e+03
5.505789e+02,2.697926e+03
5.534716e+02,2.703878e+03
5.563643e+02,2.688613e+03
5.592570e+02,2.715286e+03
5.621497e+02,2.717489e+03
5.650424e+02,2.695823e+03
5.679351e+02,2.687349e+03
5.708278e+02,2.678169e+03
5.737205e+02,2.683080e+03
5.766132e+02,2.686409e+03
5.795059e+02,2.683894e+03
5.823986e+02,2.688331e+03
5.852913e+02,2.680710e+03
5.881840e+02,2.677840e+03
5.910767e+02,2.689756e+03
5.939694e+02,2.679847e+03
5.968621e+02,2.673816e+03
5.997548e+02,2.662852e+03
6.026475e+02,2.660071e+03
6.055402e+02,2.673549e+03
6.084329e+02,2.658130e+03
6.113256e+02,2.652383e+03
6.142183e+02,2.652040e+03
6.171110e+02,2.635804e+03
6.200037e+02,2.634902e+03
6.228964e+02,2.647295e+03
6.257891e+02,2.638039e+03
6.286818e+02,2.634995e+03
6.315745e+02,2.632933e+03
6.344672e+02,2.644597e+03
6.373599e+02,2.630316e+03
6.402526e+02,2.633458e+03
6.431453e+02,2.623423e+03
6.460380e+02,2.620154e+03
6.489307e+02,2.613760e+03
6.518234e+02,2.611960e+03
6.547161e+02,2.614430e+03
6.576088e+02,2.618191e+03
6.605015e+02,2.602036e+03
6.633942e+02,2.605228e+03
6.662869e+02,2.590604e+03
6.691796e+02,2.595796e+03
6.720723e+02,2.586094e+03
6.749650e+02,2.580810e+03
6.778577e+02,2.582088e+03
6.807504e+02,2.578041e+03
6.836431e+02,2.583356e+03
6.865358e+02,2.569461e+03
6.894285e+02,2.563362e+03
6.923212e+02,2.554857e+03
6.952139e+02,2.559147e+03
6.981066e+02,2.575510e+03
7.009993e+02,2.561717e+03
7.038920e+02,2.561978e+03
7.067847e+02,2.534113e+03
7.096774e+02,2.554992e+03
7.125701e+02,2.543968e+03
7.154628e+02,2.556398e+03
7.183555e+02,2.550384e+03
7.212482e+02,2.552394e+03
7.241409e+02,2.542118e+03
7.270336e+02,2.540113e+03
7.299263e+02,2.509660e+03
7.328190e+02,2.524781e+03
7.357117e+02,2.516083e+03
7.386044e+02,2.507019e+03
7.414971e+02,2.516542e+03
7.443898e+02,2.512224e+03
7.472825e+02,2.520600e+03
7.501752e+02,2.503910e+03
7.530679e+02,2.501515e+03
7.559606e+02,2.503442e+03
7.588533e+02,2.505579e+03
7.617460e+02,2.509257e+03
7.646387e+02,2.495224e+03
7.675314e+02,2.498121e+03
7.704241e+02,2.469187e+03
7.733168e+02,2.471533e+03
7.762095e+02,2.483042e+03
7.791022e+02,2.485569e+03
7.819949e+02,2.477428e+03
7.848876e+02,2.451421e+03
7.877803e+02,2.451867e+03
7.906730e+02,2.452734e+03
7.935657e+02,2.465729e+03
7.964584e+02,2.452779e+03
7.993511e+02,2.465503e+03
8.022438e+02,2.453723e+03
8.051365e+02,2.447126e+03
8.080292e+02,2.446280e+03
8.109219e+02,2.438997e+03
8.138146e+02,2.432336e+03
8.167073e+02,2.431909e+03
8.196000e+02,2.428273e+03
8.224927e+02,2.417532e+03
8.253854e+02,2.419651e+03
8.282781e+02,2.405196e+03
8.311708e+02,2.405697e+03
8.340635e+02,2.405694e+03
8.369562e+02,2.415746e+03
8.398489e+02,2.400907e+03
8.427416e+02,2.413635e+03
8.456343e+02,2.395747e+03
8.485270e+02,2.393142e+03
8.514197e+02,2.382160e+03
8.543124e+02,2.376286e+03
8.572051e+02,2.372159e+03
8.600978e+02,2.387204e+03
8.629905e+02,2.377069e+03
8.658832e+02,2.367485e+03
8.687759e+02,2.367086e+03
8.716686e+02,2.374503e+03
8.745613e+02,2.356512e+03
8.774540e+02,2.367121e+03
8.803467e+02,2.345567e+03
8.832394e+02,2.352338e+03
8.861321e+02,2.363324e+03
8.890248e+02,2.348859e+03
8.919175e+02,2.334329e+03
8.948102e+02,2.335494e+03
8.977029e+02,2.339501e+03
9.005956e+02,2.345398e+03
9.034883e+02,2.331524e+03
9.063810e+02,2.331207e+03
9.092737e+02,2.335534e+03
9.121664e+02,2.323356e+03
9.150591e+02,2.300851e+03
9.179518e+02,2.314546e+03
9.208445e+02,2.288233e+03
9.237372e+02,2.290740e+03
9.266299e+02,2.271559e+03
9.295226e+02,2.293631e+03
9.324153e+02,2.288039e+03
9.353080e+02,2.282284e+03
9.382007e+02,2.273755e+03
9.410934e+02,2.287784e+03
9.439861e+02,2.278833e+03
9.468788e+02,2.261453e+03
9.497715e+02,2.263902e+03
9.526642e+02,2.263747e+03
9.555569e+02,2.248529e+03
9.584496e+02,2.255324e+03
9.613423e+02,2.252052e+03
9.642350e+02,2.257385e+03
9.671277e+02,2.238481e+03
9.700204e+02,2.240094e+03
9.729131e+02,2.237860e+03
9.758058e+02,2.230954e+03
9.786985e+02,2.244736e+03
9.815912e+02,2.239315e+03
9.844839e+02,2.209523e+03
9.873766e+02,2.224992e+03
9.902693e+02,2.203765e+03
9.931620e+02,2.208767e+03
9.960547e+02,2.221336e+03
9.989474e+02,2.216695e+03
1.001840e+03,2.198711e+03
1.004733e+03,2.205038e+03
1.007626e+03,2.213458e+03
1.010518e+03,2.199348e+03
1.013411e+03,2.198416e+03
1.016304e+03,2.182504e+03
1.019196e+03,2.184204e+03
1.022089e+03,2.198433e+03
1.024982e+03,2.175829e+03
1.027875e+03,2.170944e+03
1.030767e+03,2.178063e+03
1.033660e+03,2.182392e+03
1.036552e+03,2.187863e+03
1.039445e+03,2.170382e+03
1.042338e+03,2.177488e+03
1.045231e+03,2.170902e+03
1.048123e+03,2.162727e+03
1.051016e+03,2.147686e+03
1.053909e+03,2.168237e+03
1.056802e+03,2.165837e+03
1.059694e+03,2.152971e+03
1.062587e+03,2.163240e+03
1.065479e+03,2.166757e+03
1.068372e+03,2.146628e+03
1.071265e+03,2.139874e+03
1.074158e+03,2.143149e+03
1.077050e+03,2.141925e+03
1.079943e+03,2.141488e+03
1.082836e+03,2.130080e+03
1.085729e+03,2.152423e+03
1.088621e+03,2.143918e+03
1.091514e+03,2.168795e+03
1.094406e+03,2.154711e+03
1.097299e+03,2.158879e+03
1.100192e+03,2.130355e+03
1.103085e+03,2.134375e+03
1.105977e+03,2.124802e+03
1.108870e+03,2.117748e+03
1.111763e+03,2.114671e+03
1.114656e+03,2.130289e+03
1.117548e+03,2.130174e+03
1.120441e+03,2.126541e+03
1.123334e+03,2.123060e+03
1.126226e+03,2.108716e+03
1.129119e+03,2.111038e+03
1.132012e+03,2.104186e+03
1.134904e+03,2.100738e+03
1.137797e+03,2.078815e+03
1.140690e+03,2.089058e+03
1.143583e+03,2.088592e+03
1.146475e+03,2.083023e+03
1.149368e+03,2.085706e+03
1.152261e+03,2.092670e+03
1.155153e+03,2.073626e+03
1.158046e+03,2.059367e+03
1.160939e+03,2.062042e+03
1.163831e+03,2.061538e+03
1.166724e+03,2.044749e+03
1.169617e+03,2.045345e+03
1.172510e+03,2.048558e+03
1.175402e+03,2.036375e+03
1.178295e+03,2.039556e+03
1.181188e+03,2.034260e+03
1.184080e+03,2.033660e+03
1.186973e+03,2.023287e+03
1.189866e+03,2.023056e+03
1.192758e+03,2.016574e+03
1.195651e+03,2.025550e+03
1.198544e+03,2.023256e+03
1.201437e+03,2.011906e+03
1.204329e+03,1.998442e+03
1.207222e+03,2.007451e+03
1.210115e+03,2.015638e+03
1.213007e+03,2.019232e+03
1.215900e+03,2.001701e+03
1.218793e+03,2.009203e+03
1.221685e+03,2.001472e+03
1.224578e+03,1.995873e+03
1.227471e+03,2.001113e+03
1.230364e+03,1.989045e+03
1.233256e+03,1.989203e+03
1.236149e+03,2.003440e+03
1.239042e+03,1.988741e+03
1.241934e+03,1.993330e+03
1.244827e+03,1.995222e+03
1.247720e+03,1.980451e+03
1.250612e+03,1.965389e+03
1.253505e+03,1.982318e+03
1.256398e+03,1.976768e+03
1.259291e+03,1.974391e+03
1.262183e+03,1.977115e+03
1.265076e+03,1.986783e+03
1.267969e+03,1.969122e+03
1.270861e+03,1.966793e+03
1.273754e+03,1.975159e+03
1.276647e+03,1.983350e+03
1.279539e+03,1.968614e+03
1.282432e+03,1.963681e+03
1.285325e+03,1.963054e+03
1.288218e+03,1.966725e+03
1.291110e+03,1.957642e+03
1.294003e+03,1.960194e+03
1.296896e+03,1.950100e+03
1.299788e+03,1.959633e+03
1.302681e+03,1.953440e+03
1.305574e+03,1.948810e+03
1.308466e+03,1.939789e+03
1.311359e+03,1.946184e+03
1.314252e+03,1.932025e+03
1.317145e+03,1.943875e+03
1.320037e+03,1.951964e+03
1.322930e+03,1.937538e+03
1.325823e+03,1.936803e+03
1.328715e+03,1.930444e+03
1.331608e+03,1.933123e+03
1.334501e+03,1.938436e+03
1.337393e+03,1.946621e+03
1.340286e+03,1.930591e+03
1.343179e+03,1.931534e+03
1.346072e+03,1.932373e+03
1.348964e+03,1.924008e+03
1.351857e+03,1.916826e+03
1.354750e+03,1.912193e+03
1.357642e+03,1.911669e+03
1.360535e+03,1.907136e+03
1.363428e+03,1.912103e+03
1.366320e+03,1.900211e+03
1.369213e+03,1.903502e+03
1.372106e+03,1.892558e+03
1.374999e+03,1.907774e+03
1.377891e+03,1.904217e+03
1.380784e+03,1.892194e+03
1.383677e+03,1.892601e+03
1.386569e+03,1.878130e+03
1.389462e+03,1.879278e+03
1.392355e+03,1.870916e+03
1.395247e+03,1.863896e+03
1.398140e+03,1.866010e+03
1.401033e+03,1.868600e+03
1.403926e+03,1.863216e+03
1.406818e+03,1.857800e+03
1.409711e+03,1.860088e+03
1.412604e+03,1.854859e+03
1.415496e+03,1.854760e+03
1.418389e+03,1.854255e+03
1.421282e+03,1.839167e+03
1.424174e+03,1.846055e+03
1.427067e+03,1.828808e+03
1.429960e+03,1.833804e+03
1.432853e+03,1.826149e+03
1.435745e+03,1.811909e+03
1.438638e+03,1.816122e+03
1.441531e+03,1.823531e+03
1.444423e+03,1.820664e+03
1.447316e+03,1.815884e+03
1.450209e+03,1.811899e+03
1.453101e+03,1.797004e+03
1.455994e+03,1.814887e+03
1.458887e+03,1.806698e+03
1.461780e+03,1.808988e+03
1.464672e+03,1.807675e+03
1.467565e+03,1.801492e+03
1.470458e+03,1.791618e+03
1.473350e+03,1.787219e+03
1.476243e+03,1.788216e+03
1.479136e+03,1.790809e+03
1.482028e+03,1.779120e+03
1.484921e+03,1.777801e+03
1.487814e+03,1.773457e+03
1.490707e+03,1.780194e+03
1.493599e+03,1.784321e+03
1.496492e+03,1.775701e+03
1.499385e+03,1.755629e+03
1.502277e+03,1.763871e+03
1.505170e+03,1.765385e+03
1.508063e+03,1.754449e+03
1.510955e+03,1.755358e+03
1.513848e+03,1.759200e+03
1.516741e+03,1.747110e+03
1.519634e+03,1.742301e+03
1.522526e+03,1.753293e+03
1.525419e+03,1.736795e+03
1.528312e+03,1.745426e+03
1.531204e+03,1.747960e+03
1.534097e+03,1.738407e+03
1.536990e+03,1.739720e+03
1.539882e+03,1.745263e+03
1.542775e+03,1.718844e+03
1.545668e+03,1.725092e+03
1.548561e+03,1.739752e+03
1.551453e+03,1.726925e+03
1.554346e+03,1.721281e+03
1.557239e+03,1.721536e+03
1.560131e+03,1.725702e+03
1.563024e+03,1.724715e+03
1.565917e+03,1.723891e+03
1.568809e+03,1.710902e+03
1.571702e+03,1.723076e+03
1.574595e+03,1.714811e+03
1.577488e+03,1.711034e+03
1.580380e+03,1.709262e+03
1.583273e+03,1.708128e+03
1.586166e+03,1.707190e+03
1.589058e+03,1.708689e+03
1.591951e+03,1.698505e+03
1.594844e+03,1.705094e+03
1.597736e+03,1.704325e+03
1.600629e+03,1.694867e+03
1.603522e+03,1.691238e+03
1.606415e+03,1.683402e+03
1.609307e+03,1.677953e+03
1.612200e+03,1.665127e+03
1.615093e+03,1.673809e+03
1.617985e+03,1.682285e+03
1.620878e+03,1.670666e+03
1.623771e+03,1.661075e+03
1.626663e+03,1.669276e+03
1.629556e+03,1.661053e+03
1.632449e+03,1.644740e+03
1.635342e+03,1.648794e+03
1.638234e+03,1.650292e+03
1.641127e+03,1.640098e+03
1.644020e+03,1.651775e+03
1.646912e+03,1.634155e+03
1.649805e+03,1.623202e+03
1.652698e+03,1.634491e+03
1.655590e+03,1.621932e+03
1.658483e+03,1.629146e+03
1.661376e+03,1.610576e+03
1.664269e+03,1.616792e+03
1.667161e+03,1.618175e+03
1.670054e+03,1.603591e+03
1.672947e+03,1.606862e+03
1.675839e+03,1.605334e+03
1.678732e+03,1.596681e+03
1.681625e+03,1.588728e+03
1.684517e+03,1.594518e+03
1.687410e+03,1.592419e+03
1.690303e+03,1.609356e+03
1.693196e+03,1.591676e+03
1.696088e+03,1.585860e+03
1.698981e+03,1.599924e+03
1.701874e+03,1.581040e+03
1.704766e+03,1.586313e+03
1.707659e+03,1.567579e+03
1.710552e+03,1.579252e+03
1.713444e+03,1.562560e+03
1.716337e+03,1.562870e+03
1.719230e+03,1.562283e+03
1.722123e+03,1.570553e+03
1.725015e+03,1.552328e+03
1.727908e+03,1.554536e+03
1.730801e+03,1.543428e+03
1.733693e+03,1.544891e+03
1.736586e+03,1.554198e+03
1.739479e+03,1.539355e+03
1.742371e+03,1.523227e+03
1.745264e+03,1.541214e+03
1.748157e+03,1.532383e+03
1.751050e+03,1.527979e+03
1.753942e+03,1.536825e+03
1.756835e+03,1.530865e+03
1.759728e+03,1.512560e+03
1.762620e+03,1.522362e+03
1.765513e+03,1.522850e+03
1.768406e+03,1.516426e+03
1.771298e+03,1.504599e+03
1.774191e+03,1.501941e+03
1.777084e+03,1.510544e+03
1.779977e+03,1.497946e+03
1.782869e+03,1.503746e+03
1.785762e+03,1.495795e+03
1.788655e+03,1.497526e+03
1.791547e+03,1.486969e+03
1.794440e+03,1.489072e+03
1.797333e+03,1.489011e+03
1.800225e+03,1.481848e+03
1.803118e+03,1.477245e+03
1.806011e+03,1.483290e+03
1.808904e+03,1.471449e+03
1.811796e+03,1.461344e+03
1.814689e+03,1.469187e+03
1.817582e+03,1.476119e+03
1.820474e+03,1.472563e+03
1.823367e+03,1.464473e+03
1.826260e+03,1.441865e+03
1.829152e+03,1.453763e+03
1.832045e+03,1.456337e+03
1.834938e+03,1.440419e+03
1.837831e+03,1.445475e+03
1.840723e+03,1.452666e+03
1.843616e+03,1.435297e+03
1.846509e+03,1.433347e+03
1.849401e+03,1.435063e+03
1.852294e+03,1.426089e+03
1.855187e+03,1.417365e+03
1.858079e+03,1.414646e+03
1.860972e+03,1.410703e+03
1.863865e+03,1.428683e+03
1.866758e+03,1.414840e+03
1.869650e+03,1.395378e+03
1.872543e+03,1.413828e+03
1.875436e+03,1.412819e+03
1.878328e+03,1.399672e+03
1.881221e+03,1.381432e+03
1.884114e+03,1.392245e+03
1.887006e+03,1.393820e+03
1.889899e+03,1.384556e+03
1.892792e+03,1.385605e+03
1.895685e+03,1.381186e+03
1.898577e+03,1.386947e+03
1.901470e+03,1.384403e+03
1.904363e+03,1.370190e+03
1.907255e+03,1.377012e+03
1.910148e+03,1.358303e+03
1.913041e+03,1.374166e+03
1.915933e+03,1.356735e+03
1.918826e+03,1.366585e+03
1.921719e+03,1.352461e+03
1.924612e+03,1.355860e+03
1.927504e+03,1.330588e+03
1.930397e+03,1.349980e+03
1.933290e+03,1.329611e+03
1.936182e+03,1.344781e+03
1.939075e+03,1.337490e+03
1.941968e+03,1.352038e+03
1.944860e+03,1.329148e+03
1.947753e+03,1.322943e+03
1.950646e+03,1.307839e+03
1.953539e+03,1.338215e+03
1.956431e+03,1.316281e+03
1.959324e+03,1.317646e+03
1.962217e+03,1.319114e+03
1.965109e+03,1.291228e+03
1.968002e+03,1.319732e+03
1.970895e+03,1.315651e+03
1.973787e+03,1.290190e+03
1.976680e+03,1.300066e+03
1.979573e+03,1.298879e+03
1.982466e+03,1.291438e+03
1.985358e+03,1.289699e+03
1.988251e+03,1.277118e+03
1.991144e+03,1.295868e+03
1.994036e+03,1.286367e+03
1.996929e+03,1.278120e+03
1.999822e+03,1.269568e+03
2.002714e+03,1.269409e+03
2.005607e+03,1.273925e+03
2.008500e+03,1.268717e+03
2.011393e+03,1.258732e+03
2.014285e+03,1.253021e+03
2.017178e+03,1.239646e+03
2.020071e+03,1.243472e+03
2.022963e+03,1.264854e+03
2.025856e+03,1.235294e+03
2.028749e+03,1.230919e+03
2.031641e+03,1.229843e+03
2.034534e+03,1.236134e+03
2.037427e+03,1.221097e+03
2.040320e+03,1.219226e+03
2.043212e+03,1.217356e+03
2.046105e+03,1.217218e+03
2.048998e+03,1.212297e+03
2.051890e+03,1.207000e+03
2.054783e+03,1.204201e+03
2.057676e+03,1.201032e+03
2.060568e+03,1.204915e+03
2.063461e+03,1.188080e+03
2.066354e+03,1.188488e+03
2.069247e+03,1.194307e+03
2.072139e+03,1.177125e+03
2.075032e+03,1.188922e+03
2.077925e+03,1.195746e+03
2.080817e+03,1.192290e+03
2.083710e+03,1.176198e+03
2.086603e+03,1.165665e+03
2.089496e+03,1.176101e+03
2.092388e+03,1.172731e+03
2.095281e+03,1.156673e+03
2.098174e+03,1.160812e+03
2.101066e+03,1.155514e+03
2.103959e+03,1.161284e+03
2.106852e+03,1.145668e+03
2.109744e+03,1.148951e+03
2.112637e+03,1.153605e+03
2.115530e+03,1.123436e+03
2.118422e+03,1.116994e+03
2.121315e+03,1.148953e+03
2.124208e+03,1.126600e+03
2.127101e+03,1.120002e+03
2.129993e+03,1.128682e+03
2.132886e+03,1.117339e+03
2.135779e+03,1.104426e+03
2.138671e+03,1.122562e+03
2.141564e+03,1.102543e+03
2.144457e+03,1.109135e+03
2.147350e+03,1.100859e+03
2.150242e+03,1.100989e+03
2.153135e+03,1.102848e+03
2.156028e+03,1.096029e+03
2.158920e+03,1.090892e+03
2.161813e+03,1.081434e+03
2.164706e+03,1.094369e+03
2.167598e+03,1.087583e+03
2.170491e+03,1.096197e+03
2.173384e+03,1.069618e+03
2.176277e+03,1.079036e+03
2.179169e+03,1.083733e+03
2.182062e+03,1.062763e+03
2.184955e+03,1.069383e+03
2.187847e+03,1.062618e+03
2.190740e+03,1.064767e+03
2.193633e+03,1.050445e+03
2.196525e+03,1.052156e+03
2.199418e+03,1.067612e+03
2.202311e+03,1.055186e+03
2.205204e+03,1.035917e+03
2.208096e+03,1.051287e+03
2.210989e+03,1.026523e+03
2.213882e+03,1.042872e+03
2.216774e+03,1.037684e+03
2.219667e+03,1.037098e+03
2.222560e+03,1.033318e+03
2.225452e+03,1.019816e+03
2.228345e+03,1.008022e+03
2.231238e+03,1.028600e+03
2.234131e+03,1.009429e+03
2.237023e+03,1.001640e+03
2.239916e+03,1.007158e+03
2.242809e+03,1.006976e+03
2.245701e+03,1.007768e+03
2.248594e+03,9.983768e+02
2.251487e+03,9.855658e+02
2.254379e+03,9.929609e+02
2.257272e+03,9.832011e+02
2.260165e+03,9.990250e+02
2.263058e+03,9.916976e+02
2.265950e+03,9.829177e+02
2.268843e+03,9.828015e+02
2.271736e+03,9.655663e+02
2.274628e+03,9.601846e+02
2.277521e+03,9.710217e+02
2.280414e+03,9.836835e+02
2.283306e+03,9.772907e+02
2.286199e+03,9.456749e+02
2.289092e+03,9.550979e+02
2.291985e+03,9.604518e+02
2.294877e+03,9.533458e+02
2.297770e+03,9.634446e+02
2.300663e+03,9.540946e+02
2.303555e+03,9.517658e+02
2.306448e+03,9.402722e+02
2.309341e+03,9.366973e+02
2.312233e+03,9.460389e+02
2.315126e+03,9.291853e+02
2.318019e+03,9.339305e+02
2.320912e+03,9.178445e+02
2.323804e+03,9.339542e+02
2.326697e+03,9.301636e+02
2.329590e+03,9.211722e+02
2.332482e+03,9.129465e+02
2.335375e+03,9.058192e+02
2.338268e+03,9.182592e+02
2.341160e+03,9.106512e+02
2.344053e+03,9.185752e+02
2.346946e+03,9.111948e+02
2.349839e+03,9.100989e+02
2.352731e+03,9.114869e+02
2.355624e+03,8.962708e+02
2.358517e+03,9.021116e+02
2.361409e+03,8.954993e+02
2.364302e+03,9.080817e+02
2.367195e+03,8.935722e+02
2.370087e+03,8.929993e+02
2.372980e+03,8.893817e+02
2.375873e+03,8.734221e+02
2.378766e+03,8.821125e+02
2.381658e+03,8.770809e+02
2.384551e+03,8.700323e+02
2.387444e+03,8.799998e+02
2.390336e+03,8.755130e+02
2.393229e+03,8.600590e+02
2.396122e+03,8.668990e+02
2.399014e+03,8.608875e+02
2.401907e+03,8.685027e+02
2.404800e+03,8.582114e+02
2.407693e+03,8.687386e+02
2.410585e+03,8.480472e+02
2.413478e+03,8.394424e+02
2.416371e+03,8.548863e+02
2.419263e+03,8.376496e+02
2.422156e+03,8.315364e+02
2.425049e+03,8.498034e+02
2.427941e+03,8.313490e+02
2.430834e+03,8.407055e+02
2.433727e+03,8.214616e+02
2.436620e+03,8.396471e+02
2.439512e+03,8.362226e+02
2.442405e+03,8.351052e+02
2.445298e+03,8.113336e+02
2.448190e+03,8.402877e+02
2.451083e+03,8.244839e+02
2.453976e+03,8.153779e+02
2.456868e+03,8.113295e+02
2.459761e+03,8.004129e+02
2.462654e+03,8.153364e+02
2.465547e+03,8.082139e+02
2.468439e+03,7.973370e+02
2.471332e+03,8.245855e+02
2.474225e+03,8.076808e+02
2.477117e+03,7.976439e+02
2.480010e+03,7.972633e+02
2.482903e+03,8.082610e+02
2.485795e+03,7.906415e+02
2.488688e+03,7.989572e+02
2.491581e+03,7.854016e+02
2.494474e+03,7.743102e+02
2.497366e+03,7.909633e+02
2.500259e+03,7.795398e+02
2.503152e+03,7.645738e+02
2.506044e+03,7.949680e+02
2.508937e+03,7.719579e+02
2.511830e+03,7.959525e+02
2.514722e+03,7.771465e+02
2.517615e+03,7.755250e+02
2.520508e+03,7.738560e+02
2.523401e+03,7.618858e+02
2.526293e+03,7.730901e+02
2.529186e+03,7.809714e+02
2.532079e+03,7.556215e+02
2.534971e+03,7.736727e+02
2.537864e+03,7.594020e+02
2.540757e+03,7.599988e+02
2.543649e+03,7.609213e+02
2.546542e+03,7.637331e+02
2.549435e+03,7.607010e+02
2.552328e+03,7.636968e+02
2.555220e+03,7.629401e+02
2.558113e+03,7.562617e+02
2.561006e+03,7.592573e+02
2.563898e+03,7.541243e+02
2.566791e+03,7.477559e+02
2.569684e+03,7.410333e+02
2.572576e+03,7.545228e+02
2.575469e+03,7.469644e+02
2.578362e+03,7.446315e+02
2.581255e+03,7.358973e+02
2.584147e+03,7.396124e+02
2.587040e+03,7.336773e+02
2.589933e+03,7.438262e+02
2.592825e+03,7.173613e+02
2.595718e+03,7.317988e+02
2.598611e+03,7.238170e+02
2.601503e+03,7.199196e+02
2.604396e+03,7.184055e+02
2.607289e+03,7.283873e+02
2.610182e+03,7.156351e+02
2.613074e+03,7.212038e+02
2.615967e+03,7.170293e+02
2.618860e+03,7.253306e+02
2.621752e+03,7.087756e+02
2.624645e+03,7.108010e+02
2.627538e+03,7.116260e+02
2.630430e+03,6.898979e+02
2.633323e+03,7.137584e+02
2.636216e+03,6.911003e+02
2.639109e+03,6.945328e+02
2.642001e+03,6.930406e+02
2.644894e+03,6.914069e+02
2.647787e+03,6.926873e+02
2.650679e+03,6.942742e+02
2.653572e+03,6.948381e+02
2.656465e+03,6.926641e+02
2.659357e+03,6.938116e+02
2.662250e+03,6.779036e+02
2.665143e+03,6.868358e+02
2.668036e+03,6.938021e+02
2.670928e+03,6.897234e+02
2.673821e+03,6.828726e+02
2.676714e+03,6.679235e+02
2.679606e+03,6.847119e+02
2.682499e+03,6.772238e+02
2.685392e+03,6.760418e+02
2.688284e+03,6.846637e+02
2.691177e+03,6.854921e+02
2.694070e+03,6.775304e+02
2.696963e+03,6.856851e+02
2.699855e+03,6.652818e+02
2.702748e+03,6.665812e+02
2.705641e+03,6.658899e+02
2.708533e+03,6.703104e+02
2.711426e+03,6.728017e+02
2.714319e+03,6.721012e+02
2.717211e+03,6.622462e+02
2.720104e+03,6.752430e+02
2.722997e+03,6.655030e+02
2.725890e+03,6.471939e+02
2.728782e+03,6.678250e+02
2.731675e+03,6.481247e+02
2.734568e+03,6.572813e+02
2.737460e+03,6.659785e+02
2.740353e+03,6.553719e+02
2.743246e+03,6.495955e+02
2.746138e+03,6.607376e+02
2.749031e+03,6.548486e+02
2.751924e+03,6.375312e+02
2.754817e+03,6.281182e+02
2.757709e+03,6.551388e+02
2.760602e+03,6.442053e+02
2.763495e+03,6.489416e+02
2.766387e+03,6.406313e+02
2.769280e+03,6.376331e+02
2.772173e+03,6.453257e+02
2.775065e+03,6.432494e+02
2.777958e+03,6.314137e+02
2.780851e+03,6.352722e+02
2.783744e+03,6.292736e+02
2.786636e+03,6.196688e+02
2.789529e+03,6.292275e+02
2.792422e+03,6.438111e+02
2.795314e+03,6.160140e+02
2.798207e+03,6.366156e+02
2.801100e+03,6.451818e+02
2.803992e+03,6.417324e+02
2.806885e+03,6.183275e+02
2.809778e+03,6.165680e+02
2.812671e+03,6.140906e+02
2.815563e+03,6.126217e+02
2.818456e+03,6.286572e+02
2.821349e+03,6.206525e+02
2.824241e+03,6.088868e+02
2.827134e+03,6.179611e+02
2.830027e+03,6.236066e+02
2.832919e+03,6.282693e+02
2.835812e+03,6.145678e+02
2.838705e+03,6.162211e+02
2.841598e+03,6.320977e+02
2.844490e+03,6.123089e+02
2.847383e+03,6.417755e+02
2.850276e+03,6.276747e+02
2.853168e+03,6.418177e+02
2.856061e+03,6.275643e+02
2.858954e+03,6.315792e+02
2.861846e+03,6.128510e+02
2.864739e+03,6.082883e+02
2.867632e+03,6.342050e+02
2.870525e+03,6.174789e+02
2.873417e+03,6.349338e+02
2.876310e+03,6.298951e+02
2.879203e+03,6.276055e+02
2.882095e+03,6.240151e+02
2.884988e+03,6.285457e+02
2.887881e+03,6.247692e+02
2.890773e+03,6.286986e+02
2.893666e+03,6.376554e+02
2.896559e+03,6.359542e+02
2.899452e+03,6.481310e+02
2.902344e+03,6.297256e+02
2.905237e+03,6.387366e+02
2.908130e+03,6.161320e+02
2.911022e+03,6.290383e+02
2.913915e+03,6.004554e+02
2.916808e+03,5.906847e+02
2.919700e+03,6.113679e+02
2.922593e+03,6.041177e+02
2.925486e+03,6.139423e+02
2.928379e+03,5.870192e+02
2.931271e+03,5.813438e+02
2.934164e+03,6.141054e+02
2.937057e+03,5.871279e+02
2.939949e+03,5.997706e+02
2.942842e+03,5.846917e+02
2.945735e+03,5.931432e+02
2.948627e+03,5.840412e+02
2.951520e+03,5.920739e+02
2.954413e+03,5.922158e+02
2.957306e+03,6.057825e+02
2.960198e+03,6.079387e+02
2.963091e+03,5.977728e+02
2.965984e+03,5.899684e+02
2.968876e+03,5.677901e+02
2.971769e+03,5.650616e+02
2.974662e+03,5.689199e+02
2.977554e+03,5.773428e+02
2.980447e+03,5.605314e+02
2.983340e+03,5.484654e+02
2.986233e+03,5.682282e+02
2.989125e+03,5.652630e+02
2.992018e+03,5.642443e+02
2.994911e+03,5.498004e+02
2.997803e+03,5.566669e+02
3.000696e+03,5.451131e+02
3.003589e+03,5.313220e+02
3.006481e+03,5.598866e+02
3.009374e+03,5.506292e+02
3.012267e+03,5.382600e+02
3.015160e+03,5.375388e+02
3.018052e+03,5.413357e+02
3.020945e+03,5.469175e+02
3.023838e+03,5.416808e+02
3.026730e+03,5.481552e+02
3.029623e+03,5.349279e+02
3.032516e+03,5.401138e+02
3.035408e+03,5.362733e+02
3.038301e+03,5.435740e+02
3.041194e+03,5.437339e+02
3.044087e+03,5.406687e+02
3.046979e+03,5.261904e+02
3.049872e+03,5.402120e+02
3.052765e+03,5.229109e+02
3.055657e+03,5.104690e+02
3.058550e+03,5.139194e+02
3.061443e+03,5.471461e+02
3.064335e+03,5.349462e+02
3.067228e+03,5.337285e+02
3.070121e+03,5.344642e+02
3.073014e+03,5.184573e+02
3.075906e+03,5.458925e+02
3.078799e+03,5.213181e+02
3.081692e+03,5.399465e+02
3.084584e+03,5.319639e+02
3.087477e+03,5.192797e+02
3.090370e+03,5.227511e+02
3.093262e+03,5.247141e+02
3.096155e+03,4.984391e+02
3.099048e+03,5.140063e+02
3.101941e+03,5.300900e+02
3.104833e+03,5.377479e+02
3.107726e+03,5.200409e+02
3.110619e+03,5.445647e+02
3.113511e+03,4.993866e+02
3.116404e+03,5.038992e+02
3.119297e+03,5.537169e+02
3.122189e+03,5.149895e+02
3.125082e+03,5.385324e+02
3.127975e+03,5.296368e+02
3.130868e+03,5.401492e+02
3.133760e+03,5.341441e+02
3.136653e+03,4.984684e+02
3.139546e+03,5.350989e+02
3.142438e+03,5.227841e+02
3.145331e+03,5.132433e+02
3.148224e+03,5.155870e+02
3.151116e+03,5.158218e+02
3.154009e+03,5.267424e+02
3.156902e+03,5.302709e+02
3.159795e+03,5.077803e+02
3.162687e+03,5.210452e+02
3.165580e+03,5.427595e+02
3.168473e+03,5.234188e+02
3.171365e+03,5.331280e+02
3.174258e+03,5.509651e+02
3.177151e+03,5.216747e+02
3.180043e+03,5.437528e+02
3.182936e+03,5.453795e+02
3.185829e+03,5.396890e+02
3.188722e+03,5.290596e+02
3.191614e+03,5.461183e+02
3.194507e+03,5.309488e+02
3.197400e+03,5.120475e+02
3.200292e+03,5.492805e+02
3.203185e+03,0.000000e+00
3.206078e+03,0.000000e+00
3.208970e+03,0.000000e+00
3.211863e+03,0.000000e+00
3.214756e+03,0.000000e+00
3.217649e+03,0.000000e+00
3.220541e+03,0.000000e+00
3.223434e+03,0.000000e+00
3.226327e+03,0.000000e+00
3.229219e+03,0.000000e+00
3.232112e+03,0.000000e+00
3.235005e+03,0.000000e+00
3.237897e+03,0.000000e+00
3.240790e+03,0.000000e+00
3.243683e+03,0.000000e+00
3.246576e+03,0.000000e+00
3.249468e+03,0.000000e+00
3.252361e+03,0.000000e+00
3.255254e+03,0.000000e+00
3.258146e+03,0.000000e+00
3.261039e+03,0.000000e+00
3.263932e+03,0.000000e+00
3.266824e+03,0.000000e+00
3.269717e+03,0.000000e+00
3.272610e+03,0.000000e+00
3.275503e+03,0.000000e+00
3.278395e+03,0.000000e+00
3.281288e+03,0.000000e+00
3.284181e+03,0.000000e+00
3.287073e+03,0.000000e+00
3.289966e+03,0.000000e+00
3.292859e+03,0.000000e+00
3.295751e+03,0.000000e+00
3.298644e+03,0.000000e+00
3.301537e+03,0.000000e+00
3.304430e+03,0.000000e+00
3.307322e+03,0.000000e+00
3.310215e+03,0.000000e+00
3.313108e+03,0.000000e+00
3.316000e+03,0.000000e+00
3.318893e+03,0.000000e+00
3.321786e+03,0.000000e+00
3.324678e+03,0.000000e+00
3.327571e+03,0.000000e+00
3.330464e+03,0.000000e+00
3.333357e+03,0.000000e+00
3.336249e+03,0.000000e+00
3.339142e+03,0.000000e+00
3.342035e+03,0.000000e+00
3.344927e+03,0.000000e+00
3.347820e+03,0.000000e+00
3.350713e+03,0.000000e+00
3.353605e+03,0.000000e+00
3.356498e+03,0.000000e+00
3.359391e+03,0.000000e+00
3.362284e+03,0.000000e+00
3.365176e+03,0.000000e+00
3.368069e+03,0.000000e+00
3.370962e+03,0.000000e+00
3.373854e+03,0.000000e+00
3.376747e+03,0.000000e+00
3.379640e+03,0.000000e+00
3.382532e+03,0.000000e+00
3.385425e+03,0.000000e+00
3.388318e+03,0.000000e+00
3.391211e+03,0.000000e+00
3.394103e+03,0.000000e+00
3.396996e+03,0.000000e+00
3.399889e+03,0.000000e+00
3.402781e+03,0.000000e+00
3.405674e+03,0.000000e+00
3.408567e+03,0.000000e+00
3.411459e+03,0.000000e+00
3.414352e+03,0.000000e+00
3.417245e+03,0.000000e+00
3.420138e+03,0.000000e+00
3.423030e+03,0.000000e+00
3.425923e+03,0.000000e+00
3.428816e+03,0.000000e+00
3.431708e+03,0.000000e+00
3.434601e+03,0.000000e+00
3.437494e+03,0.000000e+00
3.440386e+03,0.000000e+00
3.443279e+03,0.000000e+00
3.446172e+03,0.000000e+00
3.449065e+03,0.000000e+00
3.451957e+03,0.000000e+00
3.454850e+03,0.000000e+00
3.457743e+03,0.000000e+00
3.460635e+03,0.000000e+00
3.463528e+03,0.000000e+00
3.466421e+03,0.000000e+00
3.469313e+03,0.000000e+00
3.472206e+03,0.000000e+00
3.475099e+03,0.000000e+00
3.477992e+03,0.000000e+00
3.480884e+03,0.000000e+00
3.483777e+03,0.000000e+00
3.486670e+03,0.000000e+00
3.489563e+03,0.000000e+00
3.492455e+03,0.000000e+00
3.495348e+03,0.000000e+00
3.498240e+03,0.000000e+00
3.500169e+03,0.000000e+00