File: RAMAN_data/20012023_r3/black fibre9.CSV
9.931763e+01,0.000000e+00
1.022103e+02,0.000000e+00
1.051030e+02,0.000000e+00
1.079957e+02,0.000000e+00
1.108884e+02,0.000000e+00
1.137811e+02,0.000000e+00
1.166738e+02,0.000000e+00
1.195665e+02,0.000000e+00
1.224592e+02,0.000000e+00
1.253519e+02,0.000000e+00
1.282446e+02,0.000000e+00
1.311373e+02,0.000000e+00
1.340300e+02,0.000000e+00
1.369227e+02,0.000000e+00
1.398154e+02,0.000000e+00
1.427081e+02,0.000000e+00
1.456008e+02,0.000000e+00
1.484935e+02,0.000000e+00
1.513862e+02,0.000000e+00
1.542789e+02,0.000000e+00
1.571716e+02,0.000000e+00
1.600643e+02,0.000000e+00
1.629570e+02,0.000000e+00
1.658497e+02,0.000000e+00
1.687424e+02,0.000000e+00
1.716351e+02,0.000000e+00
1.745278e+02,0.000000e+00
1.774205e+02,0.000000e+00
1.803132e+02,0.000000e+00
1.832059e+02,0.000000e+00
1.860986e+02,0.000000e+00
1.889913e+02,0.000000e+00
1.918840e+02,0.000000e+00
1.947767e+02,0.000000e+00
1.976694e+02,0.000000e+00
2.005621e+02,5.805755e+03
2.034548e+02,5.826507e+03
2.063475e+02,5.831297e+03
2.092402e+02,5.796313e+03
2.121329e+02,5.828704e+03
2.150256e+02,5.819243e+03
2.179183e+02,5.830954e+03
2.208110e+02,5.836615e+03
2.237037e+02,5.836003e+03
2.265964e+02,5.818373e+03
2.294892e+02,5.816454e+03
2.323819e+02,5.832112e+03
2.352746e+02,5.825867e+03
2.381673e+02,5.848099e+03
2.410600e+02,5.828879e+03
2.439527e+02,5.843526e+03
2.468454e+02,5.826814e+03
2.497381e+02,5.837242e+03
2.526308e+02,5.842877e+03
2.555235e+02,5.843672e+03
2.584161e+02,5.826443e+03
2.613088e+02,5.854981e+03
2.642015e+02,5.867067e+03
2.670942e+02,5.866243e+03
2.699869e+02,5.884749e+03
2.728796e+02,5.846201e+03
2.757723e+02,5.866875e+03
2.786650e+02,5.871287e+03
2.815577e+02,5.870730e+03
2.844504e+02,5.877593e+03
2.873431e+02,5.867782e+03
2.902358e+02,5.856222e+03
2.931285e+02,5.858925e+03
2.960212e+02,5.861157e+03
2.989139e+02,5.867676e+03
3.018066e+02,5.869443e+03
3.046993e+02,5.867138e+03
3.075920e+02,5.861331e+03
3.104847e+02,5.858207e+03
3.133774e+02,5.875700e+03
3.162701e+02,5.857957e+03
3.191628e+02,5.857909e+03
3.220555e+02,5.862464e+03
3.249482e+02,5.876398e+03
3.278409e+02,5.879781e+03
3.307336e+02,5.860716e+03
3.336263e+02,5.849491e+03
3.365190e+02,5.842162e+03
3.394117e+02,5.863438e+03
3.423044e+02,5.845736e+03
3.451971e+02,5.853532e+03
3.480898e+02,5.853611e+03
3.509825e+02,5.836115e+03
3.538752e+02,5.858881e+03
3.567680e+02,5.852545e+03
3.596607e+02,5.851747e+03
3.625534e+02,5.833978e+03
3.654461e+02,5.826407e+03
3.683388e+02,5.832212e+03
3.712315e+02,5.845971e+03
3.741242e+02,5.836258e+03
3.770169e+02,5.823166e+03
3.799096e+02,5.834018e+03
3.828023e+02,5.802039e+03
3.856950e+02,5.815501e+03
3.885877e+02,5.810263e+03
3.914804e+02,5.814797e+03
3.943731e+02,5.764679e+03
3.972658e+02,5.749469e+03
4.001585e+02,5.756885e+03
4.030512e+02,5.786771e+03
4.059439e+02,5.768590e+03
4.088366e+02,5.776336e+03
4.117293e+02,5.754511e+03
4.146220e+02,5.746800e+03
4.175147e+02,5.774969e+03
4.204074e+02,5.768285e+03
4.233001e+02,5.760017e+03
4.261928e+02,5.752106e+03
4.290855e+02,5.740372e+03
4.319782e+02,5.724624e+03
4.348709e+02,5.756686e+03
4.377636e+02,5.748384e+03
4.406563e+02,5.716543e+03
4.435490e+02,5.701541e+03
4.464417e+02,5.706408e+03
4.493344e+02,5.742767e+03
4.522271e+02,5.713345e+03
4.551198e+02,5.718767e+03
4.580125e+02,5.692792e+03
4.609052e+02,5.664489e+03
4.637979e+02,5.669757e+03
4.666906e+02,5.676431e+03
4.695833e+02,5.672892e+03
4.724760e+02,5.646189e+03
4.753687e+02,5.646828e+03
4.782614e+02,5.651962e+03
4.811541e+02,5.638736e+03
4.840468e+02,5.638285e+03
4.869395e+02,5.611245e+03
4.898322e+02,5.618732e+03
4.927249e+02,5.590096e+03
4.956176e+02,5.624283e+03
4.985103e+02,5.613424e+03
5.014030e+02,5.579685e+03
5.042957e+02,5.578927e+03
5.071884e+02,5.579186e+03
5.100811e+02,5.578717e+03
5.129738e+02,5.581483e+03
5.158665e+02,5.557842e+03
5.187592e+02,5.576289e+03
5.216519e+02,5.565966e+03
5.245446e+02,5.566405e+03
5.274373e+02,5.534515e+03
5.303300e+02,5.517227e+03
5.332227e+02,5.485932e+03
5.361154e+02,5.499948e+03
5.390081e+02,5.511344e+03
5.419008e+02,5.504626e+03
5.447935e+02,5.511447e+03
5.476862e+02,5.484728e+03
5.505789e+02,5.468352e+03
5.534716e+02,5.472775e+03
5.563643e+02,5.448889e+03
5.592570e+02,5.451452e+03
5.621497e+02,5.448474e+03
5.650424e+02,5.458298e+03
5.679351e+02,5.441789e+03
5.708278e+02,5.422505e+03
5.737205e+02,5.447551e+03
5.766132e+02,5.439594e+03
5.795059e+02,5.417602e+03
5.823986e+02,5.409439e+03
5.852913e+02,5.397881e+03
5.881840e+02,5.391835e+03
5.910767e+02,5.383909e+03
5.939694e+02,5.393866e+03
5.968621e+02,5.373291e+03
5.997548e+02,5.361305e+03
6.026475e+02,5.359033e+03
6.055402e+02,5.371563e+03
6.084329e+02,5.336661e+03
6.113256e+02,5.328948e+03
6.142183e+02,5.326198e+03
6.171110e+02,5.314815e+03
6.200037e+02,5.295608e+03
6.228964e+02,5.305624e+03
6.257891e+02,5.315663e+03
6.286818e+02,5.282441e+03
6.315745e+02,5.280778e+03
6.344672e+02,5.267845e+03
6.373599e+02,5.252599e+03
6.402526e+02,5.229882e+03
6.431453e+02,5.263922e+03
6.460380e+02,5.239359e+03
6.489307e+02,5.237728e+03
6.518234e+02,5.241587e+03
6.547161e+02,5.249836e+03
6.576088e+02,5.208440e+03
6.605015e+02,5.201619e+03
6.633942e+02,5.193162e+03
6.662869e+02,5.211498e+03
6.691796e+02,5.216551e+03
6.720723e+02,5.202397e+03
6.749650e+02,5.183141e+03
6.778577e+02,5.157504e+03
6.807504e+02,5.158768e+03
6.836431e+02,5.174331e+03
6.865358e+02,5.150214e+03
6.894285e+02,5.127952e+03
6.923212e+02,5.135048e+03
6.952139e+02,5.106688e+03
6.981066e+02,5.112161e+03
7.009993e+02,5.116073e+03
7.038920e+02,5.106000e+03
7.067847e+02,5.071685e+03
7.096774e+02,5.049252e+03
7.125701e+02,5.058874e+03
7.154628e+02,5.063680e+03
7.183555e+02,5.045068e+03
7.212482e+02,5.021159e+03
7.241409e+02,5.027802e+03
7.270336e+02,5.024372e+03
7.299263e+02,5.053917e+03
7.328190e+02,5.017665e+03
7.357117e+02,5.012424e+03
7.386044e+02,4.993205e+03
7.414971e+02,4.970659e+03
7.443898e+02,4.953438e+03
7.472825e+02,4.988591e+03
7.501752e+02,4.939372e+03
7.530679e+02,4.947071e+03
7.559606e+02,4.938479e+03
7.588533e+02,4.945305e+03
7.617460e+02,4.958078e+03
7.646387e+02,4.919583e+03
7.675314e+02,4.916698e+03
7.704241e+02,4.893321e+03
7.733168e+02,4.888291e+03
7.762095e+02,4.908437e+03
7.791022e+02,4.897213e+03
7.819949e+02,4.855755e+03
7.848876e+02,4.876398e+03
7.877803e+02,4.856597e+03
7.906730e+02,4.863327e+03
7.935657e+02,4.861577e+03
7.964584e+02,4.836809e+03
7.993511e+02,4.814205e+03
8.022438e+02,4.793022e+03
8.051365e+02,4.782486e+03
8.080292e+02,4.796258e+03
8.109219e+02,4.795562e+03
8.138146e+02,4.763578e+03
8.167073e+02,4.774633e+03
8.196000e+02,4.786406e+03
8.224927e+02,4.774339e+03
8.253854e+02,4.758162e+03
8.282781e+02,4.765053e+03
8.311708e+02,4.744550e+03
8.340635e+02,4.727541e+03
8.369562e+02,4.729735e+03
8.398489e+02,4.720256e+03
8.427416e+02,4.729052e+03
8.456343e+02,4.711541e+03
8.485270e+02,4.688380e+03
8.514197e+02,4.692862e+03
8.543124e+02,4.696214e+03
8.572051e+02,4.696953e+03
8.600978e+02,4.686530e+03
8.629905e+02,4.676879e+03
8.658832e+02,4.654506e+03
8.687759e+02,4.651211e+03
8.716686e+02,4.633504e+03
8.745613e+02,4.636155e+03
8.774540e+02,4.622976e+03
8.803467e+02,4.622510e+03
8.832394e+02,4.616319e+03
8.861321e+02,4.622669e+03
8.890248e+02,4.594537e+03
8.919175e+02,4.578309e+03
8.948102e+02,4.574120e+03
8.977029e+02,4.573486e+03
9.005956e+02,4.557758e+03
9.034883e+02,4.550094e+03
9.063810e+02,4.534412e+03
9.092737e+02,4.532038e+03
9.121664e+02,4.536551e+03
9.150591e+02,4.524247e+03
9.179518e+02,4.522732e+03
9.208445e+02,4.489682e+03
9.237372e+02,4.490161e+03
9.266299e+02,4.472860e+03
9.295226e+02,4.474076e+03
9.324153e+02,4.480869e+03
9.353080e+02,4.463669e+03
9.382007e+02,4.443099e+03
9.410934e+02,4.443007e+03
9.439861e+02,4.432533e+03
9.468788e+02,4.447745e+03
9.497715e+02,4.410122e+03
9.526642e+02,4.412026e+03
9.555569e+02,4.386764e+03
9.584496e+02,4.400573e+03
9.613423e+02,4.399167e+03
9.642350e+02,4.401642e+03
9.671277e+02,4.367397e+03
9.700204e+02,4.358104e+03
9.729131e+02,4.360978e+03
9.758058e+02,4.356786e+03
9.786985e+02,4.353958e+03
9.815912e+02,4.348775e+03
9.844839e+02,4.339131e+03
9.873766e+02,4.317434e+03
9.902693e+02,4.333120e+03
9.931620e+02,4.340393e+03
9.960547e+02,4.326762e+03
9.989474e+02,4.326781e+03
1.001840e+03,4.303330e+03
1.004733e+03,4.282802e+03
1.007626e+03,4.289028e+03
1.010518e+03,4.278008e+03
1.013411e+03,4.271393e+03
1.016304e+03,4.254682e+03
1.019196e+03,4.240253e+03
1.022089e+03,4.260222e+03
1.024982e+03,4.246396e+03
1.027875e+03,4.237026e+03
1.030767e+03,4.236970e+03
1.033660e+03,4.242015e+03
1.036552e+03,4.242299e+03
1.039445e+03,4.219335e+03
1.042338e+03,4.205443e+03
1.045231e+03,4.228712e+03
1.048123e+03,4.214140e+03
1.051016e+03,4.191429e+03
1.053909e+03,4.201554e+03
1.056802e+03,4.207623e+03
1.059694e+03,4.189358e+03
1.062587e+03,4.165361e+03
1.065479e+03,4.184471e+03
1.068372e+03,4.195858e+03
1.071265e+03,4.203491e+03
1.074158e+03,4.190562e+03
1.077050e+03,4.201589e+03
1.079943e+03,4.192885e+03
1.082836e+03,4.205869e+03
1.085729e+03,4.194792e+03
1.088621e+03,4.197667e+03
1.091514e+03,4.202904e+03
1.094406e+03,4.202580e+03
1.097299e+03,4.191270e+03
1.100192e+03,4.172378e+03
1.103085e+03,4.165022e+03
1.105977e+03,4.146893e+03
1.108870e+03,4.129174e+03
1.111763e+03,4.133964e+03
1.114656e+03,4.142654e+03
1.117548e+03,4.143646e+03
1.120441e+03,4.144439e+03
1.123334e+03,4.126453e+03
1.126226e+03,4.103192e+03
1.129119e+03,4.112974e+03
1.132012e+03,4.121674e+03
1.134904e+03,4.114201e+03
1.137797e+03,4.109420e+03
1.140690e+03,4.101306e+03
1.143583e+03,4.105776e+03
1.146475e+03,4.114422e+03
1.149368e+03,4.100725e+03
1.152261e+03,4.118182e+03
1.155153e+03,4.107515e+03
1.158046e+03,4.101960e+03
1.160939e+03,4.108706e+03
1.163831e+03,4.112535e+03
1.166724e+03,4.097598e+03
1.169617e+03,4.086241e+03
1.172510e+03,4.062911e+03
1.175402e+03,4.053828e+03
1.178295e+03,4.031042e+03
1.181188e+03,4.022771e+03
1.184080e+03,4.009983e+03
1.186973e+03,3.986226e+03
1.189866e+03,3.989457e+03
1.192758e+03,3.966224e+03
1.195651e+03,4.008166e+03
1.198544e+03,3.986515e+03
1.201437e+03,3.976224e+03
1.204329e+03,3.972262e+03
1.207222e+03,3.968353e+03
1.210115e+03,3.982598e+03
1.213007e+03,3.980655e+03
1.215900e+03,3.943575e+03
1.218793e+03,3.930771e+03
1.221685e+03,3.920712e+03
1.224578e+03,3.937323e+03
1.227471e+03,3.925840e+03
1.230364e+03,3.918352e+03
1.233256e+03,3.899943e+03
1.236149e+03,3.915295e+03
1.239042e+03,3.902309e+03
1.241934e+03,3.915960e+03
1.244827e+03,3.906885e+03
1.247720e+03,3.891215e+03
1.250612e+03,3.893351e+03
1.253505e+03,3.884223e+03
1.256398e+03,3.871232e+03
1.259291e+03,3.883058e+03
1.262183e+03,3.868238e+03
1.265076e+03,3.874857e+03
1.267969e+03,3.860786e+03
1.270861e+03,3.862158e+03
1.273754e+03,3.883712e+03
1.276647e+03,3.890627e+03
1.279539e+03,3.883678e+03
1.282432e+03,3.893013e+03
1.285325e+03,3.893209e+03
1.288218e+03,3.911789e+03
1.291110e+03,3.897884e+03
1.294003e+03,3.905870e+03
1.296896e+03,3.883229e+03
1.299788e+03,3.877892e+03
1.302681e+03,3.870085e+03
1.305574e+03,3.875522e+03
1.308466e+03,3.877586e+03
1.311359e+03,3.899427e+03
1.314252e+03,3.897349e+03
1.317145e+03,3.900286e+03
1.320037e+03,3.916558e+03
1.322930e+03,3.914294e+03
1.325823e+03,3.921027e+03
1.328715e+03,3.896732e+03
1.331608e+03,3.894317e+03
1.334501e+03,3.893719e+03
1.337393e+03,3.884042e+03
1.340286e+03,3.862210e+03
1.343179e+03,3.842840e+03
1.346072e+03,3.843044e+03
1.348964e+03,3.832304e+03
1.351857e+03,3.803978e+03
1.354750e+03,3.783290e+03
1.357642e+03,3.783581e+03
1.360535e+03,3.757836e+03
1.363428e+03,3.776522e+03
1.366320e+03,3.764250e+03
1.369213e+03,3.739815e+03
1.372106e+03,3.742109e+03
1.374999e+03,3.720958e+03
1.377891e+03,3.722610e+03
1.380784e+03,3.718619e+03
1.383677e+03,3.725878e+03
1.386569e+03,3.727202e+03
1.389462e+03,3.689301e+03
1.392355e+03,3.696786e+03
1.395247e+03,3.700564e+03
1.398140e+03,3.684054e+03
1.401033e+03,3.672041e+03
1.403926e+03,3.659037e+03
1.406818e+03,3.649880e+03
1.409711e+03,3.648135e+03
1.412604e+03,3.651686e+03
1.415496e+03,3.650810e+03
1.418389e+03,3.643940e+03
1.421282e+03,3.648708e+03
1.424174e+03,3.629923e+03
1.427067e+03,3.645515e+03
1.429960e+03,3.642000e+03
1.432853e+03,3.626552e+03
1.435745e+03,3.621887e+03
1.438638e+03,3.617785e+03
1.441531e+03,3.613710e+03
1.444423e+03,3.614580e+03
1.447316e+03,3.604001e+03
1.450209e+03,3.594675e+03
1.453101e+03,3.583461e+03
1.455994e+03,3.590250e+03
1.458887e+03,3.570452e+03
1.461780e+03,3.573914e+03
1.464672e+03,3.565592e+03
1.467565e+03,3.539325e+03
1.470458e+03,3.549845e+03
1.473350e+03,3.561089e+03
1.476243e+03,3.547027e+03
1.479136e+03,3.544732e+03
1.482028e+03,3.514911e+03
1.484921e+03,3.528400e+03
1.487814e+03,3.515210e+03
1.490707e+03,3.511745e+03
1.493599e+03,3.511897e+03
1.496492e+03,3.492206e+03
1.499385e+03,3.493852e+03
1.502277e+03,3.488745e+03
1.505170e+03,3.479897e+03
1.508063e+03,3.476187e+03
1.510955e+03,3.461769e+03
1.513848e+03,3.452486e+03
1.516741e+03,3.466893e+03
1.519634e+03,3.455771e+03
1.522526e+03,3.448678e+03
1.525419e+03,3.461039e+03
1.528312e+03,3.441181e+03
1.531204e+03,3.425418e+03
1.534097e+03,3.444229e+03
1.536990e+03,3.433320e+03
1.539882e+03,3.440836e+03
1.542775e+03,3.417812e+03
1.545668e+03,3.431082e+03
1.548561e+03,3.423125e+03
1.551453e+03,3.415576e+03
1.554346e+03,3.426096e+03
1.557239e+03,3.430323e+03
1.560131e+03,3.401691e+03
1.563024e+03,3.427001e+03
1.565917e+03,3.396841e+03
1.568809e+03,3.417733e+03
1.571702e+03,3.413436e+03
1.574595e+03,3.434414e+03
1.577488e+03,3.416534e+03
1.580380e+03,3.424002e+03
1.583273e+03,3.405017e+03
1.586166e+03,3.401583e+03
1.589058e+03,3.375408e+03
1.591951e+03,3.359835e+03
1.594844e+03,3.338467e+03
1.597736e+03,3.349615e+03
1.600629e+03,3.361427e+03
1.603522e+03,3.364688e+03
1.606415e+03,3.383655e+03
1.609307e+03,3.384202e+03
1.612200e+03,3.427319e+03
1.615093e+03,3.406684e+03
1.617985e+03,3.368490e+03
1.620878e+03,3.319748e+03
1.623771e+03,3.282496e+03
1.626663e+03,3.276921e+03
1.629556e+03,3.254050e+03
1.632449e+03,3.238816e+03
1.635342e+03,3.244896e+03
1.638234e+03,3.239756e+03
1.641127e+03,3.241789e+03
1.644020e+03,3.212999e+03
1.646912e+03,3.205144e+03
1.649805e+03,3.198682e+03
1.652698e+03,3.177946e+03
1.655590e+03,3.185166e+03
1.658483e+03,3.181882e+03
1.661376e+03,3.171117e+03
1.664269e+03,3.168335e+03
1.667161e+03,3.165395e+03
1.670054e+03,3.140735e+03
1.672947e+03,3.132757e+03
1.675839e+03,3.112339e+03
1.678732e+03,3.112391e+03
1.681625e+03,3.109715e+03
1.684517e+03,3.109482e+03
1.687410e+03,3.104285e+03
1.690303e+03,3.095759e+03
1.693196e+03,3.090617e+03
1.696088e+03,3.092314e+03
1.698981e+03,3.082981e+03
1.701874e+03,3.085539e+03
1.704766e+03,3.087234e+03
1.707659e+03,3.060068e+03
1.710552e+03,3.071386e+03
1.713444e+03,3.067542e+03
1.716337e+03,3.062397e+03
1.719230e+03,3.075279e+03
1.722123e+03,3.069473e+03
1.725015e+03,3.078119e+03
1.727908e+03,3.073327e+03
1.730801e+03,3.055738e+03
1.733693e+03,3.024677e+03
1.736586e+03,3.036024e+03
1.739479e+03,3.008704e+03
1.742371e+03,2.996617e+03
1.745264e+03,2.988241e+03
1.748157e+03,2.973566e+03
1.751050e+03,2.973430e+03
1.753942e+03,2.959880e+03
1.756835e+03,2.954848e+03
1.759728e+03,2.944280e+03
1.762620e+03,2.931140e+03
1.765513e+03,2.929977e+03
1.768406e+03,2.917352e+03
1.771298e+03,2.924559e+03
1.774191e+03,2.910762e+03
1.777084e+03,2.905919e+03
1.779977e+03,2.893126e+03
1.782869e+03,2.888096e+03
1.785762e+03,2.887307e+03
1.788655e+03,2.875636e+03
1.791547e+03,2.863120e+03
1.794440e+03,2.859437e+03
1.797333e+03,2.859528e+03
1.800225e+03,2.837079e+03
1.803118e+03,2.845387e+03
1.806011e+03,2.825258e+03
1.808904e+03,2.837732e+03
1.811796e+03,2.819272e+03
1.814689e+03,2.811929e+03
1.817582e+03,2.819507e+03
1.820474e+03,2.806160e+03
1.823367e+03,2.787813e+03
1.826260e+03,2.770017e+03
1.829152e+03,2.782890e+03
1.832045e+03,2.785633e+03
1.834938e+03,2.763980e+03
1.837831e+03,2.769804e+03
1.840723e+03,2.758836e+03
1.843616e+03,2.757497e+03
1.846509e+03,2.752361e+03
1.849401e+03,2.741843e+03
1.852294e+03,2.729836e+03
1.855187e+03,2.709634e+03
1.858079e+03,2.731425e+03
1.860972e+03,2.707807e+03
1.863865e+03,2.707948e+03
1.866758e+03,2.694621e+03
1.869650e+03,2.687806e+03
1.872543e+03,2.680551e+03
1.875436e+03,2.673706e+03
1.878328e+03,2.675576e+03
1.881221e+03,2.636254e+03
1.884114e+03,2.632811e+03
1.887006e+03,2.641758e+03
1.889899e+03,2.637003e+03
1.892792e+03,2.630298e+03
1.895685e+03,2.622345e+03
1.898577e+03,2.609154e+03
1.901470e+03,2.612204e+03
1.904363e+03,2.585539e+03
1.907255e+03,2.588411e+03
1.910148e+03,2.597361e+03
1.913041e+03,2.592665e+03
1.915933e+03,2.557787e+03
1.918826e+03,2.570376e+03
1.921719e+03,2.562964e+03
1.924612e+03,2.560996e+03
1.927504e+03,2.573642e+03
1.930397e+03,2.534637e+03
1.933290e+03,2.525875e+03
1.936182e+03,2.525296e+03
1.939075e+03,2.536141e+03
1.941968e+03,2.499848e+03
1.944860e+03,2.506211e+03
1.947753e+03,2.506399e+03
1.950646e+03,2.482308e+03
1.953539e+03,2.483057e+03
1.956431e+03,2.487637e+03
1.959324e+03,2.476210e+03
1.962217e+03,2.471143e+03
1.965109e+03,2.438128e+03
1.968002e+03,2.460837e+03
1.970895e+03,2.458315e+03
1.973787e+03,2.447504e+03
1.976680e+03,2.421047e+03
1.979573e+03,2.446907e+03
1.982466e+03,2.443231e+03
1.985358e+03,2.404424e+03
1.988251e+03,2.414122e+03
1.991144e+03,2.379832e+03
1.994036e+03,2.399766e+03
1.996929e+03,2.366769e+03
1.999822e+03,2.386728e+03
2.002714e+03,2.368349e+03
2.005607e+03,2.355216e+03
2.008500e+03,2.342765e+03
2.011393e+03,2.340182e+03
2.014285e+03,2.348012e+03
2.017178e+03,2.375709e+03
2.020071e+03,2.316302e+03
2.022963e+03,2.325641e+03
2.025856e+03,2.311000e+03
2.028749e+03,2.332731e+03
2.031641e+03,2.298793e+03
2.034534e+03,2.303016e+03
2.037427e+03,2.288182e+03
2.040320e+03,2.278396e+03
2.043212e+03,2.280282e+03
2.046105e+03,2.261767e+03
2.048998e+03,2.269919e+03
2.051890e+03,2.267172e+03
2.054783e+03,2.250570e+03
2.057676e+03,2.236031e+03
2.060568e+03,2.216249e+03
2.063461e+03,2.232743e+03
2.066354e+03,2.242620e+03
2.069247e+03,2.212841e+03
2.072139e+03,2.226551e+03
2.075032e+03,2.219980e+03
2.077925e+03,2.221079e+03
2.080817e+03,2.180655e+03
2.083710e+03,2.186720e+03
2.086603e+03,2.152721e+03
2.089496e+03,2.175666e+03
2.092388e+03,2.165913e+03
2.095281e+03,2.157899e+03
2.098174e+03,2.147425e+03
2.101066e+03,2.140562e+03
2.103959e+03,2.123766e+03
2.106852e+03,2.139005e+03
2.109744e+03,2.123796e+03
2.112637e+03,2.112722e+03
2.115530e+03,2.106102e+03
2.118422e+03,2.106539e+03
2.121315e+03,2.112617e+03
2.124208e+03,2.116476e+03
2.127101e+03,2.087956e+03
2.129993e+03,2.074714e+03
2.132886e+03,2.066542e+03
2.135779e+03,2.064631e+03
2.138671e+03,2.069323e+03
2.141564e+03,2.043729e+03
2.144457e+03,2.060994e+03
2.147350e+03,2.043096e+03
2.150242e+03,2.049401e+03
2.153135e+03,2.041961e+03
2.156028e+03,2.027226e+03
2.158920e+03,2.010931e+03
2.161813e+03,2.009990e+03
2.164706e+03,2.018369e+03
2.167598e+03,2.001135e+03
2.170491e+03,2.020473e+03
2.173384e+03,1.996524e+03
2.176277e+03,2.006514e+03
2.179169e+03,1.977839e+03
2.182062e+03,1.964001e+03
2.184955e+03,1.985619e+03
2.187847e+03,1.963722e+03
2.190740e+03,1.953164e+03
2.193633e+03,1.951661e+03
2.196525e+03,1.944734e+03
2.199418e+03,1.958758e+03
2.202311e+03,1.951420e+03
2.205204e+03,1.942931e+03
2.208096e+03,1.938130e+03
2.210989e+03,1.903365e+03
2.213882e+03,1.901186e+03
2.216774e+03,1.915279e+03
2.219667e+03,1.909630e+03
2.222560e+03,1.914073e+03
2.225452e+03,1.864761e+03
2.228345e+03,1.875565e+03
2.231238e+03,1.876712e+03
2.234131e+03,1.875998e+03
2.237023e+03,1.865390e+03
2.239916e+03,1.840394e+03
2.242809e+03,1.850203e+03
2.245701e+03,1.855656e+03
2.248594e+03,1.832603e+03
2.251487e+03,1.832941e+03
2.254379e+03,1.823902e+03
2.257272e+03,1.836738e+03
2.260165e+03,1.813839e+03
2.263058e+03,1.820992e+03
2.265950e+03,1.818566e+03
2.268843e+03,1.812451e+03
2.271736e+03,1.802338e+03
2.274628e+03,1.790098e+03
2.277521e+03,1.794193e+03
2.280414e+03,1.795572e+03
2.283306e+03,1.796537e+03
2.286199e+03,1.789742e+03
2.289092e+03,1.756046e+03
2.291985e+03,1.741218e+03
2.294877e+03,1.741742e+03
2.297770e+03,1.780027e+03
2.300663e+03,1.761459e+03
2.303555e+03,1.735160e+03
2.306448e+03,1.749711e+03
2.309341e+03,1.729408e+03
2.312233e+03,1.738764e+03
2.315126e+03,1.720102e+03
2.318019e+03,1.727209e+03
2.320912e+03,1.706242e+03
2.323804e+03,1.704682e+03
2.326697e+03,1.697394e+03
2.329590e+03,1.704464e+03
2.332482e+03,1.697558e+03
2.335375e+03,1.685296e+03
2.338268e+03,1.682648e+03
2.341160e+03,1.689700e+03
2.344053e+03,1.700455e+03
2.346946e+03,1.687865e+03
2.349839e+03,1.674290e+03
2.352731e+03,1.651239e+03
2.355624e+03,1.673542e+03
2.358517e+03,1.660301e+03
2.361409e+03,1.653825e+03
2.364302e+03,1.634168e+03
2.367195e+03,1.636103e+03
2.370087e+03,1.647914e+03
2.372980e+03,1.628105e+03
2.375873e+03,1.615090e+03
2.378766e+03,1.631628e+03
2.381658e+03,1.609486e+03
2.384551e+03,1.613469e+03
2.387444e+03,1.606247e+03
2.390336e+03,1.607597e+03
2.393229e+03,1.589711e+03
2.396122e+03,1.607467e+03
2.399014e+03,1.578670e+03
2.401907e+03,1.596704e+03
2.404800e+03,1.592102e+03
2.407693e+03,1.581116e+03
2.410585e+03,1.559870e+03
2.413478e+03,1.555604e+03
2.416371e+03,1.564587e+03
2.419263e+03,1.561890e+03
2.422156e+03,1.558457e+03
2.425049e+03,1.554674e+03
2.427941e+03,1.543500e+03
2.430834e+03,1.539474e+03
2.433727e+03,1.544656e+03
2.436620e+03,1.542628e+03
2.439512e+03,1.528684e+03
2.442405e+03,1.529362e+03
2.445298e+03,1.532457e+03
2.448190e+03,1.535636e+03
2.451083e+03,1.512006e+03
2.453976e+03,1.507325e+03
2.456868e+03,1.508137e+03
2.459761e+03,1.503782e+03
2.462654e+03,1.494238e+03
2.465547e+03,1.495269e+03
2.468439e+03,1.494291e+03
2.471332e+03,1.464716e+03
2.474225e+03,1.477288e+03
2.477117e+03,1.489773e+03
2.480010e+03,1.500011e+03
2.482903e+03,1.482554e+03
2.485795e+03,1.468367e+03
2.488688e+03,1.459672e+03
2.491581e+03,1.449109e+03
2.494474e+03,1.459250e+03
2.497366e+03,1.465148e+03
2.500259e+03,1.457011e+03
2.503152e+03,1.467310e+03
2.506044e+03,1.425416e+03
2.508937e+03,1.441695e+03
2.511830e+03,1.449151e+03
2.514722e+03,1.437867e+03
2.517615e+03,1.455399e+03
2.520508e+03,1.442148e+03
2.523401e+03,1.408603e+03
2.526293e+03,1.419363e+03
2.529186e+03,1.403696e+03
2.532079e+03,1.417746e+03
2.534971e+03,1.401121e+03
2.537864e+03,1.403500e+03
2.540757e+03,1.395492e+03
2.543649e+03,1.395830e+03
2.546542e+03,1.414263e+03
2.549435e+03,1.409756e+03
2.552328e+03,1.381248e+03
2.555220e+03,1.413345e+03
2.558113e+03,1.395178e+03
2.561006e+03,1.380219e+03
2.563898e+03,1.375222e+03
2.566791e+03,1.372136e+03
2.569684e+03,1.378321e+03
2.572576e+03,1.380885e+03
2.575469e+03,1.396906e+03
2.578362e+03,1.365637e+03
2.581255e+03,1.365541e+03
2.584147e+03,1.356219e+03
2.587040e+03,1.348029e+03
2.589933e+03,1.361284e+03
2.592825e+03,1.339564e+03
2.595718e+03,1.353177e+03
2.598611e+03,1.361622e+03
2.601503e+03,1.323050e+03
2.604396e+03,1.345042e+03
2.607289e+03,1.331825e+03
2.610182e+03,1.328652e+03
2.613074e+03,1.330164e+03
2.615967e+03,1.309070e+03
2.618860e+03,1.327889e+03
2.621752e+03,1.341402e+03
2.624645e+03,1.317627e+03
2.627538e+03,1.316688e+03
2.630430e+03,1.307098e+03
2.633323e+03,1.315654e+03
2.636216e+03,1.300767e+03
2.639109e+03,1.281864e+03
2.642001e+03,1.300934e+03
2.644894e+03,1.314112e+03
2.647787e+03,1.302137e+03
2.650679e+03,1.276281e+03
2.653572e+03,1.289862e+03
2.656465e+03,1.294297e+03
2.659357e+03,1.277596e+03
2.662250e+03,1.257717e+03
2.665143e+03,1.274227e+03
2.668036e+03,1.271293e+03
2.670928e+03,1.269079e+03
2.673821e+03,1.268340e+03
2.676714e+03,1.252840e+03
2.679606e+03,1.241939e+03
2.682499e+03,1.262261e+03
2.685392e+03,1.256078e+03
2.688284e+03,1.252798e+03
2.691177e+03,1.262434e+03
2.694070e+03,1.256893e+03
2.696963e+03,1.227664e+03
2.699855e+03,1.228230e+03
2.702748e+03,1.225692e+03
2.705641e+03,1.238121e+03
2.708533e+03,1.230367e+03
2.711426e+03,1.217058e+03
2.714319e+03,1.241872e+03
2.717211e+03,1.241415e+03
2.720104e+03,1.234958e+03
2.722997e+03,1.233898e+03
2.725890e+03,1.211597e+03
2.728782e+03,1.232123e+03
2.731675e+03,1.194500e+03
2.734568e+03,1.204010e+03
2.737460e+03,1.202828e+03
2.740353e+03,1.217271e+03
2.743246e+03,1.194378e+03
2.746138e+03,1.200887e+03
2.749031e+03,1.182238e+03
2.751924e+03,1.207090e+03
2.754817e+03,1.162061e+03
2.757709e+03,1.180797e+03
2.760602e+03,1.166443e+03
2.763495e+03,1.195081e+03
2.766387e+03,1.201074e+03
2.769280e+03,1.177449e+03
2.772173e+03,1.180855e+03
2.775065e+03,1.185472e+03
2.777958e+03,1.177799e+03
2.780851e+03,1.159566e+03
2.783744e+03,1.157946e+03
2.786636e+03,1.161767e+03
2.789529e+03,1.148598e+03
2.792422e+03,1.180950e+03
2.795314e+03,1.159841e+03
2.798207e+03,1.156508e+03
2.801100e+03,1.154131e+03
2.803992e+03,1.143212e+03
2.806885e+03,1.145305e+03
2.809778e+03,1.157232e+03
2.812671e+03,1.154394e+03
2.815563e+03,1.148829e+03
2.818456e+03,1.131534e+03
2.821349e+03,1.143855e+03
2.824241e+03,1.119321e+03
2.827134e+03,1.140146e+03
2.830027e+03,1.127144e+03
2.832919e+03,1.138430e+03
2.835812e+03,1.123444e+03
2.838705e+03,1.153998e+03
2.841598e+03,1.129237e+03
2.844490e+03,1.131715e+03
2.847383e+03,1.126267e+03
2.850276e+03,1.138488e+03
2.853168e+03,1.143228e+03
2.856061e+03,1.129805e+03
2.858954e+03,1.118343e+03
2.861846e+03,1.103397e+03
2.864739e+03,1.117857e+03
2.867632e+03,1.137871e+03
2.870525e+03,1.106103e+03
2.873417e+03,1.133116e+03
2.876310e+03,1.125951e+03
2.879203e+03,1.125598e+03
2.882095e+03,1.099041e+03
2.884988e+03,1.161626e+03
2.887881e+03,1.154680e+03
2.890773e+03,1.105439e+03
2.893666e+03,1.111410e+03
2.896559e+03,1.121050e+03
2.899452e+03,1.120894e+03
2.902344e+03,1.139550e+03
2.905237e+03,1.128255e+03
2.908130e+03,1.089383e+03
2.911022e+03,1.109860e+03
2.913915e+03,1.117629e+03
2.916808e+03,1.100122e+03
2.919700e+03,1.099488e+03
2.922593e+03,1.060660e+03
2.925486e+03,1.100001e+03
2.928379e+03,1.059750e+03
2.931271e+03,1.082294e+03
2.934164e+03,1.073160e+03
2.937057e+03,1.057131e+03
2.939949e+03,1.060657e+03
2.942842e+03,1.050821e+03
2.945735e+03,1.070512e+03
2.948627e+03,1.045573e+03
2.951520e+03,1.102519e+03
2.954413e+03,1.056246e+03
2.957306e+03,1.137413e+03
2.960198e+03,1.108755e+03
2.963091e+03,1.042808e+03
2.965984e+03,1.062573e+03
2.968876e+03,1.056305e+03
2.971769e+03,1.049262e+03
2.974662e+03,1.022829e+03
2.977554e+03,1.024806e+03
2.980447e+03,1.032062e+03
2.983340e+03,1.018340e+03
2.986233e+03,1.001729e+03
2.989125e+03,1.036867e+03
2.992018e+03,1.054470e+03
2.994911e+03,1.023973e+03
2.997803e+03,1.020022e+03
3.000696e+03,1.001005e+03
3.003589e+03,1.056428e+03
3.006481e+03,1.040466e+03
3.009374e+03,9.923772e+02
3.012267e+03,1.009154e+03
3.015160e+03,1.005918e+03
3.018052e+03,9.825812e+02
3.020945e+03,9.938795e+02
3.023838e+03,9.979141e+02
3.026730e+03,9.781734e+02
3.029623e+03,9.896925e+02
3.032516e+03,1.014741e+03
3.035408e+03,9.400790e+02
3.038301e+03,9.900061e+02
3.041194e+03,1.008859e+03
3.044087e+03,9.666801e+02
3.046979e+03,1.007418e+03
3.049872e+03,1.012214e+03
3.052765e+03,9.897410e+02
3.055657e+03,1.012502e+03
3.058550e+03,9.859346e+02
3.061443e+03,9.927334e+02
3.064335e+03,1.002645e+03
3.067228e+03,9.944509e+02
3.070121e+03,1.018701e+03
3.073014e+03,9.986770e+02
3.075906e+03,9.858392e+02
3.078799e+03,1.017637e+03
3.081692e+03,1.017682e+03
3.084584e+03,9.765038e+02
3.087477e+03,9.786843e+02
3.090370e+03,9.971700e+02
3.093262e+03,9.352433e+02
3.096155e+03,9.730858e+02
3.099048e+03,1.001339e+03
3.101941e+03,9.466897e+02
3.104833e+03,9.435908e+02
3.107726e+03,9.543359e+02
3.110619e+03,9.527820e+02
3.113511e+03,9.432561e+02
3.116404e+03,9.321512e+02
3.119297e+03,9.797386e+02
3.122189e+03,9.682366e+02
3.125082e+03,1.001752e+03
3.127975e+03,9.510266e+02
3.130868e+03,9.931299e+02
3.133760e+03,9.908629e+02
3.136653e+03,9.365267e+02
3.139546e+03,9.460969e+02
3.142438e+03,9.880699e+02
3.145331e+03,9.840602e+02
3.148224e+03,9.918885e+02
3.151116e+03,9.579150e+02
3.154009e+03,9.942190e+02
3.156902e+03,9.668397e+02
3.159795e+03,9.362820e+02
3.162687e+03,9.369677e+02
3.165580e+03,9.885958e+02
3.168473e+03,9.958695e+02
3.171365e+03,9.790999e+02
3.174258e+03,9.541060e+02
3.177151e+03,9.496857e+02
3.180043e+03,9.839321e+02
3.182936e+03,9.461444e+02
3.185829e+03,9.401718e+02
3.188722e+03,9.642089e+02
3.191614e+03,9.642209e+02
3.194507e+03,9.705477e+02
3.197400e+03,9.413458e+02
3.200292e+03,9.680911e+02
3.203185e+03,0.000000e+00
3.206078e+03,0.000000e+00
3.208970e+03,0.000000e+00
3.211863e+03,0.000000e+00
3.214756e+03,0.000000e+00
3.217649e+03,0.000000e+00
3.220541e+03,0.000000e+00
3.223434e+03,0.000000e+00
3.226327e+03,0.000000e+00
3.229219e+03,0.000000e+00
3.232112e+03,0.000000e+00
3.235005e+03,0.000000e+00
3.237897e+03,0.000000e+00
3.240790e+03,0.000000e+00
3.243683e+03,0.000000e+00
3.246576e+03,0.000000e+00
3.249468e+03,0.000000e+00
3.252361e+03,0.000000e+00
3.255254e+03,0.000000e+00
3.258146e+03,0.000000e+00
3.261039e+03,0.000000e+00
3.263932e+03,0.000000e+00
3.266824e+03,0.000000e+00
3.269717e+03,0.000000e+00
3.272610e+03,0.000000e+00
3.275503e+03,0.000000e+00
3.278395e+03,0.000000e+00
3.281288e+03,0.000000e+00
3.284181e+03,0.000000e+00
3.287073e+03,0.000000e+00
3.289966e+03,0.000000e+00
3.292859e+03,0.000000e+00
3.295751e+03,0.000000e+00
3.298644e+03,0.000000e+00
3.301537e+03,0.000000e+00
3.304430e+03,0.000000e+00
3.307322e+03,0.000000e+00
3.310215e+03,0.000000e+00
3.313108e+03,0.000000e+00
3.316000e+03,0.000000e+00
3.318893e+03,0.000000e+00
3.321786e+03,0.000000e+00
3.324678e+03,0.000000e+00
3.327571e+03,0.000000e+00
3.330464e+03,0.000000e+00
3.333357e+03,0.000000e+00
3.336249e+03,0.000000e+00
3.339142e+03,0.000000e+00
3.342035e+03,0.000000e+00
3.344927e+03,0.000000e+00
3.347820e+03,0.000000e+00
3.350713e+03,0.000000e+00
3.353605e+03,0.000000e+00
3.356498e+03,0.000000e+00
3.359391e+03,0.000000e+00
3.362284e+03,0.000000e+00
3.365176e+03,0.000000e+00
3.368069e+03,0.000000e+00
3.370962e+03,0.000000e+00
3.373854e+03,0.000000e+00
3.376747e+03,0.000000e+00
3.379640e+03,0.000000e+00
3.382532e+03,0.000000e+00
3.385425e+03,0.000000e+00
3.388318e+03,0.000000e+00
3.391211e+03,0.000000e+00
3.394103e+03,0.000000e+00
3.396996e+03,0.000000e+00
3.399889e+03,0.000000e+00
3.402781e+03,0.000000e+00
3.405674e+03,0.000000e+00
3.408567e+03,0.000000e+00
3.411459e+03,0.000000e+00
3.414352e+03,0.000000e+00
3.417245e+03,0.000000e+00
3.420138e+03,0.000000e+00
3.423030e+03,0.000000e+00
3.425923e+03,0.000000e+00
3.428816e+03,0.000000e+00
3.431708e+03,0.000000e+00
3.434601e+03,0.000000e+00
3.437494e+03,0.000000e+00
3.440386e+03,0.000000e+00
3.443279e+03,0.000000e+00
3.446172e+03,0.000000e+00
3.449065e+03,0.000000e+00
3.451957e+03,0.000000e+00
3.454850e+03,0.000000e+00
3.457743e+03,0.000000e+00
3.460635e+03,0.000000e+00
3.463528e+03,0.000000e+00
3.466421e+03,0.000000e+00
3.469313e+03,0.000000e+00
3.472206e+03,0.000000e+00
3.475099e+03,0.000000e+00
3.477992e+03,0.000000e+00
3.480884e+03,0.000000e+00
3.483777e+03,0.000000e+00
3.486670e+03,0.000000e+00
3.489563e+03,0.000000e+00
3.492455e+03,0.000000e+00
3.495348e+03,0.000000e+00
3.498240e+03,0.000000e+00
3.500169e+03,0.000000e+00