File: RAMAN_data/20012023_r3/black fibre3.CSV
9.931763e+01,0.000000e+00
1.022103e+02,0.000000e+00
1.051030e+02,0.000000e+00
1.079957e+02,0.000000e+00
1.108884e+02,0.000000e+00
1.137811e+02,0.000000e+00
1.166738e+02,0.000000e+00
1.195665e+02,0.000000e+00
1.224592e+02,0.000000e+00
1.253519e+02,0.000000e+00
1.282446e+02,0.000000e+00
1.311373e+02,0.000000e+00
1.340300e+02,0.000000e+00
1.369227e+02,0.000000e+00
1.398154e+02,0.000000e+00
1.427081e+02,0.000000e+00
1.456008e+02,0.000000e+00
1.484935e+02,0.000000e+00
1.513862e+02,0.000000e+00
1.542789e+02,0.000000e+00
1.571716e+02,0.000000e+00
1.600643e+02,0.000000e+00
1.629570e+02,0.000000e+00
1.658497e+02,0.000000e+00
1.687424e+02,0.000000e+00
1.716351e+02,0.000000e+00
1.745278e+02,0.000000e+00
1.774205e+02,0.000000e+00
1.803132e+02,0.000000e+00
1.832059e+02,0.000000e+00
1.860986e+02,0.000000e+00
1.889913e+02,0.000000e+00
1.918840e+02,0.000000e+00
1.947767e+02,0.000000e+00
1.976694e+02,0.000000e+00
2.005621e+02,3.597437e+03
2.034548e+02,3.610998e+03
2.063475e+02,3.620665e+03
2.092402e+02,3.598689e+03
2.121329e+02,3.614190e+03
2.150256e+02,3.613713e+03
2.179183e+02,3.617286e+03
2.208110e+02,3.617490e+03
2.237037e+02,3.606944e+03
2.265964e+02,3.605812e+03
2.294892e+02,3.610838e+03
2.323819e+02,3.612128e+03
2.352746e+02,3.623819e+03
2.381673e+02,3.627476e+03
2.410600e+02,3.624448e+03
2.439527e+02,3.609633e+03
2.468454e+02,3.619571e+03
2.497381e+02,3.617801e+03
2.526308e+02,3.631184e+03
2.555235e+02,3.639535e+03
2.584161e+02,3.632575e+03
2.613088e+02,3.618818e+03
2.642015e+02,3.639191e+03
2.670942e+02,3.636717e+03
2.699869e+02,3.643078e+03
2.728796e+02,3.649123e+03
2.757723e+02,3.641667e+03
2.786650e+02,3.641166e+03
2.815577e+02,3.654837e+03
2.844504e+02,3.664239e+03
2.873431e+02,3.643743e+03
2.902358e+02,3.643621e+03
2.931285e+02,3.651500e+03
2.960212e+02,3.642226e+03
2.989139e+02,3.654540e+03
3.018066e+02,3.674673e+03
3.046993e+02,3.643091e+03
3.075920e+02,3.635235e+03
3.104847e+02,3.663594e+03
3.133774e+02,3.647696e+03
3.162701e+02,3.663208e+03
3.191628e+02,3.653415e+03
3.220555e+02,3.645414e+03
3.249482e+02,3.643016e+03
3.278409e+02,3.635249e+03
3.307336e+02,3.630281e+03
3.336263e+02,3.636784e+03
3.365190e+02,3.640426e+03
3.394117e+02,3.618378e+03
3.423044e+02,3.620142e+03
3.451971e+02,3.628078e+03
3.480898e+02,3.629793e+03
3.509825e+02,3.627421e+03
3.538752e+02,3.625742e+03
3.567680e+02,3.622208e+03
3.596607e+02,3.623270e+03
3.625534e+02,3.640991e+03
3.654461e+02,3.621386e+03
3.683388e+02,3.628811e+03
3.712315e+02,3.627079e+03
3.741242e+02,3.642106e+03
3.770169e+02,3.634244e+03
3.799096e+02,3.637353e+03
3.828023e+02,3.619597e+03
3.856950e+02,3.630958e+03
3.885877e+02,3.624425e+03
3.914804e+02,3.621864e+03
3.943731e+02,3.611757e+03
3.972658e+02,3.595583e+03
4.001585e+02,3.609125e+03
4.030512e+02,3.626020e+03
4.059439e+02,3.619172e+03
4.088366e+02,3.607439e+03
4.117293e+02,3.605669e+03
4.146220e+02,3.611400e+03
4.175147e+02,3.613727e+03
4.204074e+02,3.618009e+03
4.233001e+02,3.600603e+03
4.261928e+02,3.607759e+03
4.290855e+02,3.586188e+03
4.319782e+02,3.604503e+03
4.348709e+02,3.599308e+03
4.377636e+02,3.601680e+03
4.406563e+02,3.594472e+03
4.435490e+02,3.554581e+03
4.464417e+02,3.592664e+03
4.493344e+02,3.565733e+03
4.522271e+02,3.572553e+03
4.551198e+02,3.581552e+03
4.580125e+02,3.579013e+03
4.609052e+02,3.563159e+03
4.637979e+02,3.549640e+03
4.666906e+02,3.550059e+03
4.695833e+02,3.571456e+03
4.724760e+02,3.538294e+03
4.753687e+02,3.549978e+03
4.782614e+02,3.533235e+03
4.811541e+02,3.534281e+03
4.840468e+02,3.534878e+03
4.869395e+02,3.533623e+03
4.898322e+02,3.542959e+03
4.927249e+02,3.537783e+03
4.956176e+02,3.525040e+03
4.985103e+02,3.552922e+03
5.014030e+02,3.525349e+03
5.042957e+02,3.514898e+03
5.071884e+02,3.515438e+03
5.100811e+02,3.525782e+03
5.129738e+02,3.512539e+03
5.158665e+02,3.515273e+03
5.187592e+02,3.523906e+03
5.216519e+02,3.509375e+03
5.245446e+02,3.514429e+03
5.274373e+02,3.523970e+03
5.303300e+02,3.516254e+03
5.332227e+02,3.501695e+03
5.361154e+02,3.490601e+03
5.390081e+02,3.472654e+03
5.419008e+02,3.472871e+03
5.447935e+02,3.489270e+03
5.476862e+02,3.450308e+03
5.505789e+02,3.460946e+03
5.534716e+02,3.467612e+03
5.563643e+02,3.449385e+03
5.592570e+02,3.471490e+03
5.621497e+02,3.447674e+03
5.650424e+02,3.475539e+03
5.679351e+02,3.463078e+03
5.708278e+02,3.440313e+03
5.737205e+02,3.432474e+03
5.766132e+02,3.434324e+03
5.795059e+02,3.439996e+03
5.823986e+02,3.447216e+03
5.852913e+02,3.445804e+03
5.881840e+02,3.435716e+03
5.910767e+02,3.432406e+03
5.939694e+02,3.418818e+03
5.968621e+02,3.428203e+03
5.997548e+02,3.389437e+03
6.026475e+02,3.413537e+03
6.055402e+02,3.440273e+03
6.084329e+02,3.422272e+03
6.113256e+02,3.399229e+03
6.142183e+02,3.410543e+03
6.171110e+02,3.399652e+03
6.200037e+02,3.403920e+03
6.228964e+02,3.388074e+03
6.257891e+02,3.382340e+03
6.286818e+02,3.396077e+03
6.315745e+02,3.397360e+03
6.344672e+02,3.392501e+03
6.373599e+02,3.360762e+03
6.402526e+02,3.381275e+03
6.431453e+02,3.352519e+03
6.460380e+02,3.356092e+03
6.489307e+02,3.353591e+03
6.518234e+02,3.361765e+03
6.547161e+02,3.368162e+03
6.576088e+02,3.343511e+03
6.605015e+02,3.338219e+03
6.633942e+02,3.322694e+03
6.662869e+02,3.330548e+03
6.691796e+02,3.338769e+03
6.720723e+02,3.309883e+03
6.749650e+02,3.314316e+03
6.778577e+02,3.313369e+03
6.807504e+02,3.313314e+03
6.836431e+02,3.314966e+03
6.865358e+02,3.301271e+03
6.894285e+02,3.288716e+03
6.923212e+02,3.309132e+03
6.952139e+02,3.287164e+03
6.981066e+02,3.294962e+03
7.009993e+02,3.296450e+03
7.038920e+02,3.280951e+03
7.067847e+02,3.259672e+03
7.096774e+02,3.286161e+03
7.125701e+02,3.269536e+03
7.154628e+02,3.262591e+03
7.183555e+02,3.250008e+03
7.212482e+02,3.240690e+03
7.241409e+02,3.251839e+03
7.270336e+02,3.272804e+03
7.299263e+02,3.257548e+03
7.328190e+02,3.232341e+03
7.357117e+02,3.237423e+03
7.386044e+02,3.232224e+03
7.414971e+02,3.235697e+03
7.443898e+02,3.219990e+03
7.472825e+02,3.228610e+03
7.501752e+02,3.233054e+03
7.530679e+02,3.228539e+03
7.559606e+02,3.208166e+03
7.588533e+02,3.214092e+03
7.617460e+02,3.192859e+03
7.646387e+02,3.189015e+03
7.675314e+02,3.180618e+03
7.704241e+02,3.163053e+03
7.733168e+02,3.146462e+03
7.762095e+02,3.167202e+03
7.791022e+02,3.162417e+03
7.819949e+02,3.157244e+03
7.848876e+02,3.146733e+03
7.877803e+02,3.156607e+03
7.906730e+02,3.159486e+03
7.935657e+02,3.172130e+03
7.964584e+02,3.136575e+03
7.993511e+02,3.150600e+03
8.022438e+02,3.139896e+03
8.051365e+02,3.133252e+03
8.080292e+02,3.128085e+03
8.109219e+02,3.121816e+03
8.138146e+02,3.126847e+03
8.167073e+02,3.131961e+03
8.196000e+02,3.121786e+03
8.224927e+02,3.126189e+03
8.253854e+02,3.115125e+03
8.282781e+02,3.102398e+03
8.311708e+02,3.090597e+03
8.340635e+02,3.087012e+03
8.369562e+02,3.094441e+03
8.398489e+02,3.107643e+03
8.427416e+02,3.068570e+03
8.456343e+02,3.065906e+03
8.485270e+02,3.084639e+03
8.514197e+02,3.086637e+03
8.543124e+02,3.086710e+03
8.572051e+02,3.066240e+03
8.600978e+02,3.070792e+03
8.629905e+02,3.057223e+03
8.658832e+02,3.043075e+03
8.687759e+02,3.043600e+03
8.716686e+02,3.048153e+03
8.745613e+02,3.034136e+03
8.774540e+02,3.035598e+03
8.803467e+02,3.033662e+03
8.832394e+02,3.017931e+03
8.861321e+02,3.033562e+03
8.890248e+02,3.016262e+03
8.919175e+02,3.006176e+03
8.948102e+02,2.989502e+03
8.977029e+02,2.991484e+03
9.005956e+02,2.990188e+03
9.034883e+02,2.967211e+03
9.063810e+02,2.983435e+03
9.092737e+02,2.968602e+03
9.121664e+02,2.975534e+03
9.150591e+02,2.957561e+03
9.179518e+02,2.960344e+03
9.208445e+02,2.945498e+03
9.237372e+02,2.953011e+03
9.266299e+02,2.941577e+03
9.295226e+02,2.937384e+03
9.324153e+02,2.928604e+03
9.353080e+02,2.942824e+03
9.382007e+02,2.918983e+03
9.410934e+02,2.911892e+03
9.439861e+02,2.910300e+03
9.468788e+02,2.915770e+03
9.497715e+02,2.913718e+03
9.526642e+02,2.896542e+03
9.555569e+02,2.883231e+03
9.584496e+02,2.893453e+03
9.613423e+02,2.906789e+03
9.642350e+02,2.890110e+03
9.671277e+02,2.879628e+03
9.700204e+02,2.870669e+03
9.729131e+02,2.867385e+03
9.758058e+02,2.861063e+03
9.786985e+02,2.865107e+03
9.815912e+02,2.867185e+03
9.844839e+02,2.842033e+03
9.873766e+02,2.840926e+03
9.902693e+02,2.857671e+03
9.931620e+02,2.857036e+03
9.960547e+02,2.857612e+03
9.989474e+02,2.853809e+03
1.001840e+03,2.827494e+03
1.004733e+03,2.828789e+03
1.007626e+03,2.828967e+03
1.010518e+03,2.848825e+03
1.013411e+03,2.817906e+03
1.016304e+03,2.808100e+03
1.019196e+03,2.805554e+03
1.022089e+03,2.811520e+03
1.024982e+03,2.811247e+03
1.027875e+03,2.808472e+03
1.030767e+03,2.794302e+03
1.033660e+03,2.796856e+03
1.036552e+03,2.802897e+03
1.039445e+03,2.804463e+03
1.042338e+03,2.780441e+03
1.045231e+03,2.770343e+03
1.048123e+03,2.756698e+03
1.051016e+03,2.780313e+03
1.053909e+03,2.787049e+03
1.056802e+03,2.765088e+03
1.059694e+03,2.783834e+03
1.062587e+03,2.776059e+03
1.065479e+03,2.772521e+03
1.068372e+03,2.786892e+03
1.071265e+03,2.779164e+03
1.074158e+03,2.798929e+03
1.077050e+03,2.769473e+03
1.079943e+03,2.764947e+03
1.082836e+03,2.785813e+03
1.085729e+03,2.783307e+03
1.088621e+03,2.788145e+03
1.091514e+03,2.781265e+03
1.094406e+03,2.774812e+03
1.097299e+03,2.761286e+03
1.100192e+03,2.747184e+03
1.103085e+03,2.750150e+03
1.105977e+03,2.739031e+03
1.108870e+03,2.738015e+03
1.111763e+03,2.721564e+03
1.114656e+03,2.735777e+03
1.117548e+03,2.736093e+03
1.120441e+03,2.739217e+03
1.123334e+03,2.722744e+03
1.126226e+03,2.715360e+03
1.129119e+03,2.709873e+03
1.132012e+03,2.705914e+03
1.134904e+03,2.724039e+03
1.137797e+03,2.705685e+03
1.140690e+03,2.697359e+03
1.143583e+03,2.707265e+03
1.146475e+03,2.720202e+03
1.149368e+03,2.709544e+03
1.152261e+03,2.727309e+03
1.155153e+03,2.715589e+03
1.158046e+03,2.719579e+03
1.160939e+03,2.707040e+03
1.163831e+03,2.726804e+03
1.166724e+03,2.710319e+03
1.169617e+03,2.711499e+03
1.172510e+03,2.686485e+03
1.175402e+03,2.671457e+03
1.178295e+03,2.661067e+03
1.181188e+03,2.649063e+03
1.184080e+03,2.645497e+03
1.186973e+03,2.628011e+03
1.189866e+03,2.617111e+03
1.192758e+03,2.646431e+03
1.195651e+03,2.635766e+03
1.198544e+03,2.632370e+03
1.201437e+03,2.623841e+03
1.204329e+03,2.614848e+03
1.207222e+03,2.613270e+03
1.210115e+03,2.610545e+03
1.213007e+03,2.617438e+03
1.215900e+03,2.592626e+03
1.218793e+03,2.569071e+03
1.221685e+03,2.582412e+03
1.224578e+03,2.588817e+03
1.227471e+03,2.585124e+03
1.230364e+03,2.577549e+03
1.233256e+03,2.561687e+03
1.236149e+03,2.563991e+03
1.239042e+03,2.569653e+03
1.241934e+03,2.573513e+03
1.244827e+03,2.581887e+03
1.247720e+03,2.566207e+03
1.250612e+03,2.556482e+03
1.253505e+03,2.549040e+03
1.256398e+03,2.552735e+03
1.259291e+03,2.553524e+03
1.262183e+03,2.541254e+03
1.265076e+03,2.545487e+03
1.267969e+03,2.533258e+03
1.270861e+03,2.541299e+03
1.273754e+03,2.558815e+03
1.276647e+03,2.548637e+03
1.279539e+03,2.557259e+03
1.282432e+03,2.563270e+03
1.285325e+03,2.557726e+03
1.288218e+03,2.548910e+03
1.291110e+03,2.555417e+03
1.294003e+03,2.557225e+03
1.296896e+03,2.547549e+03
1.299788e+03,2.531089e+03
1.302681e+03,2.552183e+03
1.305574e+03,2.559980e+03
1.308466e+03,2.555078e+03
1.311359e+03,2.551983e+03
1.314252e+03,2.559762e+03
1.317145e+03,2.560456e+03
1.320037e+03,2.572731e+03
1.322930e+03,2.567753e+03
1.325823e+03,2.561373e+03
1.328715e+03,2.560213e+03
1.331608e+03,2.550018e+03
1.334501e+03,2.551148e+03
1.337393e+03,2.540745e+03
1.340286e+03,2.524222e+03
1.343179e+03,2.532168e+03
1.346072e+03,2.512531e+03
1.348964e+03,2.507102e+03
1.351857e+03,2.494120e+03
1.354750e+03,2.464186e+03
1.357642e+03,2.476121e+03
1.360535e+03,2.452607e+03
1.363428e+03,2.468175e+03
1.366320e+03,2.459970e+03
1.369213e+03,2.450958e+03
1.372106e+03,2.447450e+03
1.374999e+03,2.430074e+03
1.377891e+03,2.423894e+03
1.380784e+03,2.434774e+03
1.383677e+03,2.429428e+03
1.386569e+03,2.406630e+03
1.389462e+03,2.424147e+03
1.392355e+03,2.410195e+03
1.395247e+03,2.410680e+03
1.398140e+03,2.401252e+03
1.401033e+03,2.407205e+03
1.403926e+03,2.395505e+03
1.406818e+03,2.391667e+03
1.409711e+03,2.383167e+03
1.412604e+03,2.382518e+03
1.415496e+03,2.374091e+03
1.418389e+03,2.397383e+03
1.421282e+03,2.375914e+03
1.424174e+03,2.357236e+03
1.427067e+03,2.360827e+03
1.429960e+03,2.368317e+03
1.432853e+03,2.349931e+03
1.435745e+03,2.353152e+03
1.438638e+03,2.338898e+03
1.441531e+03,2.347191e+03
1.444423e+03,2.344889e+03
1.447316e+03,2.339251e+03
1.450209e+03,2.331982e+03
1.453101e+03,2.328332e+03
1.455994e+03,2.320329e+03
1.458887e+03,2.328389e+03
1.461780e+03,2.321516e+03
1.464672e+03,2.304960e+03
1.467565e+03,2.304327e+03
1.470458e+03,2.307325e+03
1.473350e+03,2.294463e+03
1.476243e+03,2.295641e+03
1.479136e+03,2.291979e+03
1.482028e+03,2.277488e+03
1.484921e+03,2.282612e+03
1.487814e+03,2.285196e+03
1.490707e+03,2.265307e+03
1.493599e+03,2.273376e+03
1.496492e+03,2.268997e+03
1.499385e+03,2.255414e+03
1.502277e+03,2.264607e+03
1.505170e+03,2.267088e+03
1.508063e+03,2.259677e+03
1.510955e+03,2.243829e+03
1.513848e+03,2.233469e+03
1.516741e+03,2.216407e+03
1.519634e+03,2.237336e+03
1.522526e+03,2.249332e+03
1.525419e+03,2.231537e+03
1.528312e+03,2.220169e+03
1.531204e+03,2.223998e+03
1.534097e+03,2.218336e+03
1.536990e+03,2.214109e+03
1.539882e+03,2.208423e+03
1.542775e+03,2.200734e+03
1.545668e+03,2.207793e+03
1.548561e+03,2.207286e+03
1.551453e+03,2.219778e+03
1.554346e+03,2.209510e+03
1.557239e+03,2.214431e+03
1.560131e+03,2.216114e+03
1.563024e+03,2.218724e+03
1.565917e+03,2.213630e+03
1.568809e+03,2.213708e+03
1.571702e+03,2.217125e+03
1.574595e+03,2.222144e+03
1.577488e+03,2.217513e+03
1.580380e+03,2.220055e+03
1.583273e+03,2.206045e+03
1.586166e+03,2.201682e+03
1.589058e+03,2.186786e+03
1.591951e+03,2.177648e+03
1.594844e+03,2.162410e+03
1.597736e+03,2.184171e+03
1.600629e+03,2.181875e+03
1.603522e+03,2.168274e+03
1.606415e+03,2.193107e+03
1.609307e+03,2.209015e+03
1.612200e+03,2.229085e+03
1.615093e+03,2.214042e+03
1.617985e+03,2.177570e+03
1.620878e+03,2.126887e+03
1.623771e+03,2.115130e+03
1.626663e+03,2.104543e+03
1.629556e+03,2.104255e+03
1.632449e+03,2.109281e+03
1.635342e+03,2.106546e+03
1.638234e+03,2.088354e+03
1.641127e+03,2.079548e+03
1.644020e+03,2.091465e+03
1.646912e+03,2.077597e+03
1.649805e+03,2.082084e+03
1.652698e+03,2.070585e+03
1.655590e+03,2.060091e+03
1.658483e+03,2.057603e+03
1.661376e+03,2.057907e+03
1.664269e+03,2.038601e+03
1.667161e+03,2.047202e+03
1.670054e+03,2.037527e+03
1.672947e+03,2.023541e+03
1.675839e+03,2.029736e+03
1.678732e+03,2.022895e+03
1.681625e+03,2.034623e+03
1.684517e+03,2.012938e+03
1.687410e+03,2.019171e+03
1.690303e+03,2.027415e+03
1.693196e+03,1.999050e+03
1.696088e+03,1.998241e+03
1.698981e+03,1.989924e+03
1.701874e+03,1.992390e+03
1.704766e+03,2.006313e+03
1.707659e+03,1.992521e+03
1.710552e+03,1.989154e+03
1.713444e+03,1.983032e+03
1.716337e+03,2.006719e+03
1.719230e+03,1.987040e+03
1.722123e+03,2.003514e+03
1.725015e+03,1.988015e+03
1.727908e+03,2.001981e+03
1.730801e+03,1.968921e+03
1.733693e+03,1.963425e+03
1.736586e+03,1.964584e+03
1.739479e+03,1.960981e+03
1.742371e+03,1.949322e+03
1.745264e+03,1.945542e+03
1.748157e+03,1.924225e+03
1.751050e+03,1.938799e+03
1.753942e+03,1.933417e+03
1.756835e+03,1.923425e+03
1.759728e+03,1.902658e+03
1.762620e+03,1.918382e+03
1.765513e+03,1.900771e+03
1.768406e+03,1.914425e+03
1.771298e+03,1.887987e+03
1.774191e+03,1.887490e+03
1.777084e+03,1.885785e+03
1.779977e+03,1.876588e+03
1.782869e+03,1.885051e+03
1.785762e+03,1.881293e+03
1.788655e+03,1.865199e+03
1.791547e+03,1.868677e+03
1.794440e+03,1.865036e+03
1.797333e+03,1.843988e+03
1.800225e+03,1.860629e+03
1.803118e+03,1.833905e+03
1.806011e+03,1.855259e+03
1.808904e+03,1.846243e+03
1.811796e+03,1.838230e+03
1.814689e+03,1.821174e+03
1.817582e+03,1.826193e+03
1.820474e+03,1.822084e+03
1.823367e+03,1.809701e+03
1.826260e+03,1.789917e+03
1.829152e+03,1.810694e+03
1.832045e+03,1.814775e+03
1.834938e+03,1.794200e+03
1.837831e+03,1.789735e+03
1.840723e+03,1.800671e+03
1.843616e+03,1.780041e+03
1.846509e+03,1.796335e+03
1.849401e+03,1.780174e+03
1.852294e+03,1.764694e+03
1.855187e+03,1.764522e+03
1.858079e+03,1.760950e+03
1.860972e+03,1.755756e+03
1.863865e+03,1.756670e+03
1.866758e+03,1.747436e+03
1.869650e+03,1.742560e+03
1.872543e+03,1.728115e+03
1.875436e+03,1.754228e+03
1.878328e+03,1.721182e+03
1.881221e+03,1.723152e+03
1.884114e+03,1.717974e+03
1.887006e+03,1.720714e+03
1.889899e+03,1.734207e+03
1.892792e+03,1.718395e+03
1.895685e+03,1.700221e+03
1.898577e+03,1.712879e+03
1.901470e+03,1.695880e+03
1.904363e+03,1.688098e+03
1.907255e+03,1.688779e+03
1.910148e+03,1.678416e+03
1.913041e+03,1.678509e+03
1.915933e+03,1.679791e+03
1.918826e+03,1.667764e+03
1.921719e+03,1.692937e+03
1.924612e+03,1.650592e+03
1.927504e+03,1.665199e+03
1.930397e+03,1.634292e+03
1.933290e+03,1.643375e+03
1.936182e+03,1.652235e+03
1.939075e+03,1.647981e+03
1.941968e+03,1.649866e+03
1.944860e+03,1.625803e+03
1.947753e+03,1.627467e+03
1.950646e+03,1.630332e+03
1.953539e+03,1.642262e+03
1.956431e+03,1.630620e+03
1.959324e+03,1.621217e+03
1.962217e+03,1.630758e+03
1.965109e+03,1.608270e+03
1.968002e+03,1.604711e+03
1.970895e+03,1.609018e+03
1.973787e+03,1.595313e+03
1.976680e+03,1.595679e+03
1.979573e+03,1.587966e+03
1.982466e+03,1.591326e+03
1.985358e+03,1.599138e+03
1.988251e+03,1.586980e+03
1.991144e+03,1.558381e+03
1.994036e+03,1.565623e+03
1.996929e+03,1.562768e+03
1.999822e+03,1.551148e+03
2.002714e+03,1.554765e+03
2.005607e+03,1.546391e+03
2.008500e+03,1.544845e+03
2.011393e+03,1.527847e+03
2.014285e+03,1.541689e+03
2.017178e+03,1.528318e+03
2.020071e+03,1.534622e+03
2.022963e+03,1.507824e+03
2.025856e+03,1.505037e+03
2.028749e+03,1.526801e+03
2.031641e+03,1.507392e+03
2.034534e+03,1.501397e+03
2.037427e+03,1.481005e+03
2.040320e+03,1.493427e+03
2.043212e+03,1.496481e+03
2.046105e+03,1.494887e+03
2.048998e+03,1.484725e+03
2.051890e+03,1.463447e+03
2.054783e+03,1.467486e+03
2.057676e+03,1.468962e+03
2.060568e+03,1.469818e+03
2.063461e+03,1.475088e+03
2.066354e+03,1.459993e+03
2.069247e+03,1.444531e+03
2.072139e+03,1.443350e+03
2.075032e+03,1.437486e+03
2.077925e+03,1.437160e+03
2.080817e+03,1.434458e+03
2.083710e+03,1.421766e+03
2.086603e+03,1.430825e+03
2.089496e+03,1.415168e+03
2.092388e+03,1.413496e+03
2.095281e+03,1.413544e+03
2.098174e+03,1.433339e+03
2.101066e+03,1.398457e+03
2.103959e+03,1.392853e+03
2.106852e+03,1.390381e+03
2.109744e+03,1.394399e+03
2.112637e+03,1.401821e+03
2.115530e+03,1.391143e+03
2.118422e+03,1.374387e+03
2.121315e+03,1.387100e+03
2.124208e+03,1.380009e+03
2.127101e+03,1.376281e+03
2.129993e+03,1.358519e+03
2.132886e+03,1.360229e+03
2.135779e+03,1.367837e+03
2.138671e+03,1.359530e+03
2.141564e+03,1.374310e+03
2.144457e+03,1.358996e+03
2.147350e+03,1.338771e+03
2.150242e+03,1.328018e+03
2.153135e+03,1.326797e+03
2.156028e+03,1.330211e+03
2.158920e+03,1.329684e+03
2.161813e+03,1.310913e+03
2.164706e+03,1.337419e+03
2.167598e+03,1.314657e+03
2.170491e+03,1.314136e+03
2.173384e+03,1.311942e+03
2.176277e+03,1.301751e+03
2.179169e+03,1.299557e+03
2.182062e+03,1.296712e+03
2.184955e+03,1.297614e+03
2.187847e+03,1.293095e+03
2.190740e+03,1.283048e+03
2.193633e+03,1.286859e+03
2.196525e+03,1.278974e+03
2.199418e+03,1.268394e+03
2.202311e+03,1.263179e+03
2.205204e+03,1.275045e+03
2.208096e+03,1.269113e+03
2.210989e+03,1.258555e+03
2.213882e+03,1.265591e+03
2.216774e+03,1.264188e+03
2.219667e+03,1.264683e+03
2.222560e+03,1.252920e+03
2.225452e+03,1.227162e+03
2.228345e+03,1.233925e+03
2.231238e+03,1.222205e+03
2.234131e+03,1.230429e+03
2.237023e+03,1.236232e+03
2.239916e+03,1.230469e+03
2.242809e+03,1.216948e+03
2.245701e+03,1.220857e+03
2.248594e+03,1.213322e+03
2.251487e+03,1.197083e+03
2.254379e+03,1.206958e+03
2.257272e+03,1.197986e+03
2.260165e+03,1.187449e+03
2.263058e+03,1.192728e+03
2.265950e+03,1.188991e+03
2.268843e+03,1.188023e+03
2.271736e+03,1.175076e+03
2.274628e+03,1.179547e+03
2.277521e+03,1.193504e+03
2.280414e+03,1.161713e+03
2.283306e+03,1.167376e+03
2.286199e+03,1.178745e+03
2.289092e+03,1.162535e+03
2.291985e+03,1.147898e+03
2.294877e+03,1.155641e+03
2.297770e+03,1.163056e+03
2.300663e+03,1.153587e+03
2.303555e+03,1.155396e+03
2.306448e+03,1.131328e+03
2.309341e+03,1.140527e+03
2.312233e+03,1.127990e+03
2.315126e+03,1.135737e+03
2.318019e+03,1.123784e+03
2.320912e+03,1.127531e+03
2.323804e+03,1.124513e+03
2.326697e+03,1.128631e+03
2.329590e+03,1.125223e+03
2.332482e+03,1.116406e+03
2.335375e+03,1.112621e+03
2.338268e+03,1.104940e+03
2.341160e+03,1.096157e+03
2.344053e+03,1.100373e+03
2.346946e+03,1.097821e+03
2.349839e+03,1.100415e+03
2.352731e+03,1.076840e+03
2.355624e+03,1.095430e+03
2.358517e+03,1.096309e+03
2.361409e+03,1.088470e+03
2.364302e+03,1.080049e+03
2.367195e+03,1.074137e+03
2.370087e+03,1.073736e+03
2.372980e+03,1.071287e+03
2.375873e+03,1.069474e+03
2.378766e+03,1.060774e+03
2.381658e+03,1.051179e+03
2.384551e+03,1.066850e+03
2.387444e+03,1.045301e+03
2.390336e+03,1.054587e+03
2.393229e+03,1.041385e+03
2.396122e+03,1.041405e+03
2.399014e+03,1.038567e+03
2.401907e+03,1.053581e+03
2.404800e+03,1.037072e+03
2.407693e+03,1.038204e+03
2.410585e+03,1.037690e+03
2.413478e+03,1.015658e+03
2.416371e+03,1.025858e+03
2.419263e+03,1.025718e+03
2.422156e+03,1.030996e+03
2.425049e+03,1.025631e+03
2.427941e+03,1.012213e+03
2.430834e+03,1.014290e+03
2.433727e+03,1.010345e+03
2.436620e+03,1.017918e+03
2.439512e+03,9.920426e+02
2.442405e+03,1.011973e+03
2.445298e+03,9.977820e+02
2.448190e+03,1.000848e+03
2.451083e+03,9.996830e+02
2.453976e+03,9.980502e+02
2.456868e+03,9.891575e+02
2.459761e+03,9.796672e+02
2.462654e+03,9.751145e+02
2.465547e+03,9.906361e+02
2.468439e+03,9.860586e+02
2.471332e+03,9.821519e+02
2.474225e+03,9.770335e+02
2.477117e+03,9.598608e+02
2.480010e+03,9.815080e+02
2.482903e+03,9.712780e+02
2.485795e+03,9.627107e+02
2.488688e+03,9.597078e+02
2.491581e+03,9.646082e+02
2.494474e+03,9.505887e+02
2.497366e+03,9.627032e+02
2.500259e+03,9.547836e+02
2.503152e+03,9.555922e+02
2.506044e+03,9.607144e+02
2.508937e+03,9.517833e+02
2.511830e+03,9.561624e+02
2.514722e+03,9.387580e+02
2.517615e+03,9.413254e+02
2.520508e+03,9.320654e+02
2.523401e+03,9.354772e+02
2.526293e+03,9.303597e+02
2.529186e+03,9.143663e+02
2.532079e+03,9.281516e+02
2.534971e+03,9.372809e+02
2.537864e+03,9.214915e+02
2.540757e+03,9.345450e+02
2.543649e+03,9.313444e+02
2.546542e+03,9.246398e+02
2.549435e+03,9.239489e+02
2.552328e+03,9.155072e+02
2.555220e+03,9.117237e+02
2.558113e+03,9.201667e+02
2.561006e+03,8.974965e+02
2.563898e+03,9.119752e+02
2.566791e+03,8.970612e+02
2.569684e+03,9.127084e+02
2.572576e+03,9.073560e+02
2.575469e+03,9.014164e+02
2.578362e+03,9.238887e+02
2.581255e+03,8.989733e+02
2.584147e+03,8.900871e+02
2.587040e+03,8.921941e+02
2.589933e+03,8.781533e+02
2.592825e+03,8.829186e+02
2.595718e+03,8.825501e+02
2.598611e+03,8.806393e+02
2.601503e+03,8.815441e+02
2.604396e+03,8.764201e+02
2.607289e+03,8.837186e+02
2.610182e+03,8.698535e+02
2.613074e+03,8.581160e+02
2.615967e+03,8.624072e+02
2.618860e+03,8.619429e+02
2.621752e+03,8.563293e+02
2.624645e+03,8.726603e+02
2.627538e+03,8.710110e+02
2.630430e+03,8.445535e+02
2.633323e+03,8.647048e+02
2.636216e+03,8.562379e+02
2.639109e+03,8.411086e+02
2.642001e+03,8.493818e+02
2.644894e+03,8.360908e+02
2.647787e+03,8.502868e+02
2.650679e+03,8.404410e+02
2.653572e+03,8.448122e+02
2.656465e+03,8.569799e+02
2.659357e+03,8.363470e+02
2.662250e+03,8.241307e+02
2.665143e+03,8.351440e+02
2.668036e+03,8.358365e+02
2.670928e+03,8.379337e+02
2.673821e+03,8.235087e+02
2.676714e+03,8.423054e+02
2.679606e+03,8.142021e+02
2.682499e+03,8.244738e+02
2.685392e+03,8.118221e+02
2.688284e+03,8.237948e+02
2.691177e+03,8.230806e+02
2.694070e+03,8.067995e+02
2.696963e+03,8.066661e+02
2.699855e+03,8.198594e+02
2.702748e+03,8.167286e+02
2.705641e+03,8.201469e+02
2.708533e+03,8.197624e+02
2.711426e+03,8.015126e+02
2.714319e+03,8.044675e+02
2.717211e+03,8.170927e+02
2.720104e+03,7.750422e+02
2.722997e+03,8.048655e+02
2.725890e+03,8.006219e+02
2.728782e+03,8.032049e+02
2.731675e+03,7.855156e+02
2.734568e+03,7.973668e+02
2.737460e+03,7.976675e+02
2.740353e+03,8.090075e+02
2.743246e+03,7.717177e+02
2.746138e+03,7.874172e+02
2.749031e+03,7.717404e+02
2.751924e+03,7.636681e+02
2.754817e+03,7.822038e+02
2.757709e+03,7.851888e+02
2.760602e+03,7.664930e+02
2.763495e+03,7.811177e+02
2.766387e+03,7.715404e+02
2.769280e+03,7.798630e+02
2.772173e+03,7.708840e+02
2.775065e+03,7.480932e+02
2.777958e+03,7.585148e+02
2.780851e+03,7.590234e+02
2.783744e+03,7.638574e+02
2.786636e+03,7.401296e+02
2.789529e+03,7.626475e+02
2.792422e+03,7.740511e+02
2.795314e+03,7.501020e+02
2.798207e+03,7.517113e+02
2.801100e+03,7.626125e+02
2.803992e+03,7.595524e+02
2.806885e+03,7.471682e+02
2.809778e+03,7.617696e+02
2.812671e+03,7.572845e+02
2.815563e+03,7.444620e+02
2.818456e+03,7.433248e+02
2.821349e+03,7.537365e+02
2.824241e+03,7.344932e+02
2.827134e+03,7.408980e+02
2.830027e+03,7.280586e+02
2.832919e+03,7.463672e+02
2.835812e+03,7.445661e+02
2.838705e+03,7.519284e+02
2.841598e+03,7.379315e+02
2.844490e+03,7.536888e+02
2.847383e+03,7.351779e+02
2.850276e+03,7.485839e+02
2.853168e+03,7.413105e+02
2.856061e+03,7.533679e+02
2.858954e+03,7.401201e+02
2.861846e+03,7.495891e+02
2.864739e+03,7.348422e+02
2.867632e+03,7.330646e+02
2.870525e+03,7.555710e+02
2.873417e+03,7.288056e+02
2.876310e+03,7.368502e+02
2.879203e+03,7.263934e+02
2.882095e+03,7.468726e+02
2.884988e+03,7.350404e+02
2.887881e+03,7.376662e+02
2.890773e+03,7.350264e+02
2.893666e+03,7.237263e+02
2.896559e+03,7.502895e+02
2.899452e+03,7.637365e+02
2.902344e+03,7.292495e+02
2.905237e+03,7.187592e+02
2.908130e+03,7.234626e+02
2.911022e+03,7.319247e+02
2.913915e+03,7.092336e+02
2.916808e+03,7.238698e+02
2.919700e+03,7.079659e+02
2.922593e+03,7.206823e+02
2.925486e+03,7.300756e+02
2.928379e+03,7.106859e+02
2.931271e+03,7.316889e+02
2.934164e+03,7.084954e+02
2.937057e+03,7.176705e+02
2.939949e+03,7.143619e+02
2.942842e+03,7.003096e+02
2.945735e+03,7.080585e+02
2.948627e+03,7.086012e+02
2.951520e+03,6.802489e+02
2.954413e+03,7.048306e+02
2.957306e+03,7.223933e+02
2.960198e+03,7.078552e+02
2.963091e+03,6.918512e+02
2.965984e+03,7.013817e+02
2.968876e+03,6.783476e+02
2.971769e+03,7.029883e+02
2.974662e+03,6.898459e+02
2.977554e+03,6.902614e+02
2.980447e+03,6.896871e+02
2.983340e+03,6.902545e+02
2.986233e+03,6.759220e+02
2.989125e+03,6.962897e+02
2.992018e+03,6.706347e+02
2.994911e+03,6.589112e+02
2.997803e+03,6.754286e+02
3.000696e+03,6.864016e+02
3.003589e+03,6.684490e+02
3.006481e+03,6.704230e+02
3.009374e+03,6.721381e+02
3.012267e+03,6.912067e+02
3.015160e+03,6.427962e+02
3.018052e+03,6.604329e+02
3.020945e+03,6.534328e+02
3.023838e+03,6.261006e+02
3.026730e+03,6.366074e+02
3.029623e+03,6.376813e+02
3.032516e+03,6.644354e+02
3.035408e+03,6.483693e+02
3.038301e+03,6.411508e+02
3.041194e+03,6.505325e+02
3.044087e+03,6.396887e+02
3.046979e+03,6.377451e+02
3.049872e+03,6.687123e+02
3.052765e+03,6.360436e+02
3.055657e+03,6.518477e+02
3.058550e+03,6.626406e+02
3.061443e+03,6.612438e+02
3.064335e+03,6.641956e+02
3.067228e+03,6.564414e+02
3.070121e+03,6.820791e+02
3.073014e+03,6.488510e+02
3.075906e+03,6.587337e+02
3.078799e+03,6.686102e+02
3.081692e+03,6.475903e+02
3.084584e+03,6.396521e+02
3.087477e+03,6.386736e+02
3.090370e+03,6.442164e+02
3.093262e+03,6.238812e+02
3.096155e+03,6.459799e+02
3.099048e+03,6.208179e+02
3.101941e+03,6.394941e+02
3.104833e+03,6.290755e+02
3.107726e+03,6.346895e+02
3.110619e+03,6.299231e+02
3.113511e+03,6.139169e+02
3.116404e+03,6.159758e+02
3.119297e+03,6.229805e+02
3.122189e+03,6.553487e+02
3.125082e+03,6.343758e+02
3.127975e+03,6.407912e+02
3.130868e+03,6.517208e+02
3.133760e+03,6.448027e+02
3.136653e+03,6.184393e+02
3.139546e+03,6.544499e+02
3.142438e+03,6.674048e+02
3.145331e+03,6.407190e+02
3.148224e+03,6.534807e+02
3.151116e+03,6.289288e+02
3.154009e+03,6.395628e+02
3.156902e+03,6.312626e+02
3.159795e+03,6.068542e+02
3.162687e+03,6.447209e+02
3.165580e+03,6.422454e+02
3.168473e+03,6.443482e+02
3.171365e+03,6.366813e+02
3.174258e+03,6.071061e+02
3.177151e+03,6.489011e+02
3.180043e+03,6.374316e+02
3.182936e+03,6.426363e+02
3.185829e+03,6.817845e+02
3.188722e+03,6.018910e+02
3.191614e+03,6.252377e+02
3.194507e+03,6.178837e+02
3.197400e+03,6.205190e+02
3.200292e+03,6.730695e+02
3.203185e+03,0.000000e+00
3.206078e+03,0.000000e+00
3.208970e+03,0.000000e+00
3.211863e+03,0.000000e+00
3.214756e+03,0.000000e+00
3.217649e+03,0.000000e+00
3.220541e+03,0.000000e+00
3.223434e+03,0.000000e+00
3.226327e+03,0.000000e+00
3.229219e+03,0.000000e+00
3.232112e+03,0.000000e+00
3.235005e+03,0.000000e+00
3.237897e+03,0.000000e+00
3.240790e+03,0.000000e+00
3.243683e+03,0.000000e+00
3.246576e+03,0.000000e+00
3.249468e+03,0.000000e+00
3.252361e+03,0.000000e+00
3.255254e+03,0.000000e+00
3.258146e+03,0.000000e+00
3.261039e+03,0.000000e+00
3.263932e+03,0.000000e+00
3.266824e+03,0.000000e+00
3.269717e+03,0.000000e+00
3.272610e+03,0.000000e+00
3.275503e+03,0.000000e+00
3.278395e+03,0.000000e+00
3.281288e+03,0.000000e+00
3.284181e+03,0.000000e+00
3.287073e+03,0.000000e+00
3.289966e+03,0.000000e+00
3.292859e+03,0.000000e+00
3.295751e+03,0.000000e+00
3.298644e+03,0.000000e+00
3.301537e+03,0.000000e+00
3.304430e+03,0.000000e+00
3.307322e+03,0.000000e+00
3.310215e+03,0.000000e+00
3.313108e+03,0.000000e+00
3.316000e+03,0.000000e+00
3.318893e+03,0.000000e+00
3.321786e+03,0.000000e+00
3.324678e+03,0.000000e+00
3.327571e+03,0.000000e+00
3.330464e+03,0.000000e+00
3.333357e+03,0.000000e+00
3.336249e+03,0.000000e+00
3.339142e+03,0.000000e+00
3.342035e+03,0.000000e+00
3.344927e+03,0.000000e+00
3.347820e+03,0.000000e+00
3.350713e+03,0.000000e+00
3.353605e+03,0.000000e+00
3.356498e+03,0.000000e+00
3.359391e+03,0.000000e+00
3.362284e+03,0.000000e+00
3.365176e+03,0.000000e+00
3.368069e+03,0.000000e+00
3.370962e+03,0.000000e+00
3.373854e+03,0.000000e+00
3.376747e+03,0.000000e+00
3.379640e+03,0.000000e+00
3.382532e+03,0.000000e+00
3.385425e+03,0.000000e+00
3.388318e+03,0.000000e+00
3.391211e+03,0.000000e+00
3.394103e+03,0.000000e+00
3.396996e+03,0.000000e+00
3.399889e+03,0.000000e+00
3.402781e+03,0.000000e+00
3.405674e+03,0.000000e+00
3.408567e+03,0.000000e+00
3.411459e+03,0.000000e+00
3.414352e+03,0.000000e+00
3.417245e+03,0.000000e+00
3.420138e+03,0.000000e+00
3.423030e+03,0.000000e+00
3.425923e+03,0.000000e+00
3.428816e+03,0.000000e+00
3.431708e+03,0.000000e+00
3.434601e+03,0.000000e+00
3.437494e+03,0.000000e+00
3.440386e+03,0.000000e+00
3.443279e+03,0.000000e+00
3.446172e+03,0.000000e+00
3.449065e+03,0.000000e+00
3.451957e+03,0.000000e+00
3.454850e+03,0.000000e+00
3.457743e+03,0.000000e+00
3.460635e+03,0.000000e+00
3.463528e+03,0.000000e+00
3.466421e+03,0.000000e+00
3.469313e+03,0.000000e+00
3.472206e+03,0.000000e+00
3.475099e+03,0.000000e+00
3.477992e+03,0.000000e+00
3.480884e+03,0.000000e+00
3.483777e+03,0.000000e+00
3.486670e+03,0.000000e+00
3.489563e+03,0.000000e+00
3.492455e+03,0.000000e+00
3.495348e+03,0.000000e+00
3.498240e+03,0.000000e+00
3.500169e+03,0.000000e+00