File: RAMAN_data/20012023_r3/black fibre10.CSV
9.931763e+01,0.000000e+00
1.022103e+02,0.000000e+00
1.051030e+02,0.000000e+00
1.079957e+02,0.000000e+00
1.108884e+02,0.000000e+00
1.137811e+02,0.000000e+00
1.166738e+02,0.000000e+00
1.195665e+02,0.000000e+00
1.224592e+02,0.000000e+00
1.253519e+02,0.000000e+00
1.282446e+02,0.000000e+00
1.311373e+02,0.000000e+00
1.340300e+02,0.000000e+00
1.369227e+02,0.000000e+00
1.398154e+02,0.000000e+00
1.427081e+02,0.000000e+00
1.456008e+02,0.000000e+00
1.484935e+02,0.000000e+00
1.513862e+02,0.000000e+00
1.542789e+02,0.000000e+00
1.571716e+02,0.000000e+00
1.600643e+02,0.000000e+00
1.629570e+02,0.000000e+00
1.658497e+02,0.000000e+00
1.687424e+02,0.000000e+00
1.716351e+02,0.000000e+00
1.745278e+02,0.000000e+00
1.774205e+02,0.000000e+00
1.803132e+02,0.000000e+00
1.832059e+02,0.000000e+00
1.860986e+02,0.000000e+00
1.889913e+02,0.000000e+00
1.918840e+02,0.000000e+00
1.947767e+02,0.000000e+00
1.976694e+02,0.000000e+00
2.005621e+02,4.795920e+03
2.034548e+02,4.798566e+03
2.063475e+02,4.807712e+03
2.092402e+02,4.804210e+03
2.121329e+02,4.810872e+03
2.150256e+02,4.817632e+03
2.179183e+02,4.875880e+03
2.208110e+02,4.867922e+03
2.237037e+02,4.878977e+03
2.265964e+02,4.849642e+03
2.294892e+02,4.835609e+03
2.323819e+02,4.849208e+03
2.352746e+02,4.872102e+03
2.381673e+02,4.880743e+03
2.410600e+02,4.872360e+03
2.439527e+02,4.861386e+03
2.468454e+02,4.888149e+03
2.497381e+02,4.906776e+03
2.526308e+02,4.908890e+03
2.555235e+02,4.879354e+03
2.584161e+02,4.903800e+03
2.613088e+02,4.902205e+03
2.642015e+02,4.920242e+03
2.670942e+02,4.926410e+03
2.699869e+02,4.915728e+03
2.728796e+02,4.914092e+03
2.757723e+02,4.922742e+03
2.786650e+02,4.949916e+03
2.815577e+02,4.941162e+03
2.844504e+02,4.946818e+03
2.873431e+02,4.947286e+03
2.902358e+02,4.944522e+03
2.931285e+02,4.944518e+03
2.960212e+02,4.958345e+03
2.989139e+02,4.963706e+03
3.018066e+02,4.948894e+03
3.046993e+02,4.957793e+03
3.075920e+02,4.952773e+03
3.104847e+02,4.961522e+03
3.133774e+02,4.966903e+03
3.162701e+02,4.967044e+03
3.191628e+02,4.967034e+03
3.220555e+02,4.961893e+03
3.249482e+02,4.968138e+03
3.278409e+02,4.988098e+03
3.307336e+02,4.985769e+03
3.336263e+02,4.974626e+03
3.365190e+02,4.968571e+03
3.394117e+02,4.978453e+03
3.423044e+02,4.985568e+03
3.451971e+02,5.005967e+03
3.480898e+02,4.985670e+03
3.509825e+02,4.969518e+03
3.538752e+02,4.988714e+03
3.567680e+02,4.984310e+03
3.596607e+02,5.008380e+03
3.625534e+02,5.016230e+03
3.654461e+02,5.008243e+03
3.683388e+02,4.996326e+03
3.712315e+02,4.993344e+03
3.741242e+02,4.999171e+03
3.770169e+02,5.033221e+03
3.799096e+02,5.027557e+03
3.828023e+02,5.020992e+03
3.856950e+02,5.011060e+03
3.885877e+02,4.998205e+03
3.914804e+02,4.998212e+03
3.943731e+02,4.987523e+03
3.972658e+02,5.001142e+03
4.001585e+02,4.970898e+03
4.030512e+02,5.004524e+03
4.059439e+02,5.012580e+03
4.088366e+02,4.995807e+03
4.117293e+02,5.004119e+03
4.146220e+02,5.020460e+03
4.175147e+02,4.986344e+03
4.204074e+02,5.004526e+03
4.233001e+02,4.998633e+03
4.261928e+02,5.001244e+03
4.290855e+02,5.005519e+03
4.319782e+02,4.993752e+03
4.348709e+02,5.005148e+03
4.377636e+02,4.996078e+03
4.406563e+02,4.982976e+03
4.435490e+02,4.997463e+03
4.464417e+02,4.990579e+03
4.493344e+02,4.994147e+03
4.522271e+02,5.004927e+03
4.551198e+02,4.991556e+03
4.580125e+02,4.982375e+03
4.609052e+02,4.980974e+03
4.637979e+02,4.991158e+03
4.666906e+02,4.975943e+03
4.695833e+02,4.969683e+03
4.724760e+02,4.979060e+03
4.753687e+02,4.977218e+03
4.782614e+02,4.992445e+03
4.811541e+02,4.967386e+03
4.840468e+02,4.989915e+03
4.869395e+02,5.002344e+03
4.898322e+02,4.995147e+03
4.927249e+02,4.985950e+03
4.956176e+02,4.971021e+03
4.985103e+02,4.975218e+03
5.014030e+02,4.965883e+03
5.042957e+02,4.964126e+03
5.071884e+02,4.945158e+03
5.100811e+02,4.936977e+03
5.129738e+02,4.936309e+03
5.158665e+02,4.957826e+03
5.187592e+02,4.960970e+03
5.216519e+02,4.922926e+03
5.245446e+02,4.928155e+03
5.274373e+02,4.947840e+03
5.303300e+02,4.931625e+03
5.332227e+02,4.929964e+03
5.361154e+02,4.894728e+03
5.390081e+02,4.918096e+03
5.419008e+02,4.912224e+03
5.447935e+02,4.919422e+03
5.476862e+02,4.918422e+03
5.505789e+02,4.881475e+03
5.534716e+02,4.876825e+03
5.563643e+02,4.880482e+03
5.592570e+02,4.876513e+03
5.621497e+02,4.875419e+03
5.650424e+02,4.879503e+03
5.679351e+02,4.879546e+03
5.708278e+02,4.860303e+03
5.737205e+02,4.859611e+03
5.766132e+02,4.894171e+03
5.795059e+02,4.887086e+03
5.823986e+02,4.844248e+03
5.852913e+02,4.874515e+03
5.881840e+02,4.869345e+03
5.910767e+02,4.868163e+03
5.939694e+02,4.869067e+03
5.968621e+02,4.874329e+03
5.997548e+02,4.854732e+03
6.026475e+02,4.845667e+03
6.055402e+02,4.865026e+03
6.084329e+02,4.837914e+03
6.113256e+02,4.835563e+03
6.142183e+02,4.845599e+03
6.171110e+02,4.829216e+03
6.200037e+02,4.817494e+03
6.228964e+02,4.811595e+03
6.257891e+02,4.826995e+03
6.286818e+02,4.814779e+03
6.315745e+02,4.804935e+03
6.344672e+02,4.795929e+03
6.373599e+02,4.791407e+03
6.402526e+02,4.805126e+03
6.431453e+02,4.771604e+03
6.460380e+02,4.773407e+03
6.489307e+02,4.779180e+03
6.518234e+02,4.777985e+03
6.547161e+02,4.784649e+03
6.576088e+02,4.757083e+03
6.605015e+02,4.755173e+03
6.633942e+02,4.756294e+03
6.662869e+02,4.754798e+03
6.691796e+02,4.749208e+03
6.720723e+02,4.742521e+03
6.749650e+02,4.714580e+03
6.778577e+02,4.728420e+03
6.807504e+02,4.729877e+03
6.836431e+02,4.750595e+03
6.865358e+02,4.720541e+03
6.894285e+02,4.709569e+03
6.923212e+02,4.695770e+03
6.952139e+02,4.713425e+03
6.981066e+02,4.686117e+03
7.009993e+02,4.686006e+03
7.038920e+02,4.691499e+03
7.067847e+02,4.670195e+03
7.096774e+02,4.676990e+03
7.125701e+02,4.691125e+03
7.154628e+02,4.667377e+03
7.183555e+02,4.660526e+03
7.212482e+02,4.652071e+03
7.241409e+02,4.652534e+03
7.270336e+02,4.672725e+03
7.299263e+02,4.640367e+03
7.328190e+02,4.646118e+03
7.357117e+02,4.627394e+03
7.386044e+02,4.615354e+03
7.414971e+02,4.623477e+03
7.443898e+02,4.635476e+03
7.472825e+02,4.608682e+03
7.501752e+02,4.616421e+03
7.530679e+02,4.610618e+03
7.559606e+02,4.598673e+03
7.588533e+02,4.583630e+03
7.617460e+02,4.600607e+03
7.646387e+02,4.562849e+03
7.675314e+02,4.570461e+03
7.704241e+02,4.566994e+03
7.733168e+02,4.558282e+03
7.762095e+02,4.549554e+03
7.791022e+02,4.545471e+03
7.819949e+02,4.554423e+03
7.848876e+02,4.547583e+03
7.877803e+02,4.538583e+03
7.906730e+02,4.531203e+03
7.935657e+02,4.515308e+03
7.964584e+02,4.516870e+03
7.993511e+02,4.529783e+03
8.022438e+02,4.496308e+03
8.051365e+02,4.517594e+03
8.080292e+02,4.501271e+03
8.109219e+02,4.493628e+03
8.138146e+02,4.508295e+03
8.167073e+02,4.483412e+03
8.196000e+02,4.482531e+03
8.224927e+02,4.489739e+03
8.253854e+02,4.478635e+03
8.282781e+02,4.481206e+03
8.311708e+02,4.463868e+03
8.340635e+02,4.465099e+03
8.369562e+02,4.461139e+03
8.398489e+02,4.455921e+03
8.427416e+02,4.449517e+03
8.456343e+02,4.429499e+03
8.485270e+02,4.422952e+03
8.514197e+02,4.417756e+03
8.543124e+02,4.427218e+03
8.572051e+02,4.422149e+03
8.600978e+02,4.404570e+03
8.629905e+02,4.412604e+03
8.658832e+02,4.397604e+03
8.687759e+02,4.389758e+03
8.716686e+02,4.383794e+03
8.745613e+02,4.395209e+03
8.774540e+02,4.415467e+03
8.803467e+02,4.404286e+03
8.832394e+02,4.393737e+03
8.861321e+02,4.385979e+03
8.890248e+02,4.382710e+03
8.919175e+02,4.367827e+03
8.948102e+02,4.347254e+03
8.977029e+02,4.345517e+03
9.005956e+02,4.348124e+03
9.034883e+02,4.325101e+03
9.063810e+02,4.341811e+03
9.092737e+02,4.334514e+03
9.121664e+02,4.313918e+03
9.150591e+02,4.312300e+03
9.179518e+02,4.322011e+03
9.208445e+02,4.297098e+03
9.237372e+02,4.300442e+03
9.266299e+02,4.300894e+03
9.295226e+02,4.281999e+03
9.324153e+02,4.284937e+03
9.353080e+02,4.279943e+03
9.382007e+02,4.268368e+03
9.410934e+02,4.253288e+03
9.439861e+02,4.278427e+03
9.468788e+02,4.284181e+03
9.497715e+02,4.257890e+03
9.526642e+02,4.234979e+03
9.555569e+02,4.220970e+03
9.584496e+02,4.233036e+03
9.613423e+02,4.223824e+03
9.642350e+02,4.213257e+03
9.671277e+02,4.219103e+03
9.700204e+02,4.204436e+03
9.729131e+02,4.175964e+03
9.758058e+02,4.218218e+03
9.786985e+02,4.208409e+03
9.815912e+02,4.186088e+03
9.844839e+02,4.187098e+03
9.873766e+02,4.167932e+03
9.902693e+02,4.171043e+03
9.931620e+02,4.174800e+03
9.960547e+02,4.168740e+03
9.989474e+02,4.161712e+03
1.001840e+03,4.141808e+03
1.004733e+03,4.147416e+03
1.007626e+03,4.154980e+03
1.010518e+03,4.129655e+03
1.013411e+03,4.146177e+03
1.016304e+03,4.118322e+03
1.019196e+03,4.103383e+03
1.022089e+03,4.127579e+03
1.024982e+03,4.129659e+03
1.027875e+03,4.118443e+03
1.030767e+03,4.103245e+03
1.033660e+03,4.104744e+03
1.036552e+03,4.110207e+03
1.039445e+03,4.109880e+03
1.042338e+03,4.113538e+03
1.045231e+03,4.073657e+03
1.048123e+03,4.082355e+03
1.051016e+03,4.067421e+03
1.053909e+03,4.081381e+03
1.056802e+03,4.075475e+03
1.059694e+03,4.069896e+03
1.062587e+03,4.067544e+03
1.065479e+03,4.060703e+03
1.068372e+03,4.071137e+03
1.071265e+03,4.086097e+03
1.074158e+03,4.078396e+03
1.077050e+03,4.064800e+03
1.079943e+03,4.047624e+03
1.082836e+03,4.057977e+03
1.085729e+03,4.067358e+03
1.088621e+03,4.072450e+03
1.091514e+03,4.089802e+03
1.094406e+03,4.071125e+03
1.097299e+03,4.057815e+03
1.100192e+03,4.041645e+03
1.103085e+03,4.043386e+03
1.105977e+03,4.026705e+03
1.108870e+03,4.022013e+03
1.111763e+03,4.025811e+03
1.114656e+03,4.019313e+03
1.117548e+03,4.043412e+03
1.120441e+03,4.034450e+03
1.123334e+03,4.027996e+03
1.126226e+03,4.019462e+03
1.129119e+03,4.027635e+03
1.132012e+03,4.048052e+03
1.134904e+03,4.035753e+03
1.137797e+03,4.020027e+03
1.140690e+03,4.007560e+03
1.143583e+03,4.011718e+03
1.146475e+03,4.004625e+03
1.149368e+03,4.011440e+03
1.152261e+03,4.017266e+03
1.155153e+03,3.995947e+03
1.158046e+03,3.988959e+03
1.160939e+03,3.972622e+03
1.163831e+03,3.970565e+03
1.166724e+03,3.970763e+03
1.169617e+03,3.937221e+03
1.172510e+03,3.940005e+03
1.175402e+03,3.940665e+03
1.178295e+03,3.935695e+03
1.181188e+03,3.959897e+03
1.184080e+03,3.940574e+03
1.186973e+03,3.942812e+03
1.189866e+03,3.928254e+03
1.192758e+03,3.938084e+03
1.195651e+03,3.917079e+03
1.198544e+03,3.937480e+03
1.201437e+03,3.907793e+03
1.204329e+03,3.907535e+03
1.207222e+03,3.900910e+03
1.210115e+03,3.904262e+03
1.213007e+03,3.928360e+03
1.215900e+03,3.919031e+03
1.218793e+03,3.908936e+03
1.221685e+03,3.912370e+03
1.224578e+03,3.891128e+03
1.227471e+03,3.903172e+03
1.230364e+03,3.890808e+03
1.233256e+03,3.877719e+03
1.236149e+03,3.872753e+03
1.239042e+03,3.886837e+03
1.241934e+03,3.886914e+03
1.244827e+03,3.885629e+03
1.247720e+03,3.863121e+03
1.250612e+03,3.868823e+03
1.253505e+03,3.870189e+03
1.256398e+03,3.853781e+03
1.259291e+03,3.853165e+03
1.262183e+03,3.858050e+03
1.265076e+03,3.851960e+03
1.267969e+03,3.837847e+03
1.270861e+03,3.859728e+03
1.273754e+03,3.861817e+03
1.276647e+03,3.868671e+03
1.279539e+03,3.864798e+03
1.282432e+03,3.855792e+03
1.285325e+03,3.867812e+03
1.288218e+03,3.868022e+03
1.291110e+03,3.861010e+03
1.294003e+03,3.841077e+03
1.296896e+03,3.817961e+03
1.299788e+03,3.826227e+03
1.302681e+03,3.813202e+03
1.305574e+03,3.824179e+03
1.308466e+03,3.822844e+03
1.311359e+03,3.802881e+03
1.314252e+03,3.802043e+03
1.317145e+03,3.811735e+03
1.320037e+03,3.825761e+03
1.322930e+03,3.801733e+03
1.325823e+03,3.781469e+03
1.328715e+03,3.801858e+03
1.331608e+03,3.809274e+03
1.334501e+03,3.827537e+03
1.337393e+03,3.823445e+03
1.340286e+03,3.810506e+03
1.343179e+03,3.800842e+03
1.346072e+03,3.787224e+03
1.348964e+03,3.801628e+03
1.351857e+03,3.781839e+03
1.354750e+03,3.772999e+03
1.357642e+03,3.758789e+03
1.360535e+03,3.759497e+03
1.363428e+03,3.765769e+03
1.366320e+03,3.767564e+03
1.369213e+03,3.764991e+03
1.372106e+03,3.755124e+03
1.374999e+03,3.745747e+03
1.377891e+03,3.744445e+03
1.380784e+03,3.736899e+03
1.383677e+03,3.742328e+03
1.386569e+03,3.708277e+03
1.389462e+03,3.704056e+03
1.392355e+03,3.685898e+03
1.395247e+03,3.683652e+03
1.398140e+03,3.706981e+03
1.401033e+03,3.699246e+03
1.403926e+03,3.690238e+03
1.406818e+03,3.695104e+03
1.409711e+03,3.692295e+03
1.412604e+03,3.688813e+03
1.415496e+03,3.663468e+03
1.418389e+03,3.677762e+03
1.421282e+03,3.667093e+03
1.424174e+03,3.663137e+03
1.427067e+03,3.664577e+03
1.429960e+03,3.656488e+03
1.432853e+03,3.639618e+03
1.435745e+03,3.610927e+03
1.438638e+03,3.607897e+03
1.441531e+03,3.616642e+03
1.444423e+03,3.611743e+03
1.447316e+03,3.609737e+03
1.450209e+03,3.589434e+03
1.453101e+03,3.591946e+03
1.455994e+03,3.596324e+03
1.458887e+03,3.591249e+03
1.461780e+03,3.593755e+03
1.464672e+03,3.597587e+03
1.467565e+03,3.580363e+03
1.470458e+03,3.578413e+03
1.473350e+03,3.574093e+03
1.476243e+03,3.580715e+03
1.479136e+03,3.560038e+03
1.482028e+03,3.575103e+03
1.484921e+03,3.551280e+03
1.487814e+03,3.562785e+03
1.490707e+03,3.547864e+03
1.493599e+03,3.571498e+03
1.496492e+03,3.551840e+03
1.499385e+03,3.526325e+03
1.502277e+03,3.534848e+03
1.505170e+03,3.536179e+03
1.508063e+03,3.538386e+03
1.510955e+03,3.517362e+03
1.513848e+03,3.503415e+03
1.516741e+03,3.532410e+03
1.519634e+03,3.501504e+03
1.522526e+03,3.514027e+03
1.525419e+03,3.496353e+03
1.528312e+03,3.497375e+03
1.531204e+03,3.486772e+03
1.534097e+03,3.488920e+03
1.536990e+03,3.489282e+03
1.539882e+03,3.488835e+03
1.542775e+03,3.473923e+03
1.545668e+03,3.457171e+03
1.548561e+03,3.480004e+03
1.551453e+03,3.463362e+03
1.554346e+03,3.481705e+03
1.557239e+03,3.484071e+03
1.560131e+03,3.472023e+03
1.563024e+03,3.487564e+03
1.565917e+03,3.469906e+03
1.568809e+03,3.509280e+03
1.571702e+03,3.482023e+03
1.574595e+03,3.478702e+03
1.577488e+03,3.481165e+03
1.580380e+03,3.480212e+03
1.583273e+03,3.473230e+03
1.586166e+03,3.480674e+03
1.589058e+03,3.469400e+03
1.591951e+03,3.444895e+03
1.594844e+03,3.468101e+03
1.597736e+03,3.445937e+03
1.600629e+03,3.446835e+03
1.603522e+03,3.436273e+03
1.606415e+03,3.398420e+03
1.609307e+03,3.406341e+03
1.612200e+03,3.405472e+03
1.615093e+03,3.378685e+03
1.617985e+03,3.387307e+03
1.620878e+03,3.389121e+03
1.623771e+03,3.349691e+03
1.626663e+03,3.342694e+03
1.629556e+03,3.355658e+03
1.632449e+03,3.331698e+03
1.635342e+03,3.335660e+03
1.638234e+03,3.299946e+03
1.641127e+03,3.313447e+03
1.644020e+03,3.328331e+03
1.646912e+03,3.308300e+03
1.649805e+03,3.287214e+03
1.652698e+03,3.272757e+03
1.655590e+03,3.270019e+03
1.658483e+03,3.283056e+03
1.661376e+03,3.280101e+03
1.664269e+03,3.264974e+03
1.667161e+03,3.266691e+03
1.670054e+03,3.252076e+03
1.672947e+03,3.242037e+03
1.675839e+03,3.273861e+03
1.678732e+03,3.232432e+03
1.681625e+03,3.231288e+03
1.684517e+03,3.244051e+03
1.687410e+03,3.238171e+03
1.690303e+03,3.223164e+03
1.693196e+03,3.216418e+03
1.696088e+03,3.218770e+03
1.698981e+03,3.217758e+03
1.701874e+03,3.199050e+03
1.704766e+03,3.207382e+03
1.707659e+03,3.189022e+03
1.710552e+03,3.171208e+03
1.713444e+03,3.162503e+03
1.716337e+03,3.177743e+03
1.719230e+03,3.170918e+03
1.722123e+03,3.166002e+03
1.725015e+03,3.146025e+03
1.727908e+03,3.130712e+03
1.730801e+03,3.113649e+03
1.733693e+03,3.159873e+03
1.736586e+03,3.135956e+03
1.739479e+03,3.141517e+03
1.742371e+03,3.112705e+03
1.745264e+03,3.124749e+03
1.748157e+03,3.103648e+03
1.751050e+03,3.106225e+03
1.753942e+03,3.116261e+03
1.756835e+03,3.109207e+03
1.759728e+03,3.085286e+03
1.762620e+03,3.075333e+03
1.765513e+03,3.071478e+03
1.768406e+03,3.079173e+03
1.771298e+03,3.059702e+03
1.774191e+03,3.046872e+03
1.777084e+03,3.053286e+03
1.779977e+03,3.058999e+03
1.782869e+03,3.044921e+03
1.785762e+03,3.047576e+03
1.788655e+03,3.036030e+03
1.791547e+03,3.002067e+03
1.794440e+03,3.017543e+03
1.797333e+03,3.005909e+03
1.800225e+03,3.002860e+03
1.803118e+03,3.007813e+03
1.806011e+03,2.977904e+03
1.808904e+03,3.002844e+03
1.811796e+03,2.977608e+03
1.814689e+03,2.992076e+03
1.817582e+03,2.991251e+03
1.820474e+03,2.975963e+03
1.823367e+03,2.956390e+03
1.826260e+03,2.932477e+03
1.829152e+03,2.960492e+03
1.832045e+03,2.940917e+03
1.834938e+03,2.954628e+03
1.837831e+03,2.932814e+03
1.840723e+03,2.930918e+03
1.843616e+03,2.955141e+03
1.846509e+03,2.919305e+03
1.849401e+03,2.919409e+03
1.852294e+03,2.901927e+03
1.855187e+03,2.899952e+03
1.858079e+03,2.894302e+03
1.860972e+03,2.903366e+03
1.863865e+03,2.897387e+03
1.866758e+03,2.876555e+03
1.869650e+03,2.877738e+03
1.872543e+03,2.877624e+03
1.875436e+03,2.865436e+03
1.878328e+03,2.861950e+03
1.881221e+03,2.845824e+03
1.884114e+03,2.859132e+03
1.887006e+03,2.832847e+03
1.889899e+03,2.833431e+03
1.892792e+03,2.827493e+03
1.895685e+03,2.818508e+03
1.898577e+03,2.815528e+03
1.901470e+03,2.815092e+03
1.904363e+03,2.791938e+03
1.907255e+03,2.797690e+03
1.910148e+03,2.777254e+03
1.913041e+03,2.790778e+03
1.915933e+03,2.775213e+03
1.918826e+03,2.772305e+03
1.921719e+03,2.777188e+03
1.924612e+03,2.777563e+03
1.927504e+03,2.742300e+03
1.930397e+03,2.740048e+03
1.933290e+03,2.715528e+03
1.936182e+03,2.727709e+03
1.939075e+03,2.740865e+03
1.941968e+03,2.724659e+03
1.944860e+03,2.698349e+03
1.947753e+03,2.692820e+03
1.950646e+03,2.695198e+03
1.953539e+03,2.711355e+03
1.956431e+03,2.677066e+03
1.959324e+03,2.677410e+03
1.962217e+03,2.678431e+03
1.965109e+03,2.691749e+03
1.968002e+03,2.673920e+03
1.970895e+03,2.664595e+03
1.973787e+03,2.671649e+03
1.976680e+03,2.641517e+03
1.979573e+03,2.630874e+03
1.982466e+03,2.637271e+03
1.985358e+03,2.640229e+03
1.988251e+03,2.646106e+03
1.991144e+03,2.624299e+03
1.994036e+03,2.631440e+03
1.996929e+03,2.602763e+03
1.999822e+03,2.606978e+03
2.002714e+03,2.601906e+03
2.005607e+03,2.596667e+03
2.008500e+03,2.580040e+03
2.011393e+03,2.567846e+03
2.014285e+03,2.592269e+03
2.017178e+03,2.572514e+03
2.020071e+03,2.578393e+03
2.022963e+03,2.552938e+03
2.025856e+03,2.543620e+03
2.028749e+03,2.540935e+03
2.031641e+03,2.546191e+03
2.034534e+03,2.538776e+03
2.037427e+03,2.531699e+03
2.040320e+03,2.489587e+03
2.043212e+03,2.517793e+03
2.046105e+03,2.504837e+03
2.048998e+03,2.493696e+03
2.051890e+03,2.491777e+03
2.054783e+03,2.489288e+03
2.057676e+03,2.468582e+03
2.060568e+03,2.476264e+03
2.063461e+03,2.463033e+03
2.066354e+03,2.458662e+03
2.069247e+03,2.450438e+03
2.072139e+03,2.442758e+03
2.075032e+03,2.432791e+03
2.077925e+03,2.433885e+03
2.080817e+03,2.423543e+03
2.083710e+03,2.403466e+03
2.086603e+03,2.420621e+03
2.089496e+03,2.419809e+03
2.092388e+03,2.411003e+03
2.095281e+03,2.410146e+03
2.098174e+03,2.413511e+03
2.101066e+03,2.401372e+03
2.103959e+03,2.355273e+03
2.106852e+03,2.365756e+03
2.109744e+03,2.401289e+03
2.112637e+03,2.388926e+03
2.115530e+03,2.362477e+03
2.118422e+03,2.332494e+03
2.121315e+03,2.359291e+03
2.124208e+03,2.337588e+03
2.127101e+03,2.332769e+03
2.129993e+03,2.315442e+03
2.132886e+03,2.347131e+03
2.135779e+03,2.328400e+03
2.138671e+03,2.326011e+03
2.141564e+03,2.309591e+03
2.144457e+03,2.300345e+03
2.147350e+03,2.281897e+03
2.150242e+03,2.286231e+03
2.153135e+03,2.297453e+03
2.156028e+03,2.287799e+03
2.158920e+03,2.282623e+03
2.161813e+03,2.281465e+03
2.164706e+03,2.268581e+03
2.167598e+03,2.258425e+03
2.170491e+03,2.264667e+03
2.173384e+03,2.252837e+03
2.176277e+03,2.246263e+03
2.179169e+03,2.226070e+03
2.182062e+03,2.221598e+03
2.184955e+03,2.236372e+03
2.187847e+03,2.240869e+03
2.190740e+03,2.197415e+03
2.193633e+03,2.199007e+03
2.196525e+03,2.219960e+03
2.199418e+03,2.219552e+03
2.202311e+03,2.194745e+03
2.205204e+03,2.199657e+03
2.208096e+03,2.182292e+03
2.210989e+03,2.169417e+03
2.213882e+03,2.153772e+03
2.216774e+03,2.164292e+03
2.219667e+03,2.156195e+03
2.222560e+03,2.153496e+03
2.225452e+03,2.144685e+03
2.228345e+03,2.151926e+03
2.231238e+03,2.152201e+03
2.234131e+03,2.117180e+03
2.237023e+03,2.139156e+03
2.239916e+03,2.113538e+03
2.242809e+03,2.110764e+03
2.245701e+03,2.095978e+03
2.248594e+03,2.097850e+03
2.251487e+03,2.092840e+03
2.254379e+03,2.084788e+03
2.257272e+03,2.078651e+03
2.260165e+03,2.073951e+03
2.263058e+03,2.073578e+03
2.265950e+03,2.075305e+03
2.268843e+03,2.074987e+03
2.271736e+03,2.050486e+03
2.274628e+03,2.066023e+03
2.277521e+03,2.054081e+03
2.280414e+03,2.055049e+03
2.283306e+03,2.050698e+03
2.286199e+03,2.022379e+03
2.289092e+03,2.034420e+03
2.291985e+03,2.012835e+03
2.294877e+03,2.021244e+03
2.297770e+03,2.027149e+03
2.300663e+03,2.010108e+03
2.303555e+03,1.993425e+03
2.306448e+03,2.000584e+03
2.309341e+03,2.003876e+03
2.312233e+03,2.003226e+03
2.315126e+03,1.984555e+03
2.318019e+03,1.973283e+03
2.320912e+03,1.967212e+03
2.323804e+03,1.984141e+03
2.326697e+03,1.978931e+03
2.329590e+03,1.956651e+03
2.332482e+03,1.940449e+03
2.335375e+03,1.946408e+03
2.338268e+03,1.960070e+03
2.341160e+03,1.920998e+03
2.344053e+03,1.928171e+03
2.346946e+03,1.938007e+03
2.349839e+03,1.919842e+03
2.352731e+03,1.915265e+03
2.355624e+03,1.907229e+03
2.358517e+03,1.911570e+03
2.361409e+03,1.922086e+03
2.364302e+03,1.888869e+03
2.367195e+03,1.887205e+03
2.370087e+03,1.891578e+03
2.372980e+03,1.881090e+03
2.375873e+03,1.887726e+03
2.378766e+03,1.870086e+03
2.381658e+03,1.876500e+03
2.384551e+03,1.873814e+03
2.387444e+03,1.862374e+03
2.390336e+03,1.870679e+03
2.393229e+03,1.882243e+03
2.396122e+03,1.851491e+03
2.399014e+03,1.836821e+03
2.401907e+03,1.850991e+03
2.404800e+03,1.830600e+03
2.407693e+03,1.845352e+03
2.410585e+03,1.830165e+03
2.413478e+03,1.823897e+03
2.416371e+03,1.817994e+03
2.419263e+03,1.808496e+03
2.422156e+03,1.822518e+03
2.425049e+03,1.803221e+03
2.427941e+03,1.792525e+03
2.430834e+03,1.795990e+03
2.433727e+03,1.784029e+03
2.436620e+03,1.791695e+03
2.439512e+03,1.793626e+03
2.442405e+03,1.795510e+03
2.445298e+03,1.778212e+03
2.448190e+03,1.770137e+03
2.451083e+03,1.781668e+03
2.453976e+03,1.758417e+03
2.456868e+03,1.785510e+03
2.459761e+03,1.752479e+03
2.462654e+03,1.759482e+03
2.465547e+03,1.761674e+03
2.468439e+03,1.742615e+03
2.471332e+03,1.751917e+03
2.474225e+03,1.728703e+03
2.477117e+03,1.735399e+03
2.480010e+03,1.744945e+03
2.482903e+03,1.741857e+03
2.485795e+03,1.726650e+03
2.488688e+03,1.725480e+03
2.491581e+03,1.696010e+03
2.494474e+03,1.716253e+03
2.497366e+03,1.700922e+03
2.500259e+03,1.707196e+03
2.503152e+03,1.683868e+03
2.506044e+03,1.684813e+03
2.508937e+03,1.706986e+03
2.511830e+03,1.693178e+03
2.514722e+03,1.674355e+03
2.517615e+03,1.697445e+03
2.520508e+03,1.657270e+03
2.523401e+03,1.653871e+03
2.526293e+03,1.674323e+03
2.529186e+03,1.663595e+03
2.532079e+03,1.673458e+03
2.534971e+03,1.653125e+03
2.537864e+03,1.631772e+03
2.540757e+03,1.676477e+03
2.543649e+03,1.669369e+03
2.546542e+03,1.658515e+03
2.549435e+03,1.651119e+03
2.552328e+03,1.631249e+03
2.555220e+03,1.642886e+03
2.558113e+03,1.635250e+03
2.561006e+03,1.621510e+03
2.563898e+03,1.636643e+03
2.566791e+03,1.619696e+03
2.569684e+03,1.607739e+03
2.572576e+03,1.618693e+03
2.575469e+03,1.641578e+03
2.578362e+03,1.599726e+03
2.581255e+03,1.610389e+03
2.584147e+03,1.605058e+03
2.587040e+03,1.593854e+03
2.589933e+03,1.591282e+03
2.592825e+03,1.607333e+03
2.595718e+03,1.580870e+03
2.598611e+03,1.572300e+03
2.601503e+03,1.584940e+03
2.604396e+03,1.582244e+03
2.607289e+03,1.596138e+03
2.610182e+03,1.554745e+03
2.613074e+03,1.559005e+03
2.615967e+03,1.549420e+03
2.618860e+03,1.568760e+03
2.621752e+03,1.569849e+03
2.624645e+03,1.556711e+03
2.627538e+03,1.542715e+03
2.630430e+03,1.555987e+03
2.633323e+03,1.542857e+03
2.636216e+03,1.548128e+03
2.639109e+03,1.543413e+03
2.642001e+03,1.541220e+03
2.644894e+03,1.549836e+03
2.647787e+03,1.514188e+03
2.650679e+03,1.523668e+03
2.653572e+03,1.494315e+03
2.656465e+03,1.529543e+03
2.659357e+03,1.516352e+03
2.662250e+03,1.513918e+03
2.665143e+03,1.500709e+03
2.668036e+03,1.504349e+03
2.670928e+03,1.491039e+03
2.673821e+03,1.485294e+03
2.676714e+03,1.502517e+03
2.679606e+03,1.490699e+03
2.682499e+03,1.504256e+03
2.685392e+03,1.501049e+03
2.688284e+03,1.467806e+03
2.691177e+03,1.494542e+03
2.694070e+03,1.480734e+03
2.696963e+03,1.470748e+03
2.699855e+03,1.480606e+03
2.702748e+03,1.494775e+03
2.705641e+03,1.460073e+03
2.708533e+03,1.467391e+03
2.711426e+03,1.449318e+03
2.714319e+03,1.450053e+03
2.717211e+03,1.449416e+03
2.720104e+03,1.457461e+03
2.722997e+03,1.474262e+03
2.725890e+03,1.456108e+03
2.728782e+03,1.444947e+03
2.731675e+03,1.443134e+03
2.734568e+03,1.439923e+03
2.737460e+03,1.432698e+03
2.740353e+03,1.440602e+03
2.743246e+03,1.432068e+03
2.746138e+03,1.402121e+03
2.749031e+03,1.454924e+03
2.751924e+03,1.419735e+03
2.754817e+03,1.431882e+03
2.757709e+03,1.415361e+03
2.760602e+03,1.404343e+03
2.763495e+03,1.420344e+03
2.766387e+03,1.411849e+03
2.769280e+03,1.409437e+03
2.772173e+03,1.392278e+03
2.775065e+03,1.404238e+03
2.777958e+03,1.418926e+03
2.780851e+03,1.385903e+03
2.783744e+03,1.392589e+03
2.786636e+03,1.366448e+03
2.789529e+03,1.409304e+03
2.792422e+03,1.381448e+03
2.795314e+03,1.365986e+03
2.798207e+03,1.365949e+03
2.801100e+03,1.356231e+03
2.803992e+03,1.366394e+03
2.806885e+03,1.358432e+03
2.809778e+03,1.389066e+03
2.812671e+03,1.356540e+03
2.815563e+03,1.356221e+03
2.818456e+03,1.382139e+03
2.821349e+03,1.362566e+03
2.824241e+03,1.378049e+03
2.827134e+03,1.388140e+03
2.830027e+03,1.375271e+03
2.832919e+03,1.376577e+03
2.835812e+03,1.347074e+03
2.838705e+03,1.322066e+03
2.841598e+03,1.348138e+03
2.844490e+03,1.355568e+03
2.847383e+03,1.355961e+03
2.850276e+03,1.370599e+03
2.853168e+03,1.349309e+03
2.856061e+03,1.352608e+03
2.858954e+03,1.345167e+03
2.861846e+03,1.355236e+03
2.864739e+03,1.331421e+03
2.867632e+03,1.352912e+03
2.870525e+03,1.361881e+03
2.873417e+03,1.344970e+03
2.876310e+03,1.327971e+03
2.879203e+03,1.326755e+03
2.882095e+03,1.352693e+03
2.884988e+03,1.360948e+03
2.887881e+03,1.357439e+03
2.890773e+03,1.356175e+03
2.893666e+03,1.343132e+03
2.896559e+03,1.342336e+03
2.899452e+03,1.302585e+03
2.902344e+03,1.328104e+03
2.905237e+03,1.318287e+03
2.908130e+03,1.337456e+03
2.911022e+03,1.327862e+03
2.913915e+03,1.307561e+03
2.916808e+03,1.317974e+03
2.919700e+03,1.304507e+03
2.922593e+03,1.299801e+03
2.925486e+03,1.310885e+03
2.928379e+03,1.326522e+03
2.931271e+03,1.295166e+03
2.934164e+03,1.300727e+03
2.937057e+03,1.301277e+03
2.939949e+03,1.276483e+03
2.942842e+03,1.270773e+03
2.945735e+03,1.278869e+03
2.948627e+03,1.293904e+03
2.951520e+03,1.258753e+03
2.954413e+03,1.251405e+03
2.957306e+03,1.280191e+03
2.960198e+03,1.291944e+03
2.963091e+03,1.281670e+03
2.965984e+03,1.264786e+03
2.968876e+03,1.242878e+03
2.971769e+03,1.266078e+03
2.974662e+03,1.249184e+03
2.977554e+03,1.252195e+03
2.980447e+03,1.225201e+03
2.983340e+03,1.241604e+03
2.986233e+03,1.240981e+03
2.989125e+03,1.230131e+03
2.992018e+03,1.232415e+03
2.994911e+03,1.221171e+03
2.997803e+03,1.209679e+03
3.000696e+03,1.195498e+03
3.003589e+03,1.219370e+03
3.006481e+03,1.228966e+03
3.009374e+03,1.218091e+03
3.012267e+03,1.210673e+03
3.015160e+03,1.233295e+03
3.018052e+03,1.191169e+03
3.020945e+03,1.196205e+03
3.023838e+03,1.194020e+03
3.026730e+03,1.202654e+03
3.029623e+03,1.194124e+03
3.032516e+03,1.222841e+03
3.035408e+03,1.133300e+03
3.038301e+03,1.232374e+03
3.041194e+03,1.182352e+03
3.044087e+03,1.174911e+03
3.046979e+03,1.200740e+03
3.049872e+03,1.188738e+03
3.052765e+03,1.184729e+03
3.055657e+03,1.180201e+03
3.058550e+03,1.168613e+03
3.061443e+03,1.202800e+03
3.064335e+03,1.145935e+03
3.067228e+03,1.146604e+03
3.070121e+03,1.194350e+03
3.073014e+03,1.164490e+03
3.075906e+03,1.167209e+03
3.078799e+03,1.174208e+03
3.081692e+03,1.165389e+03
3.084584e+03,1.155838e+03
3.087477e+03,1.168818e+03
3.090370e+03,1.161641e+03
3.093262e+03,1.137050e+03
3.096155e+03,1.180004e+03
3.099048e+03,1.189933e+03
3.101941e+03,1.169885e+03
3.104833e+03,1.146025e+03
3.107726e+03,1.162396e+03
3.110619e+03,1.159385e+03
3.113511e+03,1.161667e+03
3.116404e+03,1.155978e+03
3.119297e+03,1.115030e+03
3.122189e+03,1.153219e+03
3.125082e+03,1.166459e+03
3.127975e+03,1.185307e+03
3.130868e+03,1.146278e+03
3.133760e+03,1.139577e+03
3.136653e+03,1.108909e+03
3.139546e+03,1.136348e+03
3.142438e+03,1.129226e+03
3.145331e+03,1.145762e+03
3.148224e+03,1.168856e+03
3.151116e+03,1.128455e+03
3.154009e+03,1.158277e+03
3.156902e+03,1.165502e+03
3.159795e+03,1.089250e+03
3.162687e+03,1.133877e+03
3.165580e+03,1.169125e+03
3.168473e+03,1.185256e+03
3.171365e+03,1.157928e+03
3.174258e+03,1.123109e+03
3.177151e+03,1.134525e+03
3.180043e+03,1.167455e+03
3.182936e+03,1.172106e+03
3.185829e+03,1.168794e+03
3.188722e+03,1.153830e+03
3.191614e+03,1.196760e+03
3.194507e+03,1.120695e+03
3.197400e+03,1.116405e+03
3.200292e+03,1.135836e+03
3.203185e+03,0.000000e+00
3.206078e+03,0.000000e+00
3.208970e+03,0.000000e+00
3.211863e+03,0.000000e+00
3.214756e+03,0.000000e+00
3.217649e+03,0.000000e+00
3.220541e+03,0.000000e+00
3.223434e+03,0.000000e+00
3.226327e+03,0.000000e+00
3.229219e+03,0.000000e+00
3.232112e+03,0.000000e+00
3.235005e+03,0.000000e+00
3.237897e+03,0.000000e+00
3.240790e+03,0.000000e+00
3.243683e+03,0.000000e+00
3.246576e+03,0.000000e+00
3.249468e+03,0.000000e+00
3.252361e+03,0.000000e+00
3.255254e+03,0.000000e+00
3.258146e+03,0.000000e+00
3.261039e+03,0.000000e+00
3.263932e+03,0.000000e+00
3.266824e+03,0.000000e+00
3.269717e+03,0.000000e+00
3.272610e+03,0.000000e+00
3.275503e+03,0.000000e+00
3.278395e+03,0.000000e+00
3.281288e+03,0.000000e+00
3.284181e+03,0.000000e+00
3.287073e+03,0.000000e+00
3.289966e+03,0.000000e+00
3.292859e+03,0.000000e+00
3.295751e+03,0.000000e+00
3.298644e+03,0.000000e+00
3.301537e+03,0.000000e+00
3.304430e+03,0.000000e+00
3.307322e+03,0.000000e+00
3.310215e+03,0.000000e+00
3.313108e+03,0.000000e+00
3.316000e+03,0.000000e+00
3.318893e+03,0.000000e+00
3.321786e+03,0.000000e+00
3.324678e+03,0.000000e+00
3.327571e+03,0.000000e+00
3.330464e+03,0.000000e+00
3.333357e+03,0.000000e+00
3.336249e+03,0.000000e+00
3.339142e+03,0.000000e+00
3.342035e+03,0.000000e+00
3.344927e+03,0.000000e+00
3.347820e+03,0.000000e+00
3.350713e+03,0.000000e+00
3.353605e+03,0.000000e+00
3.356498e+03,0.000000e+00
3.359391e+03,0.000000e+00
3.362284e+03,0.000000e+00
3.365176e+03,0.000000e+00
3.368069e+03,0.000000e+00
3.370962e+03,0.000000e+00
3.373854e+03,0.000000e+00
3.376747e+03,0.000000e+00
3.379640e+03,0.000000e+00
3.382532e+03,0.000000e+00
3.385425e+03,0.000000e+00
3.388318e+03,0.000000e+00
3.391211e+03,0.000000e+00
3.394103e+03,0.000000e+00
3.396996e+03,0.000000e+00
3.399889e+03,0.000000e+00
3.402781e+03,0.000000e+00
3.405674e+03,0.000000e+00
3.408567e+03,0.000000e+00
3.411459e+03,0.000000e+00
3.414352e+03,0.000000e+00
3.417245e+03,0.000000e+00
3.420138e+03,0.000000e+00
3.423030e+03,0.000000e+00
3.425923e+03,0.000000e+00
3.428816e+03,0.000000e+00
3.431708e+03,0.000000e+00
3.434601e+03,0.000000e+00
3.437494e+03,0.000000e+00
3.440386e+03,0.000000e+00
3.443279e+03,0.000000e+00
3.446172e+03,0.000000e+00
3.449065e+03,0.000000e+00
3.451957e+03,0.000000e+00
3.454850e+03,0.000000e+00
3.457743e+03,0.000000e+00
3.460635e+03,0.000000e+00
3.463528e+03,0.000000e+00
3.466421e+03,0.000000e+00
3.469313e+03,0.000000e+00
3.472206e+03,0.000000e+00
3.475099e+03,0.000000e+00
3.477992e+03,0.000000e+00
3.480884e+03,0.000000e+00
3.483777e+03,0.000000e+00
3.486670e+03,0.000000e+00
3.489563e+03,0.000000e+00
3.492455e+03,0.000000e+00
3.495348e+03,0.000000e+00
3.498240e+03,0.000000e+00
3.500169e+03,0.000000e+00