File: RAMAN_data/20012023_r3/black fibre6.CSV
9.931763e+01,0.000000e+00
1.022103e+02,0.000000e+00
1.051030e+02,0.000000e+00
1.079957e+02,0.000000e+00
1.108884e+02,0.000000e+00
1.137811e+02,0.000000e+00
1.166738e+02,0.000000e+00
1.195665e+02,0.000000e+00
1.224592e+02,0.000000e+00
1.253519e+02,0.000000e+00
1.282446e+02,0.000000e+00
1.311373e+02,0.000000e+00
1.340300e+02,0.000000e+00
1.369227e+02,0.000000e+00
1.398154e+02,0.000000e+00
1.427081e+02,0.000000e+00
1.456008e+02,0.000000e+00
1.484935e+02,0.000000e+00
1.513862e+02,0.000000e+00
1.542789e+02,0.000000e+00
1.571716e+02,0.000000e+00
1.600643e+02,0.000000e+00
1.629570e+02,0.000000e+00
1.658497e+02,0.000000e+00
1.687424e+02,0.000000e+00
1.716351e+02,0.000000e+00
1.745278e+02,0.000000e+00
1.774205e+02,0.000000e+00
1.803132e+02,0.000000e+00
1.832059e+02,0.000000e+00
1.860986e+02,0.000000e+00
1.889913e+02,0.000000e+00
1.918840e+02,0.000000e+00
1.947767e+02,0.000000e+00
1.976694e+02,0.000000e+00
2.005621e+02,1.047899e+04
2.034548e+02,1.051899e+04
2.063475e+02,1.054891e+04
2.092402e+02,1.054938e+04
2.121329e+02,1.055037e+04
2.150256e+02,1.057905e+04
2.179183e+02,1.060927e+04
2.208110e+02,1.066068e+04
2.237037e+02,1.067604e+04
2.265964e+02,1.068651e+04
2.294892e+02,1.071479e+04
2.323819e+02,1.076347e+04
2.352746e+02,1.080069e+04
2.381673e+02,1.083713e+04
2.410600e+02,1.083247e+04
2.439527e+02,1.084990e+04
2.468454e+02,1.088676e+04
2.497381e+02,1.092278e+04
2.526308e+02,1.095922e+04
2.555235e+02,1.097428e+04
2.584161e+02,1.097618e+04
2.613088e+02,1.101875e+04
2.642015e+02,1.107090e+04
2.670942e+02,1.109680e+04
2.699869e+02,1.113129e+04
2.728796e+02,1.114345e+04
2.757723e+02,1.118588e+04
2.786650e+02,1.122837e+04
2.815577e+02,1.125757e+04
2.844504e+02,1.128443e+04
2.873431e+02,1.128894e+04
2.902358e+02,1.131662e+04
2.931285e+02,1.134527e+04
2.960212e+02,1.138987e+04
2.989139e+02,1.141438e+04
3.018066e+02,1.143403e+04
3.046993e+02,1.146588e+04
3.075920e+02,1.148845e+04
3.104847e+02,1.152735e+04
3.133774e+02,1.157835e+04
3.162701e+02,1.159459e+04
3.191628e+02,1.160762e+04
3.220555e+02,1.163995e+04
3.249482e+02,1.167988e+04
3.278409e+02,1.170633e+04
3.307336e+02,1.173875e+04
3.336263e+02,1.173594e+04
3.365190e+02,1.174069e+04
3.394117e+02,1.179900e+04
3.423044e+02,1.183409e+04
3.451971e+02,1.186855e+04
3.480898e+02,1.188799e+04
3.509825e+02,1.187624e+04
3.538752e+02,1.193532e+04
3.567680e+02,1.197038e+04
3.596607e+02,1.198346e+04
3.625534e+02,1.201636e+04
3.654461e+02,1.198852e+04
3.683388e+02,1.201540e+04
3.712315e+02,1.206561e+04
3.741242e+02,1.212170e+04
3.770169e+02,1.212286e+04
3.799096e+02,1.215149e+04
3.828023e+02,1.214946e+04
3.856950e+02,1.218209e+04
3.885877e+02,1.222357e+04
3.914804e+02,1.224124e+04
3.943731e+02,1.224081e+04
3.972658e+02,1.221858e+04
4.001585e+02,1.222810e+04
4.030512e+02,1.226080e+04
4.059439e+02,1.228192e+04
4.088366e+02,1.229395e+04
4.117293e+02,1.227104e+04
4.146220e+02,1.227454e+04
4.175147e+02,1.231495e+04
4.204074e+02,1.232569e+04
4.233001e+02,1.232721e+04
4.261928e+02,1.232770e+04
4.290855e+02,1.232800e+04
4.319782e+02,1.234039e+04
4.348709e+02,1.238720e+04
4.377636e+02,1.237496e+04
4.406563e+02,1.240912e+04
4.435490e+02,1.239265e+04
4.464417e+02,1.238598e+04
4.493344e+02,1.241307e+04
4.522271e+02,1.243200e+04
4.551198e+02,1.246584e+04
4.580125e+02,1.245789e+04
4.609052e+02,1.246454e+04
4.637979e+02,1.245558e+04
4.666906e+02,1.246832e+04
4.695833e+02,1.246041e+04
4.724760e+02,1.249849e+04
4.753687e+02,1.249307e+04
4.782614e+02,1.247835e+04
4.811541e+02,1.251345e+04
4.840468e+02,1.254392e+04
4.869395e+02,1.252731e+04
4.898322e+02,1.250426e+04
4.927249e+02,1.251304e+04
4.956176e+02,1.254395e+04
4.985103e+02,1.257116e+04
5.014030e+02,1.257126e+04
5.042957e+02,1.254986e+04
5.071884e+02,1.258056e+04
5.100811e+02,1.255524e+04
5.129738e+02,1.259102e+04
5.158665e+02,1.262109e+04
5.187592e+02,1.261498e+04
5.216519e+02,1.257783e+04
5.245446e+02,1.260882e+04
5.274373e+02,1.261153e+04
5.303300e+02,1.259922e+04
5.332227e+02,1.259598e+04
5.361154e+02,1.257206e+04
5.390081e+02,1.255067e+04
5.419008e+02,1.256516e+04
5.447935e+02,1.256136e+04
5.476862e+02,1.258574e+04
5.505789e+02,1.256456e+04
5.534716e+02,1.249581e+04
5.563643e+02,1.249796e+04
5.592570e+02,1.250594e+04
5.621497e+02,1.253084e+04
5.650424e+02,1.252623e+04
5.679351e+02,1.243375e+04
5.708278e+02,1.240199e+04
5.737205e+02,1.246257e+04
5.766132e+02,1.247470e+04
5.795059e+02,1.246453e+04
5.823986e+02,1.242995e+04
5.852913e+02,1.241572e+04
5.881840e+02,1.242094e+04
5.910767e+02,1.242929e+04
5.939694e+02,1.238880e+04
5.968621e+02,1.237469e+04
5.997548e+02,1.237745e+04
6.026475e+02,1.232950e+04
6.055402e+02,1.238478e+04
6.084329e+02,1.238575e+04
6.113256e+02,1.233111e+04
6.142183e+02,1.230184e+04
6.171110e+02,1.228601e+04
6.200037e+02,1.230723e+04
6.228964e+02,1.234717e+04
6.257891e+02,1.230458e+04
6.286818e+02,1.230682e+04
6.315745e+02,1.227297e+04
6.344672e+02,1.222911e+04
6.373599e+02,1.221602e+04
6.402526e+02,1.220336e+04
6.431453e+02,1.220770e+04
6.460380e+02,1.216661e+04
6.489307e+02,1.216230e+04
6.518234e+02,1.219395e+04
6.547161e+02,1.216995e+04
6.576088e+02,1.213481e+04
6.605015e+02,1.209624e+04
6.633942e+02,1.212051e+04
6.662869e+02,1.213048e+04
6.691796e+02,1.210490e+04
6.720723e+02,1.212437e+04
6.749650e+02,1.206925e+04
6.778577e+02,1.205162e+04
6.807504e+02,1.205073e+04
6.836431e+02,1.202737e+04
6.865358e+02,1.200731e+04
6.894285e+02,1.199851e+04
6.923212e+02,1.199254e+04
6.952139e+02,1.195281e+04
6.981066e+02,1.198417e+04
7.009993e+02,1.198682e+04
7.038920e+02,1.193871e+04
7.067847e+02,1.192129e+04
7.096774e+02,1.191023e+04
7.125701e+02,1.193696e+04
7.154628e+02,1.192599e+04
7.183555e+02,1.191065e+04
7.212482e+02,1.188501e+04
7.241409e+02,1.184069e+04
7.270336e+02,1.185242e+04
7.299263e+02,1.186294e+04
7.328190e+02,1.180116e+04
7.357117e+02,1.180574e+04
7.386044e+02,1.177080e+04
7.414971e+02,1.176819e+04
7.443898e+02,1.178085e+04
7.472825e+02,1.177314e+04
7.501752e+02,1.173635e+04
7.530679e+02,1.171663e+04
7.559606e+02,1.170390e+04
7.588533e+02,1.171188e+04
7.617460e+02,1.171791e+04
7.646387e+02,1.166819e+04
7.675314e+02,1.165069e+04
7.704241e+02,1.161682e+04
7.733168e+02,1.162178e+04
7.762095e+02,1.163847e+04
7.791022e+02,1.165839e+04
7.819949e+02,1.159816e+04
7.848876e+02,1.157712e+04
7.877803e+02,1.157982e+04
7.906730e+02,1.155256e+04
7.935657e+02,1.152438e+04
7.964584e+02,1.150152e+04
7.993511e+02,1.149421e+04
8.022438e+02,1.148226e+04
8.051365e+02,1.147860e+04
8.080292e+02,1.144964e+04
8.109219e+02,1.143658e+04
8.138146e+02,1.141759e+04
8.167073e+02,1.140277e+04
8.196000e+02,1.140308e+04
8.224927e+02,1.141035e+04
8.253854e+02,1.137273e+04
8.282781e+02,1.138235e+04
8.311708e+02,1.134759e+04
8.340635e+02,1.135459e+04
8.369562e+02,1.134402e+04
8.398489e+02,1.130637e+04
8.427416e+02,1.130586e+04
8.456343e+02,1.131016e+04
8.485270e+02,1.128482e+04
8.514197e+02,1.126586e+04
8.543124e+02,1.121413e+04
8.572051e+02,1.125060e+04
8.600978e+02,1.117507e+04
8.629905e+02,1.117767e+04
8.658832e+02,1.115101e+04
8.687759e+02,1.115930e+04
8.716686e+02,1.115950e+04
8.745613e+02,1.111107e+04
8.774540e+02,1.109634e+04
8.803467e+02,1.109039e+04
8.832394e+02,1.110922e+04
8.861321e+02,1.112026e+04
8.890248e+02,1.106376e+04
8.919175e+02,1.106426e+04
8.948102e+02,1.105708e+04
8.977029e+02,1.100948e+04
9.005956e+02,1.097026e+04
9.034883e+02,1.097546e+04
9.063810e+02,1.093581e+04
9.092737e+02,1.093438e+04
9.121664e+02,1.095173e+04
9.150591e+02,1.090277e+04
9.179518e+02,1.090147e+04
9.208445e+02,1.089340e+04
9.237372e+02,1.084501e+04
9.266299e+02,1.086229e+04
9.295226e+02,1.081976e+04
9.324153e+02,1.081417e+04
9.353080e+02,1.083308e+04
9.382007e+02,1.078035e+04
9.410934e+02,1.076939e+04
9.439861e+02,1.073363e+04
9.468788e+02,1.074891e+04
9.497715e+02,1.073675e+04
9.526642e+02,1.070558e+04
9.555569e+02,1.069688e+04
9.584496e+02,1.069259e+04
9.613423e+02,1.065595e+04
9.642350e+02,1.064316e+04
9.671277e+02,1.062090e+04
9.700204e+02,1.058306e+04
9.729131e+02,1.059264e+04
9.758058e+02,1.059707e+04
9.786985e+02,1.058191e+04
9.815912e+02,1.055304e+04
9.844839e+02,1.053792e+04
9.873766e+02,1.053974e+04
9.902693e+02,1.050373e+04
9.931620e+02,1.050659e+04
9.960547e+02,1.048762e+04
9.989474e+02,1.048345e+04
1.001840e+03,1.040375e+04
1.004733e+03,1.040157e+04
1.007626e+03,1.041188e+04
1.010518e+03,1.042061e+04
1.013411e+03,1.040025e+04
1.016304e+03,1.033625e+04
1.019196e+03,1.035481e+04
1.022089e+03,1.033608e+04
1.024982e+03,1.035572e+04
1.027875e+03,1.032231e+04
1.030767e+03,1.030334e+04
1.033660e+03,1.027075e+04
1.036552e+03,1.030983e+04
1.039445e+03,1.029926e+04
1.042338e+03,1.025247e+04
1.045231e+03,1.022608e+04
1.048123e+03,1.019151e+04
1.051016e+03,1.020847e+04
1.053909e+03,1.023323e+04
1.056802e+03,1.018458e+04
1.059694e+03,1.016850e+04
1.062587e+03,1.015408e+04
1.065479e+03,1.013917e+04
1.068372e+03,1.011991e+04
1.071265e+03,1.015550e+04
1.074158e+03,1.013785e+04
1.077050e+03,1.010241e+04
1.079943e+03,1.007725e+04
1.082836e+03,1.010608e+04
1.085729e+03,1.011997e+04
1.088621e+03,1.007474e+04
1.091514e+03,1.005366e+04
1.094406e+03,1.000761e+04
1.097299e+03,1.001628e+04
1.100192e+03,1.000170e+04
1.103085e+03,1.000247e+04
1.105977e+03,9.952459e+03
1.108870e+03,9.940744e+03
1.111763e+03,9.942444e+03
1.114656e+03,9.927724e+03
1.117548e+03,9.954386e+03
1.120441e+03,9.915660e+03
1.123334e+03,9.906391e+03
1.126226e+03,9.882709e+03
1.129119e+03,9.848026e+03
1.132012e+03,9.842050e+03
1.134904e+03,9.832702e+03
1.137797e+03,9.789845e+03
1.140690e+03,9.797969e+03
1.143583e+03,9.819066e+03
1.146475e+03,9.784910e+03
1.149368e+03,9.796814e+03
1.152261e+03,9.761826e+03
1.155153e+03,9.712584e+03
1.158046e+03,9.707776e+03
1.160939e+03,9.707641e+03
1.163831e+03,9.736682e+03
1.166724e+03,9.687229e+03
1.169617e+03,9.663429e+03
1.172510e+03,9.638002e+03
1.175402e+03,9.619088e+03
1.178295e+03,9.631443e+03
1.181188e+03,9.615010e+03
1.184080e+03,9.594563e+03
1.186973e+03,9.587783e+03
1.189866e+03,9.572112e+03
1.192758e+03,9.578311e+03
1.195651e+03,9.557442e+03
1.198544e+03,9.570244e+03
1.201437e+03,9.515274e+03
1.204329e+03,9.500603e+03
1.207222e+03,9.496562e+03
1.210115e+03,9.506652e+03
1.213007e+03,9.511658e+03
1.215900e+03,9.469701e+03
1.218793e+03,9.464962e+03
1.221685e+03,9.408661e+03
1.224578e+03,9.416132e+03
1.227471e+03,9.420442e+03
1.230364e+03,9.400926e+03
1.233256e+03,9.352600e+03
1.236149e+03,9.319396e+03
1.239042e+03,9.363183e+03
1.241934e+03,9.363142e+03
1.244827e+03,9.336538e+03
1.247720e+03,9.296340e+03
1.250612e+03,9.294020e+03
1.253505e+03,9.277014e+03
1.256398e+03,9.277995e+03
1.259291e+03,9.260776e+03
1.262183e+03,9.266236e+03
1.265076e+03,9.233044e+03
1.267969e+03,9.201375e+03
1.270861e+03,9.238099e+03
1.273754e+03,9.244735e+03
1.276647e+03,9.232638e+03
1.279539e+03,9.179387e+03
1.282432e+03,9.174356e+03
1.285325e+03,9.153457e+03
1.288218e+03,9.163267e+03
1.291110e+03,9.138173e+03
1.294003e+03,9.121114e+03
1.296896e+03,9.121380e+03
1.299788e+03,9.113824e+03
1.302681e+03,9.106190e+03
1.305574e+03,9.107916e+03
1.308466e+03,9.086599e+03
1.311359e+03,9.042638e+03
1.314252e+03,9.025311e+03
1.317145e+03,9.024564e+03
1.320037e+03,9.052269e+03
1.322930e+03,9.016307e+03
1.325823e+03,8.998402e+03
1.328715e+03,8.970011e+03
1.331608e+03,8.986795e+03
1.334501e+03,9.003204e+03
1.337393e+03,8.969348e+03
1.340286e+03,8.951715e+03
1.343179e+03,8.929437e+03
1.346072e+03,8.913240e+03
1.348964e+03,8.902628e+03
1.351857e+03,8.929934e+03
1.354750e+03,8.898821e+03
1.357642e+03,8.864889e+03
1.360535e+03,8.826889e+03
1.363428e+03,8.829650e+03
1.366320e+03,8.830723e+03
1.369213e+03,8.809879e+03
1.372106e+03,8.786244e+03
1.374999e+03,8.751053e+03
1.377891e+03,8.763906e+03
1.380784e+03,8.757435e+03
1.383677e+03,8.760934e+03
1.386569e+03,8.722949e+03
1.389462e+03,8.706281e+03
1.392355e+03,8.680438e+03
1.395247e+03,8.665023e+03
1.398140e+03,8.699565e+03
1.401033e+03,8.665186e+03
1.403926e+03,8.604296e+03
1.406818e+03,8.605910e+03
1.409711e+03,8.631208e+03
1.412604e+03,8.614877e+03
1.415496e+03,8.582634e+03
1.418389e+03,8.584903e+03
1.421282e+03,8.572158e+03
1.424174e+03,8.519169e+03
1.427067e+03,8.545754e+03
1.429960e+03,8.546112e+03
1.432853e+03,8.545730e+03
1.435745e+03,8.476893e+03
1.438638e+03,8.476239e+03
1.441531e+03,8.457381e+03
1.444423e+03,8.467979e+03
1.447316e+03,8.451116e+03
1.450209e+03,8.424465e+03
1.453101e+03,8.406530e+03
1.455994e+03,8.410998e+03
1.458887e+03,8.431162e+03
1.461780e+03,8.380899e+03
1.464672e+03,8.400572e+03
1.467565e+03,8.353616e+03
1.470458e+03,8.327394e+03
1.473350e+03,8.333682e+03
1.476243e+03,8.344392e+03
1.479136e+03,8.304319e+03
1.482028e+03,8.295045e+03
1.484921e+03,8.266410e+03
1.487814e+03,8.241621e+03
1.490707e+03,8.202115e+03
1.493599e+03,8.231746e+03
1.496492e+03,8.208127e+03
1.499385e+03,8.202369e+03
1.502277e+03,8.195646e+03
1.505170e+03,8.204705e+03
1.508063e+03,8.146275e+03
1.510955e+03,8.152273e+03
1.513848e+03,8.124333e+03
1.516741e+03,8.137425e+03
1.519634e+03,8.098553e+03
1.522526e+03,8.135725e+03
1.525419e+03,8.099840e+03
1.528312e+03,8.082109e+03
1.531204e+03,8.057593e+03
1.534097e+03,8.065875e+03
1.536990e+03,8.014930e+03
1.539882e+03,8.039073e+03
1.542775e+03,8.016727e+03
1.545668e+03,8.015878e+03
1.548561e+03,8.004406e+03
1.551453e+03,7.962232e+03
1.554346e+03,7.992880e+03
1.557239e+03,7.990954e+03
1.560131e+03,7.944393e+03
1.563024e+03,7.945545e+03
1.565917e+03,7.946915e+03
1.568809e+03,7.917201e+03
1.571702e+03,7.928657e+03
1.574595e+03,7.909240e+03
1.577488e+03,7.889712e+03
1.580380e+03,7.888630e+03
1.583273e+03,7.881665e+03
1.586166e+03,7.865556e+03
1.589058e+03,7.816692e+03
1.591951e+03,7.848355e+03
1.594844e+03,7.826993e+03
1.597736e+03,7.818192e+03
1.600629e+03,7.788925e+03
1.603522e+03,7.778936e+03
1.606415e+03,7.751542e+03
1.609307e+03,7.742194e+03
1.612200e+03,7.729355e+03
1.615093e+03,7.703819e+03
1.617985e+03,7.708263e+03
1.620878e+03,7.703455e+03
1.623771e+03,7.647170e+03
1.626663e+03,7.679259e+03
1.629556e+03,7.638313e+03
1.632449e+03,7.635769e+03
1.635342e+03,7.624786e+03
1.638234e+03,7.558275e+03
1.641127e+03,7.558542e+03
1.644020e+03,7.556874e+03
1.646912e+03,7.528031e+03
1.649805e+03,7.508162e+03
1.652698e+03,7.503601e+03
1.655590e+03,7.486359e+03
1.658483e+03,7.520377e+03
1.661376e+03,7.493378e+03
1.664269e+03,7.452075e+03
1.667161e+03,7.431831e+03
1.670054e+03,7.426553e+03
1.672947e+03,7.397483e+03
1.675839e+03,7.397233e+03
1.678732e+03,7.398729e+03
1.681625e+03,7.369689e+03
1.684517e+03,7.350808e+03
1.687410e+03,7.352649e+03
1.690303e+03,7.346094e+03
1.693196e+03,7.317564e+03
1.696088e+03,7.304955e+03
1.698981e+03,7.328009e+03
1.701874e+03,7.299463e+03
1.704766e+03,7.287291e+03
1.707659e+03,7.266967e+03
1.710552e+03,7.242268e+03
1.713444e+03,7.216667e+03
1.716337e+03,7.193736e+03
1.719230e+03,7.197268e+03
1.722123e+03,7.179565e+03
1.725015e+03,7.142729e+03
1.727908e+03,7.154752e+03
1.730801e+03,7.101859e+03
1.733693e+03,7.112050e+03
1.736586e+03,7.120120e+03
1.739479e+03,7.096618e+03
1.742371e+03,7.099962e+03
1.745264e+03,7.083925e+03
1.748157e+03,7.059143e+03
1.751050e+03,7.032179e+03
1.753942e+03,7.039536e+03
1.756835e+03,7.027717e+03
1.759728e+03,6.983779e+03
1.762620e+03,6.984706e+03
1.765513e+03,7.009120e+03
1.768406e+03,6.952594e+03
1.771298e+03,6.964075e+03
1.774191e+03,6.939044e+03
1.777084e+03,6.939280e+03
1.779977e+03,6.930209e+03
1.782869e+03,6.909878e+03
1.785762e+03,6.894770e+03
1.788655e+03,6.835804e+03
1.791547e+03,6.862330e+03
1.794440e+03,6.836731e+03
1.797333e+03,6.858761e+03
1.800225e+03,6.818160e+03
1.803118e+03,6.811037e+03
1.806011e+03,6.786878e+03
1.808904e+03,6.776251e+03
1.811796e+03,6.785101e+03
1.814689e+03,6.751679e+03
1.817582e+03,6.755336e+03
1.820474e+03,6.730006e+03
1.823367e+03,6.695953e+03
1.826260e+03,6.671695e+03
1.829152e+03,6.683875e+03
1.832045e+03,6.684815e+03
1.834938e+03,6.629638e+03
1.837831e+03,6.634818e+03
1.840723e+03,6.605889e+03
1.843616e+03,6.618775e+03
1.846509e+03,6.617067e+03
1.849401e+03,6.585879e+03
1.852294e+03,6.547256e+03
1.855187e+03,6.517234e+03
1.858079e+03,6.517092e+03
1.860972e+03,6.502794e+03
1.863865e+03,6.534040e+03
1.866758e+03,6.473608e+03
1.869650e+03,6.500754e+03
1.872543e+03,6.458031e+03
1.875436e+03,6.464814e+03
1.878328e+03,6.461175e+03
1.881221e+03,6.442596e+03
1.884114e+03,6.425998e+03
1.887006e+03,6.439882e+03
1.889899e+03,6.384749e+03
1.892792e+03,6.329242e+03
1.895685e+03,6.368266e+03
1.898577e+03,6.340720e+03
1.901470e+03,6.338444e+03
1.904363e+03,6.330409e+03
1.907255e+03,6.299501e+03
1.910148e+03,6.304890e+03
1.913041e+03,6.262265e+03
1.915933e+03,6.252351e+03
1.918826e+03,6.203934e+03
1.921719e+03,6.244500e+03
1.924612e+03,6.198386e+03
1.927504e+03,6.195349e+03
1.930397e+03,6.222685e+03
1.933290e+03,6.169460e+03
1.936182e+03,6.172867e+03
1.939075e+03,6.103448e+03
1.941968e+03,6.146413e+03
1.944860e+03,6.108812e+03
1.947753e+03,6.075964e+03
1.950646e+03,6.081878e+03
1.953539e+03,6.087605e+03
1.956431e+03,6.039479e+03
1.959324e+03,6.040698e+03
1.962217e+03,6.027996e+03
1.965109e+03,5.991491e+03
1.968002e+03,6.005497e+03
1.970895e+03,5.964827e+03
1.973787e+03,5.962816e+03
1.976680e+03,5.972392e+03
1.979573e+03,5.920443e+03
1.982466e+03,5.946156e+03
1.985358e+03,5.940147e+03
1.988251e+03,5.929790e+03
1.991144e+03,5.876007e+03
1.994036e+03,5.869226e+03
1.996929e+03,5.807628e+03
1.999822e+03,5.847176e+03
2.002714e+03,5.823498e+03
2.005607e+03,5.818110e+03
2.008500e+03,5.795583e+03
2.011393e+03,5.789907e+03
2.014285e+03,5.800071e+03
2.017178e+03,5.770246e+03
2.020071e+03,5.755943e+03
2.022963e+03,5.706880e+03
2.025856e+03,5.708557e+03
2.028749e+03,5.702378e+03
2.031641e+03,5.711485e+03
2.034534e+03,5.688304e+03
2.037427e+03,5.687753e+03
2.040320e+03,5.641044e+03
2.043212e+03,5.631275e+03
2.046105e+03,5.639898e+03
2.048998e+03,5.611873e+03
2.051890e+03,5.589511e+03
2.054783e+03,5.584799e+03
2.057676e+03,5.542360e+03
2.060568e+03,5.548562e+03
2.063461e+03,5.545790e+03
2.066354e+03,5.505405e+03
2.069247e+03,5.491571e+03
2.072139e+03,5.477688e+03
2.075032e+03,5.446013e+03
2.077925e+03,5.436646e+03
2.080817e+03,5.452250e+03
2.083710e+03,5.430426e+03
2.086603e+03,5.403723e+03
2.089496e+03,5.383682e+03
2.092388e+03,5.374465e+03
2.095281e+03,5.382235e+03
2.098174e+03,5.377752e+03
2.101066e+03,5.336733e+03
2.103959e+03,5.301688e+03
2.106852e+03,5.312231e+03
2.109744e+03,5.290525e+03
2.112637e+03,5.245974e+03
2.115530e+03,5.273313e+03
2.118422e+03,5.227804e+03
2.121315e+03,5.268692e+03
2.124208e+03,5.226371e+03
2.127101e+03,5.205850e+03
2.129993e+03,5.172838e+03
2.132886e+03,5.175569e+03
2.135779e+03,5.146231e+03
2.138671e+03,5.145793e+03
2.141564e+03,5.166299e+03
2.144457e+03,5.114704e+03
2.147350e+03,5.064987e+03
2.150242e+03,5.099991e+03
2.153135e+03,5.094022e+03
2.156028e+03,5.084571e+03
2.158920e+03,5.037927e+03
2.161813e+03,5.037092e+03
2.164706e+03,5.047828e+03
2.167598e+03,4.990108e+03
2.170491e+03,5.006213e+03
2.173384e+03,5.009844e+03
2.176277e+03,4.949154e+03
2.179169e+03,4.940693e+03
2.182062e+03,4.918271e+03
2.184955e+03,4.914591e+03
2.187847e+03,4.924196e+03
2.190740e+03,4.911102e+03
2.193633e+03,4.860729e+03
2.196525e+03,4.875942e+03
2.199418e+03,4.862880e+03
2.202311e+03,4.850476e+03
2.205204e+03,4.815150e+03
2.208096e+03,4.825976e+03
2.210989e+03,4.732107e+03
2.213882e+03,4.757158e+03
2.216774e+03,4.784935e+03
2.219667e+03,4.743575e+03
2.222560e+03,4.729102e+03
2.225452e+03,4.715201e+03
2.228345e+03,4.677311e+03
2.231238e+03,4.700239e+03
2.234131e+03,4.736127e+03
2.237023e+03,4.642061e+03
2.239916e+03,4.647263e+03
2.242809e+03,4.641514e+03
2.245701e+03,4.616647e+03
2.248594e+03,4.616597e+03
2.251487e+03,4.602519e+03
2.254379e+03,4.604328e+03
2.257272e+03,4.540400e+03
2.260165e+03,4.537525e+03
2.263058e+03,4.549962e+03
2.265950e+03,4.538596e+03
2.268843e+03,4.530166e+03
2.271736e+03,4.467933e+03
2.274628e+03,4.471522e+03
2.277521e+03,4.488062e+03
2.280414e+03,4.500923e+03
2.283306e+03,4.456221e+03
2.286199e+03,4.418398e+03
2.289092e+03,4.397314e+03
2.291985e+03,4.384030e+03
2.294877e+03,4.414057e+03
2.297770e+03,4.395849e+03
2.300663e+03,4.398868e+03
2.303555e+03,4.378771e+03
2.306448e+03,4.322305e+03
2.309341e+03,4.352744e+03
2.312233e+03,4.327854e+03
2.315126e+03,4.321622e+03
2.318019e+03,4.288001e+03
2.320912e+03,4.277589e+03
2.323804e+03,4.272008e+03
2.326697e+03,4.273181e+03
2.329590e+03,4.258326e+03
2.332482e+03,4.241534e+03
2.335375e+03,4.211342e+03
2.338268e+03,4.194275e+03
2.341160e+03,4.178375e+03
2.344053e+03,4.199870e+03
2.346946e+03,4.188347e+03
2.349839e+03,4.165521e+03
2.352731e+03,4.120710e+03
2.355624e+03,4.137155e+03
2.358517e+03,4.151447e+03
2.361409e+03,4.126379e+03
2.364302e+03,4.107921e+03
2.367195e+03,4.084242e+03
2.370087e+03,4.087819e+03
2.372980e+03,4.070627e+03
2.375873e+03,4.059362e+03
2.378766e+03,4.022201e+03
2.381658e+03,4.014437e+03
2.384551e+03,4.014764e+03
2.387444e+03,3.999333e+03
2.390336e+03,3.996787e+03
2.393229e+03,3.981165e+03
2.396122e+03,3.980639e+03
2.399014e+03,3.965315e+03
2.401907e+03,3.962046e+03
2.404800e+03,3.932497e+03
2.407693e+03,3.947241e+03
2.410585e+03,3.920035e+03
2.413478e+03,3.881677e+03
2.416371e+03,3.884326e+03
2.419263e+03,3.887440e+03
2.422156e+03,3.894602e+03
2.425049e+03,3.879710e+03
2.427941e+03,3.831606e+03
2.430834e+03,3.801670e+03
2.433727e+03,3.842627e+03
2.436620e+03,3.800040e+03
2.439512e+03,3.825823e+03
2.442405e+03,3.799922e+03
2.445298e+03,3.785285e+03
2.448190e+03,3.753246e+03
2.451083e+03,3.762664e+03
2.453976e+03,3.752698e+03
2.456868e+03,3.736713e+03
2.459761e+03,3.740424e+03
2.462654e+03,3.713337e+03
2.465547e+03,3.706217e+03
2.468439e+03,3.695900e+03
2.471332e+03,3.682478e+03
2.474225e+03,3.688972e+03
2.477117e+03,3.675758e+03
2.480010e+03,3.636766e+03
2.482903e+03,3.654457e+03
2.485795e+03,3.648069e+03
2.488688e+03,3.602906e+03
2.491581e+03,3.602294e+03
2.494474e+03,3.626647e+03
2.497366e+03,3.593206e+03
2.500259e+03,3.580512e+03
2.503152e+03,3.587097e+03
2.506044e+03,3.561945e+03
2.508937e+03,3.549917e+03
2.511830e+03,3.562604e+03
2.514722e+03,3.539921e+03
2.517615e+03,3.548071e+03
2.520508e+03,3.535641e+03
2.523401e+03,3.487895e+03
2.526293e+03,3.489547e+03
2.529186e+03,3.494193e+03
2.532079e+03,3.530829e+03
2.534971e+03,3.466108e+03
2.537864e+03,3.435390e+03
2.540757e+03,3.464965e+03
2.543649e+03,3.426465e+03
2.546542e+03,3.459147e+03
2.549435e+03,3.434402e+03
2.552328e+03,3.434775e+03
2.555220e+03,3.463273e+03
2.558113e+03,3.423937e+03
2.561006e+03,3.389660e+03
2.563898e+03,3.408112e+03
2.566791e+03,3.399468e+03
2.569684e+03,3.358422e+03
2.572576e+03,3.374688e+03
2.575469e+03,3.375872e+03
2.578362e+03,3.363095e+03
2.581255e+03,3.328576e+03
2.584147e+03,3.314316e+03
2.587040e+03,3.316663e+03
2.589933e+03,3.315346e+03
2.592825e+03,3.326981e+03
2.595718e+03,3.317463e+03
2.598611e+03,3.293044e+03
2.601503e+03,3.270498e+03
2.604396e+03,3.235294e+03
2.607289e+03,3.247011e+03
2.610182e+03,3.256348e+03
2.613074e+03,3.260591e+03
2.615967e+03,3.255431e+03
2.618860e+03,3.245543e+03
2.621752e+03,3.236521e+03
2.624645e+03,3.210917e+03
2.627538e+03,3.194043e+03
2.630430e+03,3.210253e+03
2.633323e+03,3.182497e+03
2.636216e+03,3.178254e+03
2.639109e+03,3.188174e+03
2.642001e+03,3.171389e+03
2.644894e+03,3.168300e+03
2.647787e+03,3.127180e+03
2.650679e+03,3.173915e+03
2.653572e+03,3.156518e+03
2.656465e+03,3.171439e+03
2.659357e+03,3.097216e+03
2.662250e+03,3.099489e+03
2.665143e+03,3.103018e+03
2.668036e+03,3.115780e+03
2.670928e+03,3.096220e+03
2.673821e+03,3.082038e+03
2.676714e+03,3.101108e+03
2.679606e+03,3.070410e+03
2.682499e+03,3.063804e+03
2.685392e+03,3.070184e+03
2.688284e+03,3.044527e+03
2.691177e+03,3.069414e+03
2.694070e+03,3.030151e+03
2.696963e+03,3.022478e+03
2.699855e+03,3.028259e+03
2.702748e+03,3.011547e+03
2.705641e+03,3.001798e+03
2.708533e+03,2.974733e+03
2.711426e+03,2.959212e+03
2.714319e+03,2.973909e+03
2.717211e+03,3.014735e+03
2.720104e+03,2.992556e+03
2.722997e+03,2.971227e+03
2.725890e+03,2.965038e+03
2.728782e+03,2.945636e+03
2.731675e+03,2.957827e+03
2.734568e+03,2.939084e+03
2.737460e+03,2.917095e+03
2.740353e+03,2.925274e+03
2.743246e+03,2.928334e+03
2.746138e+03,2.945768e+03
2.749031e+03,2.916051e+03
2.751924e+03,2.901796e+03
2.754817e+03,2.856964e+03
2.757709e+03,2.899007e+03
2.760602e+03,2.882575e+03
2.763495e+03,2.881771e+03
2.766387e+03,2.887009e+03
2.769280e+03,2.881812e+03
2.772173e+03,2.870641e+03
2.775065e+03,2.855924e+03
2.777958e+03,2.833477e+03
2.780851e+03,2.837920e+03
2.783744e+03,2.855086e+03
2.786636e+03,2.821312e+03
2.789529e+03,2.821454e+03
2.792422e+03,2.807695e+03
2.795314e+03,2.777575e+03
2.798207e+03,2.795852e+03
2.801100e+03,2.799692e+03
2.803992e+03,2.808011e+03
2.806885e+03,2.827800e+03
2.809778e+03,2.744219e+03
2.812671e+03,2.737745e+03
2.815563e+03,2.764171e+03
2.818456e+03,2.753212e+03
2.821349e+03,2.741718e+03
2.824241e+03,2.778020e+03
2.827134e+03,2.748709e+03
2.830027e+03,2.779232e+03
2.832919e+03,2.733681e+03
2.835812e+03,2.731545e+03
2.838705e+03,2.740304e+03
2.841598e+03,2.742106e+03
2.844490e+03,2.721705e+03
2.847383e+03,2.729187e+03
2.850276e+03,2.754836e+03
2.853168e+03,2.725346e+03
2.856061e+03,2.677183e+03
2.858954e+03,2.701551e+03
2.861846e+03,2.650509e+03
2.864739e+03,2.692110e+03
2.867632e+03,2.669526e+03
2.870525e+03,2.663933e+03
2.873417e+03,2.681104e+03
2.876310e+03,2.668513e+03
2.879203e+03,2.650862e+03
2.882095e+03,2.709069e+03
2.884988e+03,2.693492e+03
2.887881e+03,2.652323e+03
2.890773e+03,2.645164e+03
2.893666e+03,2.643363e+03
2.896559e+03,2.633617e+03
2.899452e+03,2.647097e+03
2.902344e+03,2.620729e+03
2.905237e+03,2.619753e+03
2.908130e+03,2.603711e+03
2.911022e+03,2.611504e+03
2.913915e+03,2.605542e+03
2.916808e+03,2.616969e+03
2.919700e+03,2.581877e+03
2.922593e+03,2.586524e+03
2.925486e+03,2.610473e+03
2.928379e+03,2.551563e+03
2.931271e+03,2.577065e+03
2.934164e+03,2.543447e+03
2.937057e+03,2.510031e+03
2.939949e+03,2.538677e+03
2.942842e+03,2.496547e+03
2.945735e+03,2.540946e+03
2.948627e+03,2.543259e+03
2.951520e+03,2.552985e+03
2.954413e+03,2.528993e+03
2.957306e+03,2.587398e+03
2.960198e+03,2.507801e+03
2.963091e+03,2.514458e+03
2.965984e+03,2.515502e+03
2.968876e+03,2.539253e+03
2.971769e+03,2.515095e+03
2.974662e+03,2.489871e+03
2.977554e+03,2.479164e+03
2.980447e+03,2.477505e+03
2.983340e+03,2.455882e+03
2.986233e+03,2.512807e+03
2.989125e+03,2.446283e+03
2.992018e+03,2.446957e+03
2.994911e+03,2.484798e+03
2.997803e+03,2.441696e+03
3.000696e+03,2.485538e+03
3.003589e+03,2.420717e+03
3.006481e+03,2.472133e+03
3.009374e+03,2.465291e+03
3.012267e+03,2.415442e+03
3.015160e+03,2.455538e+03
3.018052e+03,2.407127e+03
3.020945e+03,2.424590e+03
3.023838e+03,2.389144e+03
3.026730e+03,2.421449e+03
3.029623e+03,2.397166e+03
3.032516e+03,2.360691e+03
3.035408e+03,2.367129e+03
3.038301e+03,2.393766e+03
3.041194e+03,2.404150e+03
3.044087e+03,2.338819e+03
3.046979e+03,2.443125e+03
3.049872e+03,2.373077e+03
3.052765e+03,2.357429e+03
3.055657e+03,2.413828e+03
3.058550e+03,2.392051e+03
3.061443e+03,2.339989e+03
3.064335e+03,2.368712e+03
3.067228e+03,2.401750e+03
3.070121e+03,2.370796e+03
3.073014e+03,2.342821e+03
3.075906e+03,2.363454e+03
3.078799e+03,2.353090e+03
3.081692e+03,2.355865e+03
3.084584e+03,2.363890e+03
3.087477e+03,2.322660e+03
3.090370e+03,2.318030e+03
3.093262e+03,2.321054e+03
3.096155e+03,2.301249e+03
3.099048e+03,2.287847e+03
3.101941e+03,2.351321e+03
3.104833e+03,2.329668e+03
3.107726e+03,2.304896e+03
3.110619e+03,2.293923e+03
3.113511e+03,2.315824e+03
3.116404e+03,2.292570e+03
3.119297e+03,2.372182e+03
3.122189e+03,2.353937e+03
3.125082e+03,2.327170e+03
3.127975e+03,2.365517e+03
3.130868e+03,2.293573e+03
3.133760e+03,2.289777e+03
3.136653e+03,2.290505e+03
3.139546e+03,2.295474e+03
3.142438e+03,2.339427e+03
3.145331e+03,2.243685e+03
3.148224e+03,2.342181e+03
3.151116e+03,2.288978e+03
3.154009e+03,2.333989e+03
3.156902e+03,2.283946e+03
3.159795e+03,2.265534e+03
3.162687e+03,2.269092e+03
3.165580e+03,2.341281e+03
3.168473e+03,2.272902e+03
3.171365e+03,2.310306e+03
3.174258e+03,2.297757e+03
3.177151e+03,2.288490e+03
3.180043e+03,2.326000e+03
3.182936e+03,2.286292e+03
3.185829e+03,2.274955e+03
3.188722e+03,2.253738e+03
3.191614e+03,2.351520e+03
3.194507e+03,2.314223e+03
3.197400e+03,2.288303e+03
3.200292e+03,2.316019e+03
3.203185e+03,0.000000e+00
3.206078e+03,0.000000e+00
3.208970e+03,0.000000e+00
3.211863e+03,0.000000e+00
3.214756e+03,0.000000e+00
3.217649e+03,0.000000e+00
3.220541e+03,0.000000e+00
3.223434e+03,0.000000e+00
3.226327e+03,0.000000e+00
3.229219e+03,0.000000e+00
3.232112e+03,0.000000e+00
3.235005e+03,0.000000e+00
3.237897e+03,0.000000e+00
3.240790e+03,0.000000e+00
3.243683e+03,0.000000e+00
3.246576e+03,0.000000e+00
3.249468e+03,0.000000e+00
3.252361e+03,0.000000e+00
3.255254e+03,0.000000e+00
3.258146e+03,0.000000e+00
3.261039e+03,0.000000e+00
3.263932e+03,0.000000e+00
3.266824e+03,0.000000e+00
3.269717e+03,0.000000e+00
3.272610e+03,0.000000e+00
3.275503e+03,0.000000e+00
3.278395e+03,0.000000e+00
3.281288e+03,0.000000e+00
3.284181e+03,0.000000e+00
3.287073e+03,0.000000e+00
3.289966e+03,0.000000e+00
3.292859e+03,0.000000e+00
3.295751e+03,0.000000e+00
3.298644e+03,0.000000e+00
3.301537e+03,0.000000e+00
3.304430e+03,0.000000e+00
3.307322e+03,0.000000e+00
3.310215e+03,0.000000e+00
3.313108e+03,0.000000e+00
3.316000e+03,0.000000e+00
3.318893e+03,0.000000e+00
3.321786e+03,0.000000e+00
3.324678e+03,0.000000e+00
3.327571e+03,0.000000e+00
3.330464e+03,0.000000e+00
3.333357e+03,0.000000e+00
3.336249e+03,0.000000e+00
3.339142e+03,0.000000e+00
3.342035e+03,0.000000e+00
3.344927e+03,0.000000e+00
3.347820e+03,0.000000e+00
3.350713e+03,0.000000e+00
3.353605e+03,0.000000e+00
3.356498e+03,0.000000e+00
3.359391e+03,0.000000e+00
3.362284e+03,0.000000e+00
3.365176e+03,0.000000e+00
3.368069e+03,0.000000e+00
3.370962e+03,0.000000e+00
3.373854e+03,0.000000e+00
3.376747e+03,0.000000e+00
3.379640e+03,0.000000e+00
3.382532e+03,0.000000e+00
3.385425e+03,0.000000e+00
3.388318e+03,0.000000e+00
3.391211e+03,0.000000e+00
3.394103e+03,0.000000e+00
3.396996e+03,0.000000e+00
3.399889e+03,0.000000e+00
3.402781e+03,0.000000e+00
3.405674e+03,0.000000e+00
3.408567e+03,0.000000e+00
3.411459e+03,0.000000e+00
3.414352e+03,0.000000e+00
3.417245e+03,0.000000e+00
3.420138e+03,0.000000e+00
3.423030e+03,0.000000e+00
3.425923e+03,0.000000e+00
3.428816e+03,0.000000e+00
3.431708e+03,0.000000e+00
3.434601e+03,0.000000e+00
3.437494e+03,0.000000e+00
3.440386e+03,0.000000e+00
3.443279e+03,0.000000e+00
3.446172e+03,0.000000e+00
3.449065e+03,0.000000e+00
3.451957e+03,0.000000e+00
3.454850e+03,0.000000e+00
3.457743e+03,0.000000e+00
3.460635e+03,0.000000e+00
3.463528e+03,0.000000e+00
3.466421e+03,0.000000e+00
3.469313e+03,0.000000e+00
3.472206e+03,0.000000e+00
3.475099e+03,0.000000e+00
3.477992e+03,0.000000e+00
3.480884e+03,0.000000e+00
3.483777e+03,0.000000e+00
3.486670e+03,0.000000e+00
3.489563e+03,0.000000e+00
3.492455e+03,0.000000e+00
3.495348e+03,0.000000e+00
3.498240e+03,0.000000e+00
3.500169e+03,0.000000e+00