File: RAMAN_data/20012023_r3/black fibre16.CSV
9.931763e+01,0.000000e+00
1.022103e+02,0.000000e+00
1.051030e+02,0.000000e+00
1.079957e+02,0.000000e+00
1.108884e+02,0.000000e+00
1.137811e+02,0.000000e+00
1.166738e+02,0.000000e+00
1.195665e+02,0.000000e+00
1.224592e+02,0.000000e+00
1.253519e+02,0.000000e+00
1.282446e+02,0.000000e+00
1.311373e+02,0.000000e+00
1.340300e+02,0.000000e+00
1.369227e+02,0.000000e+00
1.398154e+02,0.000000e+00
1.427081e+02,0.000000e+00
1.456008e+02,0.000000e+00
1.484935e+02,0.000000e+00
1.513862e+02,0.000000e+00
1.542789e+02,0.000000e+00
1.571716e+02,0.000000e+00
1.600643e+02,0.000000e+00
1.629570e+02,0.000000e+00
1.658497e+02,0.000000e+00
1.687424e+02,0.000000e+00
1.716351e+02,0.000000e+00
1.745278e+02,0.000000e+00
1.774205e+02,0.000000e+00
1.803132e+02,0.000000e+00
1.832059e+02,0.000000e+00
1.860986e+02,0.000000e+00
1.889913e+02,0.000000e+00
1.918840e+02,0.000000e+00
1.947767e+02,0.000000e+00
1.976694e+02,0.000000e+00
2.005621e+02,3.072007e+03
2.034548e+02,3.074454e+03
2.063475e+02,3.073764e+03
2.092402e+02,3.076890e+03
2.121329e+02,3.083424e+03
2.150256e+02,3.084054e+03
2.179183e+02,3.084840e+03
2.208110e+02,3.090354e+03
2.237037e+02,3.077290e+03
2.265964e+02,3.088017e+03
2.294892e+02,3.089133e+03
2.323819e+02,3.095235e+03
2.352746e+02,3.096895e+03
2.381673e+02,3.082926e+03
2.410600e+02,3.067957e+03
2.439527e+02,3.099412e+03
2.468454e+02,3.091435e+03
2.497381e+02,3.087066e+03
2.526308e+02,3.115169e+03
2.555235e+02,3.098991e+03
2.584161e+02,3.092289e+03
2.613088e+02,3.098377e+03
2.642015e+02,3.110872e+03
2.670942e+02,3.106918e+03
2.699869e+02,3.105386e+03
2.728796e+02,3.116425e+03
2.757723e+02,3.102727e+03
2.786650e+02,3.123738e+03
2.815577e+02,3.128876e+03
2.844504e+02,3.130087e+03
2.873431e+02,3.131868e+03
2.902358e+02,3.116453e+03
2.931285e+02,3.112341e+03
2.960212e+02,3.116387e+03
2.989139e+02,3.123583e+03
3.018066e+02,3.112119e+03
3.046993e+02,3.124117e+03
3.075920e+02,3.099611e+03
3.104847e+02,3.121056e+03
3.133774e+02,3.109478e+03
3.162701e+02,3.128407e+03
3.191628e+02,3.112166e+03
3.220555e+02,3.103073e+03
3.249482e+02,3.110432e+03
3.278409e+02,3.126598e+03
3.307336e+02,3.115121e+03
3.336263e+02,3.111619e+03
3.365190e+02,3.115517e+03
3.394117e+02,3.111150e+03
3.423044e+02,3.118329e+03
3.451971e+02,3.123811e+03
3.480898e+02,3.107987e+03
3.509825e+02,3.111311e+03
3.538752e+02,3.115095e+03
3.567680e+02,3.097156e+03
3.596607e+02,3.104014e+03
3.625534e+02,3.100723e+03
3.654461e+02,3.088886e+03
3.683388e+02,3.096827e+03
3.712315e+02,3.107374e+03
3.741242e+02,3.103458e+03
3.770169e+02,3.104917e+03
3.799096e+02,3.109611e+03
3.828023e+02,3.105112e+03
3.856950e+02,3.095745e+03
3.885877e+02,3.094301e+03
3.914804e+02,3.098968e+03
3.943731e+02,3.084362e+03
3.972658e+02,3.065161e+03
4.001585e+02,3.080742e+03
4.030512e+02,3.069464e+03
4.059439e+02,3.070265e+03
4.088366e+02,3.068356e+03
4.117293e+02,3.063906e+03
4.146220e+02,3.074490e+03
4.175147e+02,3.084101e+03
4.204074e+02,3.074885e+03
4.233001e+02,3.072936e+03
4.261928e+02,3.070741e+03
4.290855e+02,3.069466e+03
4.319782e+02,3.068848e+03
4.348709e+02,3.066551e+03
4.377636e+02,3.070592e+03
4.406563e+02,3.059890e+03
4.435490e+02,3.052602e+03
4.464417e+02,3.027521e+03
4.493344e+02,3.049838e+03
4.522271e+02,3.049613e+03
4.551198e+02,3.056823e+03
4.580125e+02,3.034466e+03
4.609052e+02,3.020905e+03
4.637979e+02,3.015503e+03
4.666906e+02,3.033853e+03
4.695833e+02,3.017923e+03
4.724760e+02,2.997701e+03
4.753687e+02,3.020370e+03
4.782614e+02,3.011137e+03
4.811541e+02,2.990863e+03
4.840468e+02,2.986439e+03
4.869395e+02,3.004262e+03
4.898322e+02,2.997974e+03
4.927249e+02,2.976566e+03
4.956176e+02,3.000788e+03
4.985103e+02,2.997355e+03
5.014030e+02,2.977575e+03
5.042957e+02,2.974941e+03
5.071884e+02,2.972783e+03
5.100811e+02,2.968581e+03
5.129738e+02,2.971932e+03
5.158665e+02,2.984099e+03
5.187592e+02,2.955344e+03
5.216519e+02,2.962543e+03
5.245446e+02,2.973571e+03
5.274373e+02,2.965183e+03
5.303300e+02,2.956575e+03
5.332227e+02,2.944065e+03
5.361154e+02,2.944763e+03
5.390081e+02,2.928858e+03
5.419008e+02,2.952065e+03
5.447935e+02,2.945891e+03
5.476862e+02,2.932792e+03
5.505789e+02,2.918704e+03
5.534716e+02,2.912384e+03
5.563643e+02,2.901482e+03
5.592570e+02,2.916238e+03
5.621497e+02,2.917565e+03
5.650424e+02,2.914723e+03
5.679351e+02,2.904532e+03
5.708278e+02,2.909807e+03
5.737205e+02,2.900071e+03
5.766132e+02,2.906556e+03
5.795059e+02,2.892927e+03
5.823986e+02,2.903107e+03
5.852913e+02,2.891645e+03
5.881840e+02,2.893847e+03
5.910767e+02,2.884159e+03
5.939694e+02,2.868251e+03
5.968621e+02,2.891729e+03
5.997548e+02,2.881396e+03
6.026475e+02,2.864264e+03
6.055402e+02,2.861389e+03
6.084329e+02,2.874762e+03
6.113256e+02,2.852088e+03
6.142183e+02,2.844759e+03
6.171110e+02,2.830680e+03
6.200037e+02,2.833836e+03
6.228964e+02,2.846087e+03
6.257891e+02,2.839142e+03
6.286818e+02,2.846793e+03
6.315745e+02,2.833610e+03
6.344672e+02,2.827667e+03
6.373599e+02,2.802157e+03
6.402526e+02,2.824257e+03
6.431453e+02,2.819302e+03
6.460380e+02,2.798851e+03
6.489307e+02,2.798640e+03
6.518234e+02,2.795713e+03
6.547161e+02,2.801275e+03
6.576088e+02,2.817916e+03
6.605015e+02,2.788423e+03
6.633942e+02,2.808837e+03
6.662869e+02,2.789171e+03
6.691796e+02,2.787793e+03
6.720723e+02,2.780922e+03
6.749650e+02,2.779220e+03
6.778577e+02,2.771617e+03
6.807504e+02,2.780786e+03
6.836431e+02,2.780468e+03
6.865358e+02,2.764536e+03
6.894285e+02,2.760723e+03
6.923212e+02,2.755625e+03
6.952139e+02,2.742186e+03
6.981066e+02,2.741350e+03
7.009993e+02,2.740215e+03
7.038920e+02,2.737224e+03
7.067847e+02,2.731224e+03
7.096774e+02,2.705436e+03
7.125701e+02,2.718964e+03
7.154628e+02,2.713250e+03
7.183555e+02,2.703287e+03
7.212482e+02,2.706612e+03
7.241409e+02,2.706489e+03
7.270336e+02,2.709517e+03
7.299263e+02,2.699104e+03
7.328190e+02,2.699100e+03
7.357117e+02,2.706199e+03
7.386044e+02,2.687215e+03
7.414971e+02,2.689894e+03
7.443898e+02,2.684051e+03
7.472825e+02,2.661679e+03
7.501752e+02,2.675957e+03
7.530679e+02,2.675844e+03
7.559606e+02,2.659391e+03
7.588533e+02,2.646398e+03
7.617460e+02,2.655190e+03
7.646387e+02,2.645086e+03
7.675314e+02,2.645381e+03
7.704241e+02,2.633497e+03
7.733168e+02,2.618838e+03
7.762095e+02,2.613357e+03
7.791022e+02,2.622758e+03
7.819949e+02,2.597537e+03
7.848876e+02,2.596935e+03
7.877803e+02,2.612310e+03
7.906730e+02,2.604363e+03
7.935657e+02,2.597707e+03
7.964584e+02,2.593051e+03
7.993511e+02,2.595977e+03
8.022438e+02,2.586281e+03
8.051365e+02,2.586435e+03
8.080292e+02,2.572341e+03
8.109219e+02,2.583929e+03
8.138146e+02,2.573873e+03
8.167073e+02,2.561868e+03
8.196000e+02,2.566529e+03
8.224927e+02,2.553182e+03
8.253854e+02,2.556649e+03
8.282781e+02,2.545028e+03
8.311708e+02,2.556672e+03
8.340635e+02,2.536346e+03
8.369562e+02,2.543293e+03
8.398489e+02,2.533303e+03
8.427416e+02,2.533176e+03
8.456343e+02,2.518817e+03
8.485270e+02,2.517263e+03
8.514197e+02,2.514509e+03
8.543124e+02,2.516191e+03
8.572051e+02,2.521148e+03
8.600978e+02,2.508842e+03
8.629905e+02,2.504565e+03
8.658832e+02,2.496973e+03
8.687759e+02,2.494883e+03
8.716686e+02,2.506566e+03
8.745613e+02,2.493582e+03
8.774540e+02,2.482777e+03
8.803467e+02,2.480496e+03
8.832394e+02,2.476512e+03
8.861321e+02,2.489910e+03
8.890248e+02,2.477149e+03
8.919175e+02,2.460313e+03
8.948102e+02,2.458747e+03
8.977029e+02,2.452669e+03
9.005956e+02,2.442183e+03
9.034883e+02,2.447123e+03
9.063810e+02,2.458802e+03
9.092737e+02,2.427243e+03
9.121664e+02,2.432276e+03
9.150591e+02,2.423596e+03
9.179518e+02,2.436182e+03
9.208445e+02,2.427255e+03
9.237372e+02,2.414683e+03
9.266299e+02,2.405139e+03
9.295226e+02,2.401874e+03
9.324153e+02,2.405835e+03
9.353080e+02,2.401536e+03
9.382007e+02,2.388659e+03
9.410934e+02,2.387441e+03
9.439861e+02,2.388178e+03
9.468788e+02,2.373853e+03
9.497715e+02,2.375179e+03
9.526642e+02,2.364960e+03
9.555569e+02,2.360867e+03
9.584496e+02,2.350607e+03
9.613423e+02,2.352073e+03
9.642350e+02,2.360539e+03
9.671277e+02,2.352054e+03
9.700204e+02,2.338993e+03
9.729131e+02,2.328009e+03
9.758058e+02,2.340586e+03
9.786985e+02,2.337485e+03
9.815912e+02,2.328151e+03
9.844839e+02,2.308876e+03
9.873766e+02,2.320077e+03
9.902693e+02,2.315653e+03
9.931620e+02,2.324104e+03
9.960547e+02,2.318167e+03
9.989474e+02,2.322706e+03
1.001840e+03,2.295629e+03
1.004733e+03,2.287313e+03
1.007626e+03,2.287139e+03
1.010518e+03,2.287817e+03
1.013411e+03,2.287388e+03
1.016304e+03,2.275669e+03
1.019196e+03,2.284268e+03
1.022089e+03,2.279006e+03
1.024982e+03,2.284024e+03
1.027875e+03,2.280240e+03
1.030767e+03,2.269750e+03
1.033660e+03,2.276031e+03
1.036552e+03,2.261214e+03
1.039445e+03,2.270283e+03
1.042338e+03,2.261851e+03
1.045231e+03,2.247051e+03
1.048123e+03,2.248465e+03
1.051016e+03,2.255153e+03
1.053909e+03,2.251364e+03
1.056802e+03,2.254242e+03
1.059694e+03,2.252251e+03
1.062587e+03,2.241078e+03
1.065479e+03,2.230539e+03
1.068372e+03,2.236977e+03
1.071265e+03,2.261878e+03
1.074158e+03,2.252247e+03
1.077050e+03,2.249363e+03
1.079943e+03,2.242365e+03
1.082836e+03,2.241286e+03
1.085729e+03,2.261217e+03
1.088621e+03,2.268864e+03
1.091514e+03,2.256276e+03
1.094406e+03,2.264727e+03
1.097299e+03,2.251361e+03
1.100192e+03,2.234120e+03
1.103085e+03,2.223081e+03
1.105977e+03,2.212032e+03
1.108870e+03,2.219506e+03
1.111763e+03,2.215991e+03
1.114656e+03,2.206884e+03
1.117548e+03,2.199147e+03
1.120441e+03,2.201954e+03
1.123334e+03,2.200934e+03
1.126226e+03,2.194397e+03
1.129119e+03,2.192872e+03
1.132012e+03,2.194470e+03
1.134904e+03,2.177715e+03
1.137797e+03,2.174849e+03
1.140690e+03,2.180333e+03
1.143583e+03,2.173729e+03
1.146475e+03,2.162542e+03
1.149368e+03,2.185256e+03
1.152261e+03,2.179163e+03
1.155153e+03,2.177503e+03
1.158046e+03,2.175909e+03
1.160939e+03,2.180605e+03
1.163831e+03,2.180662e+03
1.166724e+03,2.175255e+03
1.169617e+03,2.152291e+03
1.172510e+03,2.146172e+03
1.175402e+03,2.139296e+03
1.178295e+03,2.128624e+03
1.181188e+03,2.103162e+03
1.184080e+03,2.116379e+03
1.186973e+03,2.105658e+03
1.189866e+03,2.110819e+03
1.192758e+03,2.092941e+03
1.195651e+03,2.108499e+03
1.198544e+03,2.101817e+03
1.201437e+03,2.091590e+03
1.204329e+03,2.077551e+03
1.207222e+03,2.079163e+03
1.210115e+03,2.079559e+03
1.213007e+03,2.076171e+03
1.215900e+03,2.080781e+03
1.218793e+03,2.061982e+03
1.221685e+03,2.060083e+03
1.224578e+03,2.059076e+03
1.227471e+03,2.055100e+03
1.230364e+03,2.045548e+03
1.233256e+03,2.041548e+03
1.236149e+03,2.045917e+03
1.239042e+03,2.039044e+03
1.241934e+03,2.050835e+03
1.244827e+03,2.040706e+03
1.247720e+03,2.048703e+03
1.250612e+03,2.027051e+03
1.253505e+03,2.028124e+03
1.256398e+03,2.018024e+03
1.259291e+03,2.021856e+03
1.262183e+03,2.027717e+03
1.265076e+03,2.017386e+03
1.267969e+03,2.022531e+03
1.270861e+03,2.030740e+03
1.273754e+03,2.039469e+03
1.276647e+03,2.019930e+03
1.279539e+03,2.039477e+03
1.282432e+03,2.026639e+03
1.285325e+03,2.035640e+03
1.288218e+03,2.035047e+03
1.291110e+03,2.033696e+03
1.294003e+03,2.025585e+03
1.296896e+03,2.016362e+03
1.299788e+03,2.026358e+03
1.302681e+03,2.017656e+03
1.305574e+03,2.026243e+03
1.308466e+03,2.027234e+03
1.311359e+03,2.022639e+03
1.314252e+03,2.030607e+03
1.317145e+03,2.029369e+03
1.320037e+03,2.046056e+03
1.322930e+03,2.032569e+03
1.325823e+03,2.020799e+03
1.328715e+03,2.020672e+03
1.331608e+03,2.015100e+03
1.334501e+03,2.013955e+03
1.337393e+03,2.025625e+03
1.340286e+03,1.998283e+03
1.343179e+03,1.991569e+03
1.346072e+03,1.983061e+03
1.348964e+03,1.989315e+03
1.351857e+03,1.974300e+03
1.354750e+03,1.971111e+03
1.357642e+03,1.953768e+03
1.360535e+03,1.954803e+03
1.363428e+03,1.953741e+03
1.366320e+03,1.958142e+03
1.369213e+03,1.948600e+03
1.372106e+03,1.943073e+03
1.374999e+03,1.924670e+03
1.377891e+03,1.930483e+03
1.380784e+03,1.928582e+03
1.383677e+03,1.939810e+03
1.386569e+03,1.913194e+03
1.389462e+03,1.923012e+03
1.392355e+03,1.907543e+03
1.395247e+03,1.897470e+03
1.398140e+03,1.904624e+03
1.401033e+03,1.908789e+03
1.403926e+03,1.902445e+03
1.406818e+03,1.891303e+03
1.409711e+03,1.886255e+03
1.412604e+03,1.881785e+03
1.415496e+03,1.877153e+03
1.418389e+03,1.886805e+03
1.421282e+03,1.882400e+03
1.424174e+03,1.875756e+03
1.427067e+03,1.866486e+03
1.429960e+03,1.864767e+03
1.432853e+03,1.865922e+03
1.435745e+03,1.860831e+03
1.438638e+03,1.857553e+03
1.441531e+03,1.856546e+03
1.444423e+03,1.851275e+03
1.447316e+03,1.838188e+03
1.450209e+03,1.849235e+03
1.453101e+03,1.839506e+03
1.455994e+03,1.845154e+03
1.458887e+03,1.828416e+03
1.461780e+03,1.838172e+03
1.464672e+03,1.817392e+03
1.467565e+03,1.810308e+03
1.470458e+03,1.811845e+03
1.473350e+03,1.814492e+03
1.476243e+03,1.811748e+03
1.479136e+03,1.816022e+03
1.482028e+03,1.810678e+03
1.484921e+03,1.795888e+03
1.487814e+03,1.795467e+03
1.490707e+03,1.796055e+03
1.493599e+03,1.793132e+03
1.496492e+03,1.789149e+03
1.499385e+03,1.781085e+03
1.502277e+03,1.785944e+03
1.505170e+03,1.779305e+03
1.508063e+03,1.780023e+03
1.510955e+03,1.773805e+03
1.513848e+03,1.752625e+03
1.516741e+03,1.773591e+03
1.519634e+03,1.762719e+03
1.522526e+03,1.759458e+03
1.525419e+03,1.769997e+03
1.528312e+03,1.763286e+03
1.531204e+03,1.743324e+03
1.534097e+03,1.757065e+03
1.536990e+03,1.757154e+03
1.539882e+03,1.748145e+03
1.542775e+03,1.749921e+03
1.545668e+03,1.747347e+03
1.548561e+03,1.732677e+03
1.551453e+03,1.743721e+03
1.554346e+03,1.751784e+03
1.557239e+03,1.728815e+03
1.560131e+03,1.737568e+03
1.563024e+03,1.741848e+03
1.565917e+03,1.743678e+03
1.568809e+03,1.723078e+03
1.571702e+03,1.737537e+03
1.574595e+03,1.737393e+03
1.577488e+03,1.743828e+03
1.580380e+03,1.722478e+03
1.583273e+03,1.725388e+03
1.586166e+03,1.714285e+03
1.589058e+03,1.705896e+03
1.591951e+03,1.704897e+03
1.594844e+03,1.704963e+03
1.597736e+03,1.703152e+03
1.600629e+03,1.711338e+03
1.603522e+03,1.705140e+03
1.606415e+03,1.712047e+03
1.609307e+03,1.730612e+03
1.612200e+03,1.739109e+03
1.615093e+03,1.731308e+03
1.617985e+03,1.716192e+03
1.620878e+03,1.687546e+03
1.623771e+03,1.678599e+03
1.626663e+03,1.667951e+03
1.629556e+03,1.647614e+03
1.632449e+03,1.652614e+03
1.635342e+03,1.646628e+03
1.638234e+03,1.643152e+03
1.641127e+03,1.646583e+03
1.644020e+03,1.640810e+03
1.646912e+03,1.629535e+03
1.649805e+03,1.630536e+03
1.652698e+03,1.622635e+03
1.655590e+03,1.614085e+03
1.658483e+03,1.597101e+03
1.661376e+03,1.617365e+03
1.664269e+03,1.623043e+03
1.667161e+03,1.609825e+03
1.670054e+03,1.610412e+03
1.672947e+03,1.591175e+03
1.675839e+03,1.600977e+03
1.678732e+03,1.596979e+03
1.681625e+03,1.591110e+03
1.684517e+03,1.582841e+03
1.687410e+03,1.582900e+03
1.690303e+03,1.584455e+03
1.693196e+03,1.587258e+03
1.696088e+03,1.582104e+03
1.698981e+03,1.577408e+03
1.701874e+03,1.568960e+03
1.704766e+03,1.570488e+03
1.707659e+03,1.580982e+03
1.710552e+03,1.564712e+03
1.713444e+03,1.551580e+03
1.716337e+03,1.576738e+03
1.719230e+03,1.569069e+03
1.722123e+03,1.570667e+03
1.725015e+03,1.566530e+03
1.727908e+03,1.557518e+03
1.730801e+03,1.565640e+03
1.733693e+03,1.555344e+03
1.736586e+03,1.542914e+03
1.739479e+03,1.533084e+03
1.742371e+03,1.527139e+03
1.745264e+03,1.528560e+03
1.748157e+03,1.503682e+03
1.751050e+03,1.504179e+03
1.753942e+03,1.502725e+03
1.756835e+03,1.521894e+03
1.759728e+03,1.508936e+03
1.762620e+03,1.486629e+03
1.765513e+03,1.501982e+03
1.768406e+03,1.492703e+03
1.771298e+03,1.491172e+03
1.774191e+03,1.482046e+03
1.777084e+03,1.475387e+03
1.779977e+03,1.477098e+03
1.782869e+03,1.468996e+03
1.785762e+03,1.477153e+03
1.788655e+03,1.475583e+03
1.791547e+03,1.463513e+03
1.794440e+03,1.465913e+03
1.797333e+03,1.458271e+03
1.800225e+03,1.453170e+03
1.803118e+03,1.449793e+03
1.806011e+03,1.437607e+03
1.808904e+03,1.437096e+03
1.811796e+03,1.446733e+03
1.814689e+03,1.439989e+03
1.817582e+03,1.440939e+03
1.820474e+03,1.430374e+03
1.823367e+03,1.426204e+03
1.826260e+03,1.435939e+03
1.829152e+03,1.415807e+03
1.832045e+03,1.424616e+03
1.834938e+03,1.423303e+03
1.837831e+03,1.410227e+03
1.840723e+03,1.393016e+03
1.843616e+03,1.410398e+03
1.846509e+03,1.395000e+03
1.849401e+03,1.385829e+03
1.852294e+03,1.396044e+03
1.855187e+03,1.387889e+03
1.858079e+03,1.386160e+03
1.860972e+03,1.386369e+03
1.863865e+03,1.386257e+03
1.866758e+03,1.374825e+03
1.869650e+03,1.363198e+03
1.872543e+03,1.363324e+03
1.875436e+03,1.365299e+03
1.878328e+03,1.371562e+03
1.881221e+03,1.348059e+03
1.884114e+03,1.346658e+03
1.887006e+03,1.355317e+03
1.889899e+03,1.355244e+03
1.892792e+03,1.362805e+03
1.895685e+03,1.346673e+03
1.898577e+03,1.341782e+03
1.901470e+03,1.341479e+03
1.904363e+03,1.344929e+03
1.907255e+03,1.331434e+03
1.910148e+03,1.322099e+03
1.913041e+03,1.336729e+03
1.915933e+03,1.319188e+03
1.918826e+03,1.317963e+03
1.921719e+03,1.316552e+03
1.924612e+03,1.306265e+03
1.927504e+03,1.298265e+03
1.930397e+03,1.299830e+03
1.933290e+03,1.300372e+03
1.936182e+03,1.300481e+03
1.939075e+03,1.276569e+03
1.941968e+03,1.303028e+03
1.944860e+03,1.282128e+03
1.947753e+03,1.290610e+03
1.950646e+03,1.273112e+03
1.953539e+03,1.276195e+03
1.956431e+03,1.260958e+03
1.959324e+03,1.257690e+03
1.962217e+03,1.259451e+03
1.965109e+03,1.247664e+03
1.968002e+03,1.257308e+03
1.970895e+03,1.257018e+03
1.973787e+03,1.254477e+03
1.976680e+03,1.253387e+03
1.979573e+03,1.246364e+03
1.982466e+03,1.245743e+03
1.985358e+03,1.254397e+03
1.988251e+03,1.230755e+03
1.991144e+03,1.224141e+03
1.994036e+03,1.226219e+03
1.996929e+03,1.224828e+03
1.999822e+03,1.222860e+03
2.002714e+03,1.220816e+03
2.005607e+03,1.219760e+03
2.008500e+03,1.230361e+03
2.011393e+03,1.205816e+03
2.014285e+03,1.199964e+03
2.017178e+03,1.212419e+03
2.020071e+03,1.197690e+03
2.022963e+03,1.186528e+03
2.025856e+03,1.192914e+03
2.028749e+03,1.200290e+03
2.031641e+03,1.184206e+03
2.034534e+03,1.189113e+03
2.037427e+03,1.179554e+03
2.040320e+03,1.184869e+03
2.043212e+03,1.175734e+03
2.046105e+03,1.172065e+03
2.048998e+03,1.160662e+03
2.051890e+03,1.157136e+03
2.054783e+03,1.164102e+03
2.057676e+03,1.142292e+03
2.060568e+03,1.146196e+03
2.063461e+03,1.143410e+03
2.066354e+03,1.140611e+03
2.069247e+03,1.140616e+03
2.072139e+03,1.138107e+03
2.075032e+03,1.123295e+03
2.077925e+03,1.136364e+03
2.080817e+03,1.117477e+03
2.083710e+03,1.135887e+03
2.086603e+03,1.121264e+03
2.089496e+03,1.123406e+03
2.092388e+03,1.108088e+03
2.095281e+03,1.107082e+03
2.098174e+03,1.108841e+03
2.101066e+03,1.099099e+03
2.103959e+03,1.096984e+03
2.106852e+03,1.094708e+03
2.109744e+03,1.093249e+03
2.112637e+03,1.089502e+03
2.115530e+03,1.087211e+03
2.118422e+03,1.079312e+03
2.121315e+03,1.094096e+03
2.124208e+03,1.090384e+03
2.127101e+03,1.091736e+03
2.129993e+03,1.077780e+03
2.132886e+03,1.077487e+03
2.135779e+03,1.060253e+03
2.138671e+03,1.063110e+03
2.141564e+03,1.061167e+03
2.144457e+03,1.059537e+03
2.147350e+03,1.052540e+03
2.150242e+03,1.043613e+03
2.153135e+03,1.056247e+03
2.156028e+03,1.044478e+03
2.158920e+03,1.051994e+03
2.161813e+03,1.037623e+03
2.164706e+03,1.046453e+03
2.167598e+03,1.034217e+03
2.170491e+03,1.028831e+03
2.173384e+03,1.014819e+03
2.176277e+03,1.026419e+03
2.179169e+03,1.020419e+03
2.182062e+03,1.015427e+03
2.184955e+03,1.021121e+03
2.187847e+03,1.018685e+03
2.190740e+03,1.004530e+03
2.193633e+03,1.010342e+03
2.196525e+03,1.000753e+03
2.199418e+03,1.000603e+03
2.202311e+03,9.954464e+02
2.205204e+03,1.000765e+03
2.208096e+03,9.918698e+02
2.210989e+03,9.819335e+02
2.213882e+03,9.851555e+02
2.216774e+03,9.945248e+02
2.219667e+03,9.752576e+02
2.222560e+03,9.751083e+02
2.225452e+03,9.555616e+02
2.228345e+03,9.698314e+02
2.231238e+03,9.630364e+02
2.234131e+03,9.608107e+02
2.237023e+03,9.606514e+02
2.239916e+03,9.510150e+02
2.242809e+03,9.438483e+02
2.245701e+03,9.479780e+02
2.248594e+03,9.564600e+02
2.251487e+03,9.429735e+02
2.254379e+03,9.453059e+02
2.257272e+03,9.393664e+02
2.260165e+03,9.335918e+02
2.263058e+03,9.265863e+02
2.265950e+03,9.231513e+02
2.268843e+03,9.201527e+02
2.271736e+03,9.179158e+02
2.274628e+03,9.164932e+02
2.277521e+03,9.151746e+02
2.280414e+03,9.075496e+02
2.283306e+03,9.077341e+02
2.286199e+03,9.001249e+02
2.289092e+03,9.032233e+02
2.291985e+03,8.960526e+02
2.294877e+03,8.988831e+02
2.297770e+03,9.094870e+02
2.300663e+03,8.946072e+02
2.303555e+03,8.920871e+02
2.306448e+03,8.910458e+02
2.309341e+03,8.786428e+02
2.312233e+03,8.763460e+02
2.315126e+03,8.704828e+02
2.318019e+03,8.831967e+02
2.320912e+03,8.839641e+02
2.323804e+03,8.759703e+02
2.326697e+03,8.664163e+02
2.329590e+03,8.818571e+02
2.332482e+03,8.711938e+02
2.335375e+03,8.568297e+02
2.338268e+03,8.565677e+02
2.341160e+03,8.529274e+02
2.344053e+03,8.631027e+02
2.346946e+03,8.495718e+02
2.349839e+03,8.473522e+02
2.352731e+03,8.497946e+02
2.355624e+03,8.528148e+02
2.358517e+03,8.523826e+02
2.361409e+03,8.491120e+02
2.364302e+03,8.362881e+02
2.367195e+03,8.283871e+02
2.370087e+03,8.283158e+02
2.372980e+03,8.390859e+02
2.375873e+03,8.326130e+02
2.378766e+03,8.278145e+02
2.381658e+03,8.101897e+02
2.384551e+03,8.224485e+02
2.387444e+03,8.326014e+02
2.390336e+03,8.112579e+02
2.393229e+03,8.257005e+02
2.396122e+03,8.086234e+02
2.399014e+03,8.070731e+02
2.401907e+03,8.074773e+02
2.404800e+03,7.978848e+02
2.407693e+03,8.018752e+02
2.410585e+03,8.072942e+02
2.413478e+03,7.904534e+02
2.416371e+03,7.957074e+02
2.419263e+03,7.881576e+02
2.422156e+03,7.834811e+02
2.425049e+03,7.842390e+02
2.427941e+03,7.924139e+02
2.430834e+03,7.840208e+02
2.433727e+03,7.860076e+02
2.436620e+03,7.757871e+02
2.439512e+03,7.687850e+02
2.442405e+03,7.611909e+02
2.445298e+03,7.754802e+02
2.448190e+03,7.660346e+02
2.451083e+03,7.723138e+02
2.453976e+03,7.713984e+02
2.456868e+03,7.570226e+02
2.459761e+03,7.432674e+02
2.462654e+03,7.499404e+02
2.465547e+03,7.582736e+02
2.468439e+03,7.547091e+02
2.471332e+03,7.537991e+02
2.474225e+03,7.536180e+02
2.477117e+03,7.420374e+02
2.480010e+03,7.587036e+02
2.482903e+03,7.414593e+02
2.485795e+03,7.488041e+02
2.488688e+03,7.428691e+02
2.491581e+03,7.448494e+02
2.494474e+03,7.337719e+02
2.497366e+03,7.383636e+02
2.500259e+03,7.408206e+02
2.503152e+03,7.177435e+02
2.506044e+03,7.365652e+02
2.508937e+03,7.244705e+02
2.511830e+03,7.295433e+02
2.514722e+03,7.190270e+02
2.517615e+03,7.281061e+02
2.520508e+03,7.286813e+02
2.523401e+03,7.081491e+02
2.526293e+03,7.238392e+02
2.529186e+03,7.171498e+02
2.532079e+03,7.091729e+02
2.534971e+03,7.183499e+02
2.537864e+03,7.061752e+02
2.540757e+03,6.979057e+02
2.543649e+03,6.979840e+02
2.546542e+03,7.058535e+02
2.549435e+03,6.810762e+02
2.552328e+03,7.057899e+02
2.555220e+03,6.989288e+02
2.558113e+03,6.983166e+02
2.561006e+03,7.066181e+02
2.563898e+03,7.068292e+02
2.566791e+03,6.903054e+02
2.569684e+03,7.018484e+02
2.572576e+03,6.842673e+02
2.575469e+03,6.960660e+02
2.578362e+03,6.881736e+02
2.581255e+03,6.845480e+02
2.584147e+03,6.828476e+02
2.587040e+03,6.728922e+02
2.589933e+03,6.712601e+02
2.592825e+03,6.614442e+02
2.595718e+03,6.758547e+02
2.598611e+03,6.731265e+02
2.601503e+03,6.746405e+02
2.604396e+03,6.721781e+02
2.607289e+03,6.649965e+02
2.610182e+03,6.685178e+02
2.613074e+03,6.580525e+02
2.615967e+03,6.628581e+02
2.618860e+03,6.572762e+02
2.621752e+03,6.689584e+02
2.624645e+03,6.548049e+02
2.627538e+03,6.492972e+02
2.630430e+03,6.557747e+02
2.633323e+03,6.564163e+02
2.636216e+03,6.492196e+02
2.639109e+03,6.505573e+02
2.642001e+03,6.516691e+02
2.644894e+03,6.642409e+02
2.647787e+03,6.447724e+02
2.650679e+03,6.419990e+02
2.653572e+03,6.469428e+02
2.656465e+03,6.517239e+02
2.659357e+03,6.401021e+02
2.662250e+03,6.409030e+02
2.665143e+03,6.436165e+02
2.668036e+03,6.391498e+02
2.670928e+03,6.458903e+02
2.673821e+03,6.274825e+02
2.676714e+03,6.204036e+02
2.679606e+03,6.292289e+02
2.682499e+03,6.391275e+02
2.685392e+03,6.179883e+02
2.688284e+03,6.273826e+02
2.691177e+03,6.363912e+02
2.694070e+03,6.153963e+02
2.696963e+03,6.270536e+02
2.699855e+03,6.294163e+02
2.702748e+03,6.055211e+02
2.705641e+03,6.212573e+02
2.708533e+03,6.267864e+02
2.711426e+03,6.168094e+02
2.714319e+03,6.197224e+02
2.717211e+03,6.101144e+02
2.720104e+03,6.202841e+02
2.722997e+03,6.070179e+02
2.725890e+03,6.089525e+02
2.728782e+03,6.190998e+02
2.731675e+03,6.008059e+02
2.734568e+03,6.062433e+02
2.737460e+03,5.959788e+02
2.740353e+03,6.076776e+02
2.743246e+03,5.933044e+02
2.746138e+03,6.002308e+02
2.749031e+03,5.987380e+02
2.751924e+03,5.911336e+02
2.754817e+03,5.871285e+02
2.757709e+03,5.999635e+02
2.760602e+03,5.858755e+02
2.763495e+03,5.993767e+02
2.766387e+03,5.985955e+02
2.769280e+03,5.840833e+02
2.772173e+03,5.896010e+02
2.775065e+03,5.867512e+02
2.777958e+03,5.870520e+02
2.780851e+03,5.923884e+02
2.783744e+03,5.791836e+02
2.786636e+03,5.716994e+02
2.789529e+03,5.965045e+02
2.792422e+03,5.946036e+02
2.795314e+03,5.760381e+02
2.798207e+03,5.721980e+02
2.801100e+03,5.716190e+02
2.803992e+03,5.757238e+02
2.806885e+03,5.650949e+02
2.809778e+03,5.731025e+02
2.812671e+03,5.647553e+02
2.815563e+03,5.615511e+02
2.818456e+03,5.611129e+02
2.821349e+03,5.784391e+02
2.824241e+03,5.512048e+02
2.827134e+03,5.659120e+02
2.830027e+03,5.426202e+02
2.832919e+03,5.629062e+02
2.835812e+03,5.664117e+02
2.838705e+03,5.782669e+02
2.841598e+03,5.712902e+02
2.844490e+03,5.495947e+02
2.847383e+03,5.468541e+02
2.850276e+03,5.556800e+02
2.853168e+03,5.772346e+02
2.856061e+03,5.735568e+02
2.858954e+03,5.677760e+02
2.861846e+03,5.710604e+02
2.864739e+03,5.898276e+02
2.867632e+03,5.667873e+02
2.870525e+03,5.722602e+02
2.873417e+03,5.828401e+02
2.876310e+03,5.725939e+02
2.879203e+03,5.690131e+02
2.882095e+03,5.702935e+02
2.884988e+03,5.618419e+02
2.887881e+03,5.888673e+02
2.890773e+03,6.039705e+02
2.893666e+03,5.694337e+02
2.896559e+03,5.592264e+02
2.899452e+03,5.947738e+02
2.902344e+03,5.866453e+02
2.905237e+03,5.728015e+02
2.908130e+03,5.580784e+02
2.911022e+03,5.682683e+02
2.913915e+03,5.358401e+02
2.916808e+03,5.583917e+02
2.919700e+03,5.735836e+02
2.922593e+03,5.495505e+02
2.925486e+03,5.474518e+02
2.928379e+03,5.407450e+02
2.931271e+03,5.567762e+02
2.934164e+03,5.522175e+02
2.937057e+03,5.565815e+02
2.939949e+03,5.376956e+02
2.942842e+03,5.352529e+02
2.945735e+03,5.544977e+02
2.948627e+03,5.541050e+02
2.951520e+03,5.592629e+02
2.954413e+03,5.302787e+02
2.957306e+03,5.660740e+02
2.960198e+03,5.656658e+02
2.963091e+03,5.402115e+02
2.965984e+03,5.536223e+02
2.968876e+03,5.358319e+02
2.971769e+03,5.438314e+02
2.974662e+03,5.273881e+02
2.977554e+03,5.352772e+02
2.980447e+03,5.273141e+02
2.983340e+03,5.268687e+02
2.986233e+03,5.222198e+02
2.989125e+03,5.037196e+02
2.992018e+03,5.141091e+02
2.994911e+03,5.235937e+02
2.997803e+03,4.981891e+02
3.000696e+03,5.174045e+02
3.003589e+03,4.914965e+02
3.006481e+03,5.143015e+02
3.009374e+03,5.224910e+02
3.012267e+03,5.121021e+02
3.015160e+03,5.098609e+02
3.018052e+03,5.186388e+02
3.020945e+03,5.013686e+02
3.023838e+03,4.912162e+02
3.026730e+03,4.964024e+02
3.029623e+03,4.918866e+02
3.032516e+03,4.830814e+02
3.035408e+03,4.957032e+02
3.038301e+03,5.007343e+02
3.041194e+03,5.049689e+02
3.044087e+03,4.766983e+02
3.046979e+03,4.839064e+02
3.049872e+03,5.014365e+02
3.052765e+03,4.796890e+02
3.055657e+03,4.864874e+02
3.058550e+03,4.718888e+02
3.061443e+03,5.017197e+02
3.064335e+03,5.141473e+02
3.067228e+03,4.889114e+02
3.070121e+03,5.063479e+02
3.073014e+03,4.968136e+02
3.075906e+03,5.133182e+02
3.078799e+03,4.905874e+02
3.081692e+03,4.954598e+02
3.084584e+03,4.897068e+02
3.087477e+03,4.985471e+02
3.090370e+03,5.057126e+02
3.093262e+03,4.521261e+02
3.096155e+03,5.091050e+02
3.099048e+03,4.701864e+02
3.101941e+03,4.896459e+02
3.104833e+03,4.822971e+02
3.107726e+03,5.050907e+02
3.110619e+03,4.914802e+02
3.113511e+03,4.942332e+02
3.116404e+03,4.790627e+02
3.119297e+03,5.061418e+02
3.122189e+03,4.655466e+02
3.125082e+03,5.039230e+02
3.127975e+03,5.015524e+02
3.130868e+03,4.714625e+02
3.133760e+03,4.846757e+02
3.136653e+03,5.029669e+02
3.139546e+03,4.924494e+02
3.142438e+03,4.829943e+02
3.145331e+03,4.709685e+02
3.148224e+03,4.725475e+02
3.151116e+03,4.959188e+02
3.154009e+03,5.080026e+02
3.156902e+03,4.591698e+02
3.159795e+03,4.539258e+02
3.162687e+03,4.874081e+02
3.165580e+03,4.570439e+02
3.168473e+03,4.788783e+02
3.171365e+03,4.860703e+02
3.174258e+03,5.116369e+02
3.177151e+03,5.056894e+02
3.180043e+03,4.671273e+02
3.182936e+03,5.060799e+02
3.185829e+03,4.648039e+02
3.188722e+03,5.134218e+02
3.191614e+03,5.117355e+02
3.194507e+03,5.049923e+02
3.197400e+03,4.766310e+02
3.200292e+03,4.778272e+02
3.203185e+03,0.000000e+00
3.206078e+03,0.000000e+00
3.208970e+03,0.000000e+00
3.211863e+03,0.000000e+00
3.214756e+03,0.000000e+00
3.217649e+03,0.000000e+00
3.220541e+03,0.000000e+00
3.223434e+03,0.000000e+00
3.226327e+03,0.000000e+00
3.229219e+03,0.000000e+00
3.232112e+03,0.000000e+00
3.235005e+03,0.000000e+00
3.237897e+03,0.000000e+00
3.240790e+03,0.000000e+00
3.243683e+03,0.000000e+00
3.246576e+03,0.000000e+00
3.249468e+03,0.000000e+00
3.252361e+03,0.000000e+00
3.255254e+03,0.000000e+00
3.258146e+03,0.000000e+00
3.261039e+03,0.000000e+00
3.263932e+03,0.000000e+00
3.266824e+03,0.000000e+00
3.269717e+03,0.000000e+00
3.272610e+03,0.000000e+00
3.275503e+03,0.000000e+00
3.278395e+03,0.000000e+00
3.281288e+03,0.000000e+00
3.284181e+03,0.000000e+00
3.287073e+03,0.000000e+00
3.289966e+03,0.000000e+00
3.292859e+03,0.000000e+00
3.295751e+03,0.000000e+00
3.298644e+03,0.000000e+00
3.301537e+03,0.000000e+00
3.304430e+03,0.000000e+00
3.307322e+03,0.000000e+00
3.310215e+03,0.000000e+00
3.313108e+03,0.000000e+00
3.316000e+03,0.000000e+00
3.318893e+03,0.000000e+00
3.321786e+03,0.000000e+00
3.324678e+03,0.000000e+00
3.327571e+03,0.000000e+00
3.330464e+03,0.000000e+00
3.333357e+03,0.000000e+00
3.336249e+03,0.000000e+00
3.339142e+03,0.000000e+00
3.342035e+03,0.000000e+00
3.344927e+03,0.000000e+00
3.347820e+03,0.000000e+00
3.350713e+03,0.000000e+00
3.353605e+03,0.000000e+00
3.356498e+03,0.000000e+00
3.359391e+03,0.000000e+00
3.362284e+03,0.000000e+00
3.365176e+03,0.000000e+00
3.368069e+03,0.000000e+00
3.370962e+03,0.000000e+00
3.373854e+03,0.000000e+00
3.376747e+03,0.000000e+00
3.379640e+03,0.000000e+00
3.382532e+03,0.000000e+00
3.385425e+03,0.000000e+00
3.388318e+03,0.000000e+00
3.391211e+03,0.000000e+00
3.394103e+03,0.000000e+00
3.396996e+03,0.000000e+00
3.399889e+03,0.000000e+00
3.402781e+03,0.000000e+00
3.405674e+03,0.000000e+00
3.408567e+03,0.000000e+00
3.411459e+03,0.000000e+00
3.414352e+03,0.000000e+00
3.417245e+03,0.000000e+00
3.420138e+03,0.000000e+00
3.423030e+03,0.000000e+00
3.425923e+03,0.000000e+00
3.428816e+03,0.000000e+00
3.431708e+03,0.000000e+00
3.434601e+03,0.000000e+00
3.437494e+03,0.000000e+00
3.440386e+03,0.000000e+00
3.443279e+03,0.000000e+00
3.446172e+03,0.000000e+00
3.449065e+03,0.000000e+00
3.451957e+03,0.000000e+00
3.454850e+03,0.000000e+00
3.457743e+03,0.000000e+00
3.460635e+03,0.000000e+00
3.463528e+03,0.000000e+00
3.466421e+03,0.000000e+00
3.469313e+03,0.000000e+00
3.472206e+03,0.000000e+00
3.475099e+03,0.000000e+00
3.477992e+03,0.000000e+00
3.480884e+03,0.000000e+00
3.483777e+03,0.000000e+00
3.486670e+03,0.000000e+00
3.489563e+03,0.000000e+00
3.492455e+03,0.000000e+00
3.495348e+03,0.000000e+00
3.498240e+03,0.000000e+00
3.500169e+03,0.000000e+00