File: RAMAN_data/20012023_r3/black fibre2.CSV
9.931763e+01,0.000000e+00
1.022103e+02,0.000000e+00
1.051030e+02,0.000000e+00
1.079957e+02,0.000000e+00
1.108884e+02,0.000000e+00
1.137811e+02,0.000000e+00
1.166738e+02,0.000000e+00
1.195665e+02,0.000000e+00
1.224592e+02,0.000000e+00
1.253519e+02,0.000000e+00
1.282446e+02,0.000000e+00
1.311373e+02,0.000000e+00
1.340300e+02,0.000000e+00
1.369227e+02,0.000000e+00
1.398154e+02,0.000000e+00
1.427081e+02,0.000000e+00
1.456008e+02,0.000000e+00
1.484935e+02,0.000000e+00
1.513862e+02,0.000000e+00
1.542789e+02,0.000000e+00
1.571716e+02,0.000000e+00
1.600643e+02,0.000000e+00
1.629570e+02,0.000000e+00
1.658497e+02,0.000000e+00
1.687424e+02,0.000000e+00
1.716351e+02,0.000000e+00
1.745278e+02,0.000000e+00
1.774205e+02,0.000000e+00
1.803132e+02,0.000000e+00
1.832059e+02,0.000000e+00
1.860986e+02,0.000000e+00
1.889913e+02,0.000000e+00
1.918840e+02,0.000000e+00
1.947767e+02,0.000000e+00
1.976694e+02,0.000000e+00
2.005621e+02,2.558992e+03
2.034548e+02,2.566622e+03
2.063475e+02,2.567653e+03
2.092402e+02,2.557974e+03
2.121329e+02,2.565875e+03
2.150256e+02,2.565538e+03
2.179183e+02,2.561551e+03
2.208110e+02,2.551570e+03
2.237037e+02,2.569989e+03
2.265964e+02,2.546880e+03
2.294892e+02,2.556390e+03
2.323819e+02,2.562360e+03
2.352746e+02,2.565178e+03
2.381673e+02,2.559513e+03
2.410600e+02,2.547176e+03
2.439527e+02,2.554359e+03
2.468454e+02,2.564997e+03
2.497381e+02,2.560699e+03
2.526308e+02,2.575777e+03
2.555235e+02,2.564593e+03
2.584161e+02,2.543364e+03
2.613088e+02,2.544853e+03
2.642015e+02,2.553327e+03
2.670942e+02,2.564579e+03
2.699869e+02,2.563478e+03
2.728796e+02,2.549506e+03
2.757723e+02,2.557771e+03
2.786650e+02,2.570220e+03
2.815577e+02,2.561246e+03
2.844504e+02,2.559304e+03
2.873431e+02,2.562198e+03
2.902358e+02,2.555598e+03
2.931285e+02,2.555550e+03
2.960212e+02,2.559249e+03
2.989139e+02,2.552363e+03
3.018066e+02,2.549301e+03
3.046993e+02,2.550284e+03
3.075920e+02,2.562926e+03
3.104847e+02,2.556786e+03
3.133774e+02,2.548250e+03
3.162701e+02,2.561946e+03
3.191628e+02,2.550662e+03
3.220555e+02,2.552176e+03
3.249482e+02,2.560707e+03
3.278409e+02,2.563891e+03
3.307336e+02,2.550148e+03
3.336263e+02,2.540714e+03
3.365190e+02,2.548446e+03
3.394117e+02,2.549125e+03
3.423044e+02,2.544484e+03
3.451971e+02,2.552906e+03
3.480898e+02,2.546443e+03
3.509825e+02,2.523106e+03
3.538752e+02,2.533482e+03
3.567680e+02,2.534323e+03
3.596607e+02,2.538283e+03
3.625534e+02,2.538663e+03
3.654461e+02,2.527120e+03
3.683388e+02,2.539134e+03
3.712315e+02,2.538956e+03
3.741242e+02,2.557823e+03
3.770169e+02,2.561321e+03
3.799096e+02,2.549878e+03
3.828023e+02,2.543414e+03
3.856950e+02,2.524958e+03
3.885877e+02,2.511237e+03
3.914804e+02,2.517992e+03
3.943731e+02,2.518374e+03
3.972658e+02,2.510910e+03
4.001585e+02,2.521116e+03
4.030512e+02,2.500214e+03
4.059439e+02,2.502939e+03
4.088366e+02,2.510652e+03
4.117293e+02,2.514691e+03
4.146220e+02,2.502211e+03
4.175147e+02,2.509883e+03
4.204074e+02,2.500322e+03
4.233001e+02,2.503639e+03
4.261928e+02,2.505108e+03
4.290855e+02,2.492127e+03
4.319782e+02,2.491623e+03
4.348709e+02,2.504963e+03
4.377636e+02,2.513595e+03
4.406563e+02,2.498609e+03
4.435490e+02,2.478566e+03
4.464417e+02,2.495803e+03
4.493344e+02,2.500889e+03
4.522271e+02,2.498453e+03
4.551198e+02,2.497324e+03
4.580125e+02,2.497962e+03
4.609052e+02,2.479419e+03
4.637979e+02,2.474804e+03
4.666906e+02,2.461438e+03
4.695833e+02,2.473995e+03
4.724760e+02,2.474815e+03
4.753687e+02,2.467760e+03
4.782614e+02,2.451190e+03
4.811541e+02,2.444463e+03
4.840468e+02,2.458059e+03
4.869395e+02,2.443283e+03
4.898322e+02,2.433686e+03
4.927249e+02,2.441624e+03
4.956176e+02,2.448965e+03
4.985103e+02,2.450712e+03
5.014030e+02,2.449695e+03
5.042957e+02,2.439828e+03
5.071884e+02,2.425626e+03
5.100811e+02,2.428344e+03
5.129738e+02,2.437555e+03
5.158665e+02,2.449453e+03
5.187592e+02,2.451483e+03
5.216519e+02,2.428711e+03
5.245446e+02,2.436279e+03
5.274373e+02,2.439298e+03
5.303300e+02,2.426844e+03
5.332227e+02,2.412990e+03
5.361154e+02,2.412486e+03
5.390081e+02,2.394976e+03
5.419008e+02,2.402159e+03
5.447935e+02,2.402530e+03
5.476862e+02,2.402626e+03
5.505789e+02,2.389545e+03
5.534716e+02,2.383173e+03
5.563643e+02,2.389491e+03
5.592570e+02,2.377663e+03
5.621497e+02,2.379833e+03
5.650424e+02,2.390488e+03
5.679351e+02,2.375546e+03
5.708278e+02,2.358579e+03
5.737205e+02,2.374063e+03
5.766132e+02,2.384482e+03
5.795059e+02,2.363192e+03
5.823986e+02,2.351074e+03
5.852913e+02,2.347705e+03
5.881840e+02,2.357538e+03
5.910767e+02,2.359244e+03
5.939694e+02,2.349469e+03
5.968621e+02,2.342267e+03
5.997548e+02,2.342006e+03
6.026475e+02,2.341327e+03
6.055402e+02,2.355628e+03
6.084329e+02,2.347231e+03
6.113256e+02,2.333598e+03
6.142183e+02,2.327391e+03
6.171110e+02,2.309646e+03
6.200037e+02,2.321929e+03
6.228964e+02,2.316949e+03
6.257891e+02,2.331618e+03
6.286818e+02,2.314069e+03
6.315745e+02,2.318629e+03
6.344672e+02,2.322209e+03
6.373599e+02,2.303298e+03
6.402526e+02,2.292387e+03
6.431453e+02,2.299625e+03
6.460380e+02,2.290469e+03
6.489307e+02,2.289022e+03
6.518234e+02,2.292716e+03
6.547161e+02,2.290138e+03
6.576088e+02,2.273383e+03
6.605015e+02,2.279083e+03
6.633942e+02,2.271245e+03
6.662869e+02,2.271960e+03
6.691796e+02,2.259438e+03
6.720723e+02,2.266863e+03
6.749650e+02,2.257160e+03
6.778577e+02,2.244414e+03
6.807504e+02,2.260807e+03
6.836431e+02,2.252670e+03
6.865358e+02,2.247354e+03
6.894285e+02,2.237733e+03
6.923212e+02,2.230697e+03
6.952139e+02,2.246948e+03
6.981066e+02,2.237802e+03
7.009993e+02,2.246300e+03
7.038920e+02,2.240192e+03
7.067847e+02,2.221281e+03
7.096774e+02,2.225938e+03
7.125701e+02,2.222164e+03
7.154628e+02,2.232286e+03
7.183555e+02,2.222252e+03
7.212482e+02,2.210727e+03
7.241409e+02,2.221901e+03
7.270336e+02,2.210520e+03
7.299263e+02,2.209381e+03
7.328190e+02,2.212216e+03
7.357117e+02,2.204222e+03
7.386044e+02,2.203206e+03
7.414971e+02,2.194728e+03
7.443898e+02,2.195780e+03
7.472825e+02,2.177404e+03
7.501752e+02,2.177083e+03
7.530679e+02,2.176550e+03
7.559606e+02,2.180265e+03
7.588533e+02,2.163094e+03
7.617460e+02,2.179161e+03
7.646387e+02,2.156659e+03
7.675314e+02,2.158533e+03
7.704241e+02,2.160296e+03
7.733168e+02,2.156224e+03
7.762095e+02,2.163287e+03
7.791022e+02,2.163392e+03
7.819949e+02,2.138234e+03
7.848876e+02,2.126335e+03
7.877803e+02,2.127760e+03
7.906730e+02,2.129767e+03
7.935657e+02,2.141528e+03
7.964584e+02,2.123390e+03
7.993511e+02,2.106588e+03
8.022438e+02,2.123547e+03
8.051365e+02,2.123984e+03
8.080292e+02,2.115465e+03
8.109219e+02,2.102252e+03
8.138146e+02,2.120233e+03
8.167073e+02,2.113306e+03
8.196000e+02,2.109066e+03
8.224927e+02,2.115600e+03
8.253854e+02,2.115414e+03
8.282781e+02,2.093680e+03
8.311708e+02,2.089189e+03
8.340635e+02,2.092575e+03
8.369562e+02,2.082780e+03
8.398489e+02,2.088653e+03
8.427416e+02,2.085563e+03
8.456343e+02,2.074364e+03
8.485270e+02,2.076677e+03
8.514197e+02,2.080100e+03
8.543124e+02,2.087868e+03
8.572051e+02,2.060690e+03
8.600978e+02,2.081642e+03
8.629905e+02,2.051407e+03
8.658832e+02,2.050223e+03
8.687759e+02,2.046961e+03
8.716686e+02,2.057409e+03
8.745613e+02,2.039139e+03
8.774540e+02,2.043114e+03
8.803467e+02,2.030419e+03
8.832394e+02,2.032916e+03
8.861321e+02,2.037445e+03
8.890248e+02,2.034805e+03
8.919175e+02,2.032270e+03
8.948102e+02,2.017156e+03
8.977029e+02,2.021415e+03
9.005956e+02,2.009420e+03
9.034883e+02,2.008563e+03
9.063810e+02,1.996781e+03
9.092737e+02,1.991328e+03
9.121664e+02,1.998622e+03
9.150591e+02,2.001484e+03
9.179518e+02,1.992272e+03
9.208445e+02,1.995118e+03
9.237372e+02,1.975055e+03
9.266299e+02,1.977282e+03
9.295226e+02,1.986939e+03
9.324153e+02,1.977828e+03
9.353080e+02,1.975425e+03
9.382007e+02,1.964027e+03
9.410934e+02,1.968592e+03
9.439861e+02,1.976511e+03
9.468788e+02,1.960908e+03
9.497715e+02,1.952001e+03
9.526642e+02,1.950791e+03
9.555569e+02,1.947766e+03
9.584496e+02,1.948363e+03
9.613423e+02,1.943126e+03
9.642350e+02,1.955372e+03
9.671277e+02,1.931634e+03
9.700204e+02,1.941342e+03
9.729131e+02,1.919000e+03
9.758058e+02,1.930947e+03
9.786985e+02,1.930693e+03
9.815912e+02,1.926065e+03
9.844839e+02,1.919509e+03
9.873766e+02,1.911863e+03
9.902693e+02,1.911019e+03
9.931620e+02,1.923516e+03
9.960547e+02,1.913851e+03
9.989474e+02,1.917311e+03
1.001840e+03,1.895898e+03
1.004733e+03,1.901615e+03
1.007626e+03,1.904323e+03
1.010518e+03,1.899481e+03
1.013411e+03,1.892778e+03
1.016304e+03,1.887300e+03
1.019196e+03,1.873965e+03
1.022089e+03,1.884283e+03
1.024982e+03,1.883334e+03
1.027875e+03,1.878332e+03
1.030767e+03,1.884892e+03
1.033660e+03,1.863677e+03
1.036552e+03,1.875545e+03
1.039445e+03,1.869414e+03
1.042338e+03,1.868272e+03
1.045231e+03,1.873088e+03
1.048123e+03,1.862339e+03
1.051016e+03,1.862356e+03
1.053909e+03,1.867612e+03
1.056802e+03,1.846365e+03
1.059694e+03,1.861894e+03
1.062587e+03,1.862005e+03
1.065479e+03,1.845586e+03
1.068372e+03,1.872275e+03
1.071265e+03,1.879373e+03
1.074158e+03,1.875908e+03
1.077050e+03,1.869778e+03
1.079943e+03,1.854478e+03
1.082836e+03,1.851633e+03
1.085729e+03,1.867748e+03
1.088621e+03,1.879328e+03
1.091514e+03,1.876925e+03
1.094406e+03,1.884376e+03
1.097299e+03,1.871658e+03
1.100192e+03,1.849625e+03
1.103085e+03,1.838695e+03
1.105977e+03,1.832521e+03
1.108870e+03,1.831083e+03
1.111763e+03,1.834623e+03
1.114656e+03,1.831183e+03
1.117548e+03,1.842684e+03
1.120441e+03,1.842166e+03
1.123334e+03,1.832161e+03
1.126226e+03,1.825733e+03
1.129119e+03,1.824626e+03
1.132012e+03,1.823695e+03
1.134904e+03,1.807734e+03
1.137797e+03,1.811472e+03
1.140690e+03,1.806378e+03
1.143583e+03,1.809153e+03
1.146475e+03,1.816348e+03
1.149368e+03,1.821939e+03
1.152261e+03,1.818889e+03
1.155153e+03,1.810805e+03
1.158046e+03,1.810383e+03
1.160939e+03,1.817199e+03
1.163831e+03,1.814690e+03
1.166724e+03,1.800278e+03
1.169617e+03,1.793437e+03
1.172510e+03,1.786798e+03
1.175402e+03,1.782559e+03
1.178295e+03,1.777742e+03
1.181188e+03,1.752832e+03
1.184080e+03,1.759097e+03
1.186973e+03,1.746192e+03
1.189866e+03,1.741279e+03
1.192758e+03,1.736557e+03
1.195651e+03,1.752521e+03
1.198544e+03,1.753773e+03
1.201437e+03,1.741508e+03
1.204329e+03,1.738374e+03
1.207222e+03,1.723255e+03
1.210115e+03,1.735695e+03
1.213007e+03,1.722338e+03
1.215900e+03,1.719816e+03
1.218793e+03,1.707921e+03
1.221685e+03,1.705803e+03
1.224578e+03,1.703809e+03
1.227471e+03,1.707507e+03
1.230364e+03,1.705968e+03
1.233256e+03,1.704483e+03
1.236149e+03,1.699586e+03
1.239042e+03,1.693142e+03
1.241934e+03,1.702218e+03
1.244827e+03,1.702791e+03
1.247720e+03,1.701179e+03
1.250612e+03,1.691646e+03
1.253505e+03,1.696846e+03
1.256398e+03,1.682038e+03
1.259291e+03,1.679938e+03
1.262183e+03,1.685765e+03
1.265076e+03,1.679458e+03
1.267969e+03,1.663458e+03
1.270861e+03,1.683767e+03
1.273754e+03,1.689768e+03
1.276647e+03,1.703454e+03
1.279539e+03,1.703725e+03
1.282432e+03,1.689292e+03
1.285325e+03,1.708398e+03
1.288218e+03,1.689361e+03
1.291110e+03,1.685688e+03
1.294003e+03,1.692992e+03
1.296896e+03,1.679304e+03
1.299788e+03,1.679906e+03
1.302681e+03,1.690973e+03
1.305574e+03,1.685154e+03
1.308466e+03,1.689752e+03
1.311359e+03,1.699049e+03
1.314252e+03,1.692082e+03
1.317145e+03,1.697770e+03
1.320037e+03,1.713029e+03
1.322930e+03,1.714550e+03
1.325823e+03,1.694848e+03
1.328715e+03,1.699481e+03
1.331608e+03,1.683442e+03
1.334501e+03,1.701329e+03
1.337393e+03,1.679583e+03
1.340286e+03,1.694708e+03
1.343179e+03,1.657779e+03
1.346072e+03,1.658228e+03
1.348964e+03,1.668168e+03
1.351857e+03,1.637496e+03
1.354750e+03,1.641626e+03
1.357642e+03,1.637921e+03
1.360535e+03,1.634230e+03
1.363428e+03,1.633313e+03
1.366320e+03,1.629385e+03
1.369213e+03,1.632739e+03
1.372106e+03,1.627615e+03
1.374999e+03,1.611651e+03
1.377891e+03,1.615650e+03
1.380784e+03,1.624874e+03
1.383677e+03,1.615984e+03
1.386569e+03,1.600502e+03
1.389462e+03,1.592330e+03
1.392355e+03,1.601960e+03
1.395247e+03,1.582402e+03
1.398140e+03,1.592342e+03
1.401033e+03,1.580746e+03
1.403926e+03,1.590111e+03
1.406818e+03,1.573239e+03
1.409711e+03,1.559572e+03
1.412604e+03,1.579559e+03
1.415496e+03,1.570916e+03
1.418389e+03,1.564827e+03
1.421282e+03,1.559850e+03
1.424174e+03,1.559895e+03
1.427067e+03,1.556263e+03
1.429960e+03,1.559332e+03
1.432853e+03,1.560988e+03
1.435745e+03,1.539162e+03
1.438638e+03,1.546449e+03
1.441531e+03,1.539438e+03
1.444423e+03,1.540644e+03
1.447316e+03,1.533527e+03
1.450209e+03,1.526568e+03
1.453101e+03,1.526996e+03
1.455994e+03,1.529886e+03
1.458887e+03,1.529809e+03
1.461780e+03,1.525638e+03
1.464672e+03,1.516068e+03
1.467565e+03,1.518834e+03
1.470458e+03,1.519096e+03
1.473350e+03,1.508843e+03
1.476243e+03,1.514429e+03
1.479136e+03,1.515617e+03
1.482028e+03,1.506005e+03
1.484921e+03,1.488745e+03
1.487814e+03,1.495781e+03
1.490707e+03,1.483007e+03
1.493599e+03,1.480973e+03
1.496492e+03,1.471818e+03
1.499385e+03,1.471917e+03
1.502277e+03,1.475911e+03
1.505170e+03,1.473686e+03
1.508063e+03,1.472089e+03
1.510955e+03,1.458308e+03
1.513848e+03,1.470370e+03
1.516741e+03,1.464586e+03
1.519634e+03,1.459457e+03
1.522526e+03,1.469652e+03
1.525419e+03,1.468550e+03
1.528312e+03,1.464265e+03
1.531204e+03,1.464271e+03
1.534097e+03,1.457472e+03
1.536990e+03,1.451067e+03
1.539882e+03,1.440875e+03
1.542775e+03,1.450223e+03
1.545668e+03,1.456631e+03
1.548561e+03,1.441191e+03
1.551453e+03,1.446536e+03
1.554346e+03,1.440284e+03
1.557239e+03,1.444596e+03
1.560131e+03,1.431645e+03
1.563024e+03,1.441220e+03
1.565917e+03,1.435972e+03
1.568809e+03,1.446266e+03
1.571702e+03,1.450259e+03
1.574595e+03,1.447564e+03
1.577488e+03,1.444521e+03
1.580380e+03,1.443152e+03
1.583273e+03,1.443677e+03
1.586166e+03,1.428018e+03
1.589058e+03,1.425745e+03
1.591951e+03,1.416369e+03
1.594844e+03,1.415240e+03
1.597736e+03,1.407613e+03
1.600629e+03,1.424506e+03
1.603522e+03,1.426625e+03
1.606415e+03,1.429442e+03
1.609307e+03,1.448678e+03
1.612200e+03,1.455706e+03
1.615093e+03,1.445587e+03
1.617985e+03,1.421675e+03
1.620878e+03,1.396607e+03
1.623771e+03,1.382322e+03
1.626663e+03,1.372785e+03
1.629556e+03,1.362215e+03
1.632449e+03,1.359202e+03
1.635342e+03,1.366245e+03
1.638234e+03,1.363510e+03
1.641127e+03,1.360502e+03
1.644020e+03,1.359687e+03
1.646912e+03,1.357104e+03
1.649805e+03,1.355618e+03
1.652698e+03,1.359987e+03
1.655590e+03,1.339433e+03
1.658483e+03,1.335440e+03
1.661376e+03,1.332171e+03
1.664269e+03,1.330566e+03
1.667161e+03,1.326830e+03
1.670054e+03,1.315279e+03
1.672947e+03,1.334058e+03
1.675839e+03,1.313635e+03
1.678732e+03,1.318674e+03
1.681625e+03,1.311173e+03
1.684517e+03,1.304502e+03
1.687410e+03,1.303688e+03
1.690303e+03,1.317646e+03
1.693196e+03,1.314045e+03
1.696088e+03,1.310822e+03
1.698981e+03,1.295992e+03
1.701874e+03,1.321870e+03
1.704766e+03,1.302271e+03
1.707659e+03,1.294678e+03
1.710552e+03,1.301845e+03
1.713444e+03,1.294956e+03
1.716337e+03,1.297836e+03
1.719230e+03,1.299539e+03
1.722123e+03,1.289003e+03
1.725015e+03,1.314472e+03
1.727908e+03,1.300250e+03
1.730801e+03,1.292475e+03
1.733693e+03,1.281621e+03
1.736586e+03,1.288417e+03
1.739479e+03,1.265522e+03
1.742371e+03,1.272538e+03
1.745264e+03,1.271182e+03
1.748157e+03,1.239580e+03
1.751050e+03,1.258984e+03
1.753942e+03,1.241030e+03
1.756835e+03,1.257291e+03
1.759728e+03,1.234286e+03
1.762620e+03,1.245750e+03
1.765513e+03,1.242734e+03
1.768406e+03,1.241223e+03
1.771298e+03,1.229846e+03
1.774191e+03,1.235470e+03
1.777084e+03,1.228698e+03
1.779977e+03,1.225168e+03
1.782869e+03,1.234106e+03
1.785762e+03,1.223327e+03
1.788655e+03,1.211173e+03
1.791547e+03,1.203045e+03
1.794440e+03,1.213166e+03
1.797333e+03,1.198452e+03
1.800225e+03,1.207457e+03
1.803118e+03,1.195901e+03
1.806011e+03,1.185874e+03
1.808904e+03,1.183476e+03
1.811796e+03,1.205495e+03
1.814689e+03,1.188275e+03
1.817582e+03,1.193158e+03
1.820474e+03,1.180473e+03
1.823367e+03,1.180413e+03
1.826260e+03,1.173384e+03
1.829152e+03,1.182875e+03
1.832045e+03,1.175712e+03
1.834938e+03,1.167871e+03
1.837831e+03,1.168536e+03
1.840723e+03,1.137272e+03
1.843616e+03,1.152315e+03
1.846509e+03,1.163473e+03
1.849401e+03,1.147349e+03
1.852294e+03,1.146190e+03
1.855187e+03,1.147414e+03
1.858079e+03,1.143454e+03
1.860972e+03,1.145771e+03
1.863865e+03,1.142010e+03
1.866758e+03,1.132264e+03
1.869650e+03,1.145478e+03
1.872543e+03,1.130349e+03
1.875436e+03,1.134869e+03
1.878328e+03,1.131146e+03
1.881221e+03,1.128418e+03
1.884114e+03,1.112936e+03
1.887006e+03,1.119798e+03
1.889899e+03,1.114768e+03
1.892792e+03,1.105084e+03
1.895685e+03,1.110135e+03
1.898577e+03,1.128594e+03
1.901470e+03,1.110896e+03
1.904363e+03,1.111179e+03
1.907255e+03,1.105637e+03
1.910148e+03,1.093379e+03
1.913041e+03,1.101310e+03
1.915933e+03,1.102698e+03
1.918826e+03,1.090772e+03
1.921719e+03,1.089941e+03
1.924612e+03,1.080949e+03
1.927504e+03,1.092342e+03
1.930397e+03,1.065172e+03
1.933290e+03,1.059715e+03
1.936182e+03,1.069128e+03
1.939075e+03,1.071185e+03
1.941968e+03,1.075078e+03
1.944860e+03,1.080474e+03
1.947753e+03,1.056083e+03
1.950646e+03,1.079059e+03
1.953539e+03,1.059109e+03
1.956431e+03,1.058241e+03
1.959324e+03,1.051906e+03
1.962217e+03,1.043511e+03
1.965109e+03,1.041992e+03
1.968002e+03,1.044073e+03
1.970895e+03,1.061442e+03
1.973787e+03,1.040043e+03
1.976680e+03,1.031937e+03
1.979573e+03,1.034026e+03
1.982466e+03,1.045231e+03
1.985358e+03,1.026758e+03
1.988251e+03,1.031210e+03
1.991144e+03,1.017244e+03
1.994036e+03,1.012760e+03
1.996929e+03,1.030540e+03
1.999822e+03,1.009926e+03
2.002714e+03,1.008458e+03
2.005607e+03,1.006580e+03
2.008500e+03,9.890350e+02
2.011393e+03,9.945652e+02
2.014285e+03,9.994699e+02
2.017178e+03,9.941352e+02
2.020071e+03,9.855525e+02
2.022963e+03,9.969520e+02
2.025856e+03,9.863375e+02
2.028749e+03,9.853565e+02
2.031641e+03,9.846330e+02
2.034534e+03,9.833040e+02
2.037427e+03,9.823195e+02
2.040320e+03,9.707924e+02
2.043212e+03,9.713039e+02
2.046105e+03,9.693876e+02
2.048998e+03,9.626288e+02
2.051890e+03,9.531249e+02
2.054783e+03,9.595569e+02
2.057676e+03,9.547790e+02
2.060568e+03,9.442715e+02
2.063461e+03,9.479221e+02
2.066354e+03,9.466326e+02
2.069247e+03,9.311552e+02
2.072139e+03,9.476558e+02
2.075032e+03,9.307425e+02
2.077925e+03,9.299848e+02
2.080817e+03,9.345179e+02
2.083710e+03,9.213025e+02
2.086603e+03,9.251288e+02
2.089496e+03,9.309601e+02
2.092388e+03,9.226722e+02
2.095281e+03,9.236328e+02
2.098174e+03,9.321663e+02
2.101066e+03,9.143341e+02
2.103959e+03,9.112203e+02
2.106852e+03,9.087908e+02
2.109744e+03,8.991097e+02
2.112637e+03,8.996406e+02
2.115530e+03,8.978927e+02
2.118422e+03,8.886044e+02
2.121315e+03,8.954128e+02
2.124208e+03,9.019257e+02
2.127101e+03,8.882097e+02
2.129993e+03,8.774372e+02
2.132886e+03,8.968970e+02
2.135779e+03,8.679153e+02
2.138671e+03,8.867490e+02
2.141564e+03,8.688732e+02
2.144457e+03,8.759362e+02
2.147350e+03,8.662587e+02
2.150242e+03,8.615977e+02
2.153135e+03,8.653778e+02
2.156028e+03,8.629346e+02
2.158920e+03,8.710906e+02
2.161813e+03,8.676265e+02
2.164706e+03,8.643130e+02
2.167598e+03,8.525639e+02
2.170491e+03,8.606200e+02
2.173384e+03,8.508292e+02
2.176277e+03,8.582460e+02
2.179169e+03,8.400110e+02
2.182062e+03,8.490078e+02
2.184955e+03,8.355063e+02
2.187847e+03,8.401424e+02
2.190740e+03,8.418520e+02
2.193633e+03,8.410221e+02
2.196525e+03,8.325643e+02
2.199418e+03,8.229718e+02
2.202311e+03,8.348742e+02
2.205204e+03,8.293427e+02
2.208096e+03,8.342706e+02
2.210989e+03,8.127462e+02
2.213882e+03,8.118561e+02
2.216774e+03,8.313788e+02
2.219667e+03,8.034501e+02
2.222560e+03,8.128745e+02
2.225452e+03,8.030099e+02
2.228345e+03,7.956088e+02
2.231238e+03,8.138801e+02
2.234131e+03,8.075582e+02
2.237023e+03,8.011965e+02
2.239916e+03,7.888154e+02
2.242809e+03,7.934457e+02
2.245701e+03,7.893040e+02
2.248594e+03,7.769319e+02
2.251487e+03,7.791344e+02
2.254379e+03,7.722568e+02
2.257272e+03,7.794978e+02
2.260165e+03,7.745026e+02
2.263058e+03,7.697833e+02
2.265950e+03,7.770704e+02
2.268843e+03,7.758315e+02
2.271736e+03,7.723270e+02
2.274628e+03,7.606301e+02
2.277521e+03,7.652236e+02
2.280414e+03,7.594478e+02
2.283306e+03,7.615291e+02
2.286199e+03,7.588445e+02
2.289092e+03,7.572278e+02
2.291985e+03,7.420408e+02
2.294877e+03,7.450570e+02
2.297770e+03,7.499782e+02
2.300663e+03,7.518682e+02
2.303555e+03,7.415261e+02
2.306448e+03,7.500046e+02
2.309341e+03,7.367787e+02
2.312233e+03,7.354354e+02
2.315126e+03,7.356505e+02
2.318019e+03,7.350253e+02
2.320912e+03,7.336551e+02
2.323804e+03,7.241682e+02
2.326697e+03,7.266168e+02
2.329590e+03,7.391859e+02
2.332482e+03,7.184714e+02
2.335375e+03,7.297302e+02
2.338268e+03,7.154223e+02
2.341160e+03,7.201263e+02
2.344053e+03,7.234872e+02
2.346946e+03,7.121334e+02
2.349839e+03,7.058259e+02
2.352731e+03,6.945252e+02
2.355624e+03,7.001056e+02
2.358517e+03,7.056852e+02
2.361409e+03,7.163613e+02
2.364302e+03,6.938749e+02
2.367195e+03,6.914279e+02
2.370087e+03,7.041042e+02
2.372980e+03,6.959996e+02
2.375873e+03,6.994834e+02
2.378766e+03,7.031657e+02
2.381658e+03,6.813965e+02
2.384551e+03,6.778763e+02
2.387444e+03,6.855897e+02
2.390336e+03,6.860790e+02
2.393229e+03,6.725070e+02
2.396122e+03,6.818788e+02
2.399014e+03,6.809326e+02
2.401907e+03,6.817746e+02
2.404800e+03,6.746326e+02
2.407693e+03,6.740732e+02
2.410585e+03,6.679966e+02
2.413478e+03,6.664240e+02
2.416371e+03,6.698289e+02
2.419263e+03,6.736378e+02
2.422156e+03,6.731364e+02
2.425049e+03,6.551042e+02
2.427941e+03,6.652386e+02
2.430834e+03,6.555228e+02
2.433727e+03,6.630317e+02
2.436620e+03,6.587516e+02
2.439512e+03,6.556003e+02
2.442405e+03,6.555367e+02
2.445298e+03,6.472453e+02
2.448190e+03,6.404959e+02
2.451083e+03,6.449432e+02
2.453976e+03,6.373734e+02
2.456868e+03,6.489942e+02
2.459761e+03,6.396928e+02
2.462654e+03,6.409352e+02
2.465547e+03,6.342184e+02
2.468439e+03,6.177764e+02
2.471332e+03,6.327673e+02
2.474225e+03,6.290931e+02
2.477117e+03,6.302180e+02
2.480010e+03,6.304529e+02
2.482903e+03,6.285186e+02
2.485795e+03,6.237072e+02
2.488688e+03,6.170734e+02
2.491581e+03,6.162368e+02
2.494474e+03,6.095065e+02
2.497366e+03,6.248054e+02
2.500259e+03,6.110621e+02
2.503152e+03,6.189968e+02
2.506044e+03,6.186682e+02
2.508937e+03,6.053329e+02
2.511830e+03,6.189383e+02
2.514722e+03,6.141435e+02
2.517615e+03,6.139347e+02
2.520508e+03,6.111918e+02
2.523401e+03,6.134007e+02
2.526293e+03,5.988506e+02
2.529186e+03,6.059766e+02
2.532079e+03,5.874433e+02
2.534971e+03,6.054693e+02
2.537864e+03,5.930073e+02
2.540757e+03,5.963264e+02
2.543649e+03,5.955447e+02
2.546542e+03,6.087840e+02
2.549435e+03,5.885309e+02
2.552328e+03,5.859929e+02
2.555220e+03,6.040937e+02
2.558113e+03,5.888294e+02
2.561006e+03,6.084482e+02
2.563898e+03,5.937385e+02
2.566791e+03,5.863102e+02
2.569684e+03,5.787173e+02
2.572576e+03,5.888122e+02
2.575469e+03,5.909658e+02
2.578362e+03,5.866314e+02
2.581255e+03,5.711481e+02
2.584147e+03,5.885339e+02
2.587040e+03,5.826032e+02
2.589933e+03,5.837618e+02
2.592825e+03,5.645948e+02
2.595718e+03,5.877774e+02
2.598611e+03,5.687292e+02
2.601503e+03,5.625214e+02
2.604396e+03,5.616917e+02
2.607289e+03,5.762615e+02
2.610182e+03,5.756720e+02
2.613074e+03,5.621155e+02
2.615967e+03,5.630359e+02
2.618860e+03,5.579327e+02
2.621752e+03,5.652440e+02
2.624645e+03,5.641918e+02
2.627538e+03,5.582324e+02
2.630430e+03,5.560609e+02
2.633323e+03,5.509279e+02
2.636216e+03,5.568234e+02
2.639109e+03,5.540466e+02
2.642001e+03,5.564387e+02
2.644894e+03,5.441046e+02
2.647787e+03,5.513387e+02
2.650679e+03,5.433718e+02
2.653572e+03,5.470023e+02
2.656465e+03,5.456772e+02
2.659357e+03,5.382382e+02
2.662250e+03,5.444730e+02
2.665143e+03,5.495614e+02
2.668036e+03,5.437205e+02
2.670928e+03,5.501336e+02
2.673821e+03,5.482939e+02
2.676714e+03,5.205629e+02
2.679606e+03,5.493952e+02
2.682499e+03,5.338162e+02
2.685392e+03,5.197343e+02
2.688284e+03,5.352548e+02
2.691177e+03,5.273719e+02
2.694070e+03,5.347463e+02
2.696963e+03,5.137551e+02
2.699855e+03,5.363339e+02
2.702748e+03,5.258118e+02
2.705641e+03,5.287239e+02
2.708533e+03,5.254318e+02
2.711426e+03,5.304427e+02
2.714319e+03,5.312332e+02
2.717211e+03,5.252629e+02
2.720104e+03,5.404986e+02
2.722997e+03,5.146198e+02
2.725890e+03,5.279692e+02
2.728782e+03,5.138879e+02
2.731675e+03,5.138203e+02
2.734568e+03,5.211844e+02
2.737460e+03,5.136538e+02
2.740353e+03,4.968404e+02
2.743246e+03,5.243685e+02
2.746138e+03,5.187480e+02
2.749031e+03,5.184308e+02
2.751924e+03,5.159412e+02
2.754817e+03,5.082946e+02
2.757709e+03,5.029680e+02
2.760602e+03,4.978801e+02
2.763495e+03,4.984352e+02
2.766387e+03,4.976837e+02
2.769280e+03,5.131971e+02
2.772173e+03,5.044747e+02
2.775065e+03,5.011706e+02
2.777958e+03,4.954361e+02
2.780851e+03,4.982979e+02
2.783744e+03,4.992231e+02
2.786636e+03,4.821226e+02
2.789529e+03,4.992276e+02
2.792422e+03,4.953978e+02
2.795314e+03,4.928289e+02
2.798207e+03,4.791762e+02
2.801100e+03,5.135936e+02
2.803992e+03,4.897835e+02
2.806885e+03,4.951293e+02
2.809778e+03,4.908740e+02
2.812671e+03,5.057017e+02
2.815563e+03,4.945474e+02
2.818456e+03,4.952390e+02
2.821349e+03,4.783409e+02
2.824241e+03,4.933011e+02
2.827134e+03,4.976079e+02
2.830027e+03,4.868231e+02
2.832919e+03,5.000026e+02
2.835812e+03,4.876238e+02
2.838705e+03,4.880513e+02
2.841598e+03,4.836642e+02
2.844490e+03,4.879547e+02
2.847383e+03,4.822083e+02
2.850276e+03,4.999471e+02
2.853168e+03,4.970379e+02
2.856061e+03,4.919745e+02
2.858954e+03,4.904211e+02
2.861846e+03,4.901732e+02
2.864739e+03,4.766782e+02
2.867632e+03,4.943020e+02
2.870525e+03,4.833966e+02
2.873417e+03,4.809098e+02
2.876310e+03,4.774322e+02
2.879203e+03,5.032973e+02
2.882095e+03,5.124505e+02
2.884988e+03,5.142870e+02
2.887881e+03,5.101294e+02
2.890773e+03,4.984931e+02
2.893666e+03,5.123230e+02
2.896559e+03,5.077884e+02
2.899452e+03,5.103178e+02
2.902344e+03,5.149186e+02
2.905237e+03,4.937113e+02
2.908130e+03,4.909579e+02
2.911022e+03,5.083383e+02
2.913915e+03,4.866985e+02
2.916808e+03,4.850752e+02
2.919700e+03,5.054543e+02
2.922593e+03,4.673072e+02
2.925486e+03,4.843308e+02
2.928379e+03,4.548237e+02
2.931271e+03,4.776593e+02
2.934164e+03,4.792707e+02
2.937057e+03,4.581632e+02
2.939949e+03,4.694567e+02
2.942842e+03,4.635934e+02
2.945735e+03,4.830035e+02
2.948627e+03,4.532002e+02
2.951520e+03,4.682044e+02
2.954413e+03,4.694527e+02
2.957306e+03,4.853393e+02
2.960198e+03,4.824955e+02
2.963091e+03,4.700856e+02
2.965984e+03,4.644477e+02
2.968876e+03,4.596364e+02
2.971769e+03,4.553397e+02
2.974662e+03,4.526546e+02
2.977554e+03,4.504079e+02
2.980447e+03,4.361194e+02
2.983340e+03,4.530785e+02
2.986233e+03,4.502365e+02
2.989125e+03,4.294790e+02
2.992018e+03,4.254977e+02
2.994911e+03,4.395684e+02
2.997803e+03,4.395131e+02
3.000696e+03,4.409337e+02
3.003589e+03,4.307489e+02
3.006481e+03,4.529189e+02
3.009374e+03,4.169335e+02
3.012267e+03,4.415933e+02
3.015160e+03,4.256507e+02
3.018052e+03,4.299385e+02
3.020945e+03,4.329701e+02
3.023838e+03,4.159025e+02
3.026730e+03,4.210079e+02
3.029623e+03,4.255014e+02
3.032516e+03,4.193216e+02
3.035408e+03,4.100924e+02
3.038301e+03,4.248069e+02
3.041194e+03,4.265288e+02
3.044087e+03,4.172753e+02
3.046979e+03,4.230148e+02
3.049872e+03,4.297321e+02
3.052765e+03,4.168858e+02
3.055657e+03,4.143308e+02
3.058550e+03,4.296678e+02
3.061443e+03,4.126979e+02
3.064335e+03,4.243435e+02
3.067228e+03,4.255763e+02
3.070121e+03,4.150882e+02
3.073014e+03,4.103865e+02
3.075906e+03,4.284883e+02
3.078799e+03,4.419057e+02
3.081692e+03,4.292931e+02
3.084584e+03,4.088418e+02
3.087477e+03,4.286535e+02
3.090370e+03,4.263545e+02
3.093262e+03,3.815575e+02
3.096155e+03,4.249603e+02
3.099048e+03,4.036433e+02
3.101941e+03,4.145639e+02
3.104833e+03,4.093040e+02
3.107726e+03,4.281877e+02
3.110619e+03,4.066131e+02
3.113511e+03,4.254466e+02
3.116404e+03,4.117895e+02
3.119297e+03,4.347498e+02
3.122189e+03,4.239073e+02
3.125082e+03,4.289946e+02
3.127975e+03,4.385262e+02
3.130868e+03,4.124241e+02
3.133760e+03,4.347478e+02
3.136653e+03,4.009948e+02
3.139546e+03,4.132552e+02
3.142438e+03,4.127579e+02
3.145331e+03,3.676800e+02
3.148224e+03,4.069686e+02
3.151116e+03,4.277090e+02
3.154009e+03,4.194595e+02
3.156902e+03,4.274998e+02
3.159795e+03,3.833903e+02
3.162687e+03,4.590267e+02
3.165580e+03,4.131877e+02
3.168473e+03,4.128031e+02
3.171365e+03,4.037790e+02
3.174258e+03,4.083191e+02
3.177151e+03,4.137325e+02
3.180043e+03,4.157448e+02
3.182936e+03,4.293263e+02
3.185829e+03,4.090119e+02
3.188722e+03,4.058399e+02
3.191614e+03,4.081519e+02
3.194507e+03,4.154949e+02
3.197400e+03,4.256916e+02
3.200292e+03,4.379549e+02
3.203185e+03,0.000000e+00
3.206078e+03,0.000000e+00
3.208970e+03,0.000000e+00
3.211863e+03,0.000000e+00
3.214756e+03,0.000000e+00
3.217649e+03,0.000000e+00
3.220541e+03,0.000000e+00
3.223434e+03,0.000000e+00
3.226327e+03,0.000000e+00
3.229219e+03,0.000000e+00
3.232112e+03,0.000000e+00
3.235005e+03,0.000000e+00
3.237897e+03,0.000000e+00
3.240790e+03,0.000000e+00
3.243683e+03,0.000000e+00
3.246576e+03,0.000000e+00
3.249468e+03,0.000000e+00
3.252361e+03,0.000000e+00
3.255254e+03,0.000000e+00
3.258146e+03,0.000000e+00
3.261039e+03,0.000000e+00
3.263932e+03,0.000000e+00
3.266824e+03,0.000000e+00
3.269717e+03,0.000000e+00
3.272610e+03,0.000000e+00
3.275503e+03,0.000000e+00
3.278395e+03,0.000000e+00
3.281288e+03,0.000000e+00
3.284181e+03,0.000000e+00
3.287073e+03,0.000000e+00
3.289966e+03,0.000000e+00
3.292859e+03,0.000000e+00
3.295751e+03,0.000000e+00
3.298644e+03,0.000000e+00
3.301537e+03,0.000000e+00
3.304430e+03,0.000000e+00
3.307322e+03,0.000000e+00
3.310215e+03,0.000000e+00
3.313108e+03,0.000000e+00
3.316000e+03,0.000000e+00
3.318893e+03,0.000000e+00
3.321786e+03,0.000000e+00
3.324678e+03,0.000000e+00
3.327571e+03,0.000000e+00
3.330464e+03,0.000000e+00
3.333357e+03,0.000000e+00
3.336249e+03,0.000000e+00
3.339142e+03,0.000000e+00
3.342035e+03,0.000000e+00
3.344927e+03,0.000000e+00
3.347820e+03,0.000000e+00
3.350713e+03,0.000000e+00
3.353605e+03,0.000000e+00
3.356498e+03,0.000000e+00
3.359391e+03,0.000000e+00
3.362284e+03,0.000000e+00
3.365176e+03,0.000000e+00
3.368069e+03,0.000000e+00
3.370962e+03,0.000000e+00
3.373854e+03,0.000000e+00
3.376747e+03,0.000000e+00
3.379640e+03,0.000000e+00
3.382532e+03,0.000000e+00
3.385425e+03,0.000000e+00
3.388318e+03,0.000000e+00
3.391211e+03,0.000000e+00
3.394103e+03,0.000000e+00
3.396996e+03,0.000000e+00
3.399889e+03,0.000000e+00
3.402781e+03,0.000000e+00
3.405674e+03,0.000000e+00
3.408567e+03,0.000000e+00
3.411459e+03,0.000000e+00
3.414352e+03,0.000000e+00
3.417245e+03,0.000000e+00
3.420138e+03,0.000000e+00
3.423030e+03,0.000000e+00
3.425923e+03,0.000000e+00
3.428816e+03,0.000000e+00
3.431708e+03,0.000000e+00
3.434601e+03,0.000000e+00
3.437494e+03,0.000000e+00
3.440386e+03,0.000000e+00
3.443279e+03,0.000000e+00
3.446172e+03,0.000000e+00
3.449065e+03,0.000000e+00
3.451957e+03,0.000000e+00
3.454850e+03,0.000000e+00
3.457743e+03,0.000000e+00
3.460635e+03,0.000000e+00
3.463528e+03,0.000000e+00
3.466421e+03,0.000000e+00
3.469313e+03,0.000000e+00
3.472206e+03,0.000000e+00
3.475099e+03,0.000000e+00
3.477992e+03,0.000000e+00
3.480884e+03,0.000000e+00
3.483777e+03,0.000000e+00
3.486670e+03,0.000000e+00
3.489563e+03,0.000000e+00
3.492455e+03,0.000000e+00
3.495348e+03,0.000000e+00
3.498240e+03,0.000000e+00
3.500169e+03,0.000000e+00