File: RAMAN_data/20012023_r3/black fibre11.CSV
9.931763e+01,0.000000e+00
1.022103e+02,0.000000e+00
1.051030e+02,0.000000e+00
1.079957e+02,0.000000e+00
1.108884e+02,0.000000e+00
1.137811e+02,0.000000e+00
1.166738e+02,0.000000e+00
1.195665e+02,0.000000e+00
1.224592e+02,0.000000e+00
1.253519e+02,0.000000e+00
1.282446e+02,0.000000e+00
1.311373e+02,0.000000e+00
1.340300e+02,0.000000e+00
1.369227e+02,0.000000e+00
1.398154e+02,0.000000e+00
1.427081e+02,0.000000e+00
1.456008e+02,0.000000e+00
1.484935e+02,0.000000e+00
1.513862e+02,0.000000e+00
1.542789e+02,0.000000e+00
1.571716e+02,0.000000e+00
1.600643e+02,0.000000e+00
1.629570e+02,0.000000e+00
1.658497e+02,0.000000e+00
1.687424e+02,0.000000e+00
1.716351e+02,0.000000e+00
1.745278e+02,0.000000e+00
1.774205e+02,0.000000e+00
1.803132e+02,0.000000e+00
1.832059e+02,0.000000e+00
1.860986e+02,0.000000e+00
1.889913e+02,0.000000e+00
1.918840e+02,0.000000e+00
1.947767e+02,0.000000e+00
1.976694e+02,0.000000e+00
2.005621e+02,1.080370e+03
2.034548e+02,1.071704e+03
2.063475e+02,1.078458e+03
2.092402e+02,1.079384e+03
2.121329e+02,1.077584e+03
2.150256e+02,1.082247e+03
2.179183e+02,1.089254e+03
2.208110e+02,1.085780e+03
2.237037e+02,1.089167e+03
2.265964e+02,1.077719e+03
2.294892e+02,1.079602e+03
2.323819e+02,1.085786e+03
2.352746e+02,1.089170e+03
2.381673e+02,1.089001e+03
2.410600e+02,1.078489e+03
2.439527e+02,1.089568e+03
2.468454e+02,1.090990e+03
2.497381e+02,1.096347e+03
2.526308e+02,1.094418e+03
2.555235e+02,1.094038e+03
2.584161e+02,1.096796e+03
2.613088e+02,1.096807e+03
2.642015e+02,1.099568e+03
2.670942e+02,1.108320e+03
2.699869e+02,1.108069e+03
2.728796e+02,1.109322e+03
2.757723e+02,1.102992e+03
2.786650e+02,1.097467e+03
2.815577e+02,1.108609e+03
2.844504e+02,1.114149e+03
2.873431e+02,1.113553e+03
2.902358e+02,1.102614e+03
2.931285e+02,1.108979e+03
2.960212e+02,1.112419e+03
2.989139e+02,1.112872e+03
3.018066e+02,1.121801e+03
3.046993e+02,1.114060e+03
3.075920e+02,1.114977e+03
3.104847e+02,1.107544e+03
3.133774e+02,1.115244e+03
3.162701e+02,1.117922e+03
3.191628e+02,1.116813e+03
3.220555e+02,1.122393e+03
3.249482e+02,1.125886e+03
3.278409e+02,1.122837e+03
3.307336e+02,1.120772e+03
3.336263e+02,1.133029e+03
3.365190e+02,1.122598e+03
3.394117e+02,1.123316e+03
3.423044e+02,1.135654e+03
3.451971e+02,1.131205e+03
3.480898e+02,1.127564e+03
3.509825e+02,1.124243e+03
3.538752e+02,1.128121e+03
3.567680e+02,1.130590e+03
3.596607e+02,1.130129e+03
3.625534e+02,1.128395e+03
3.654461e+02,1.130162e+03
3.683388e+02,1.129707e+03
3.712315e+02,1.129468e+03
3.741242e+02,1.148133e+03
3.770169e+02,1.150801e+03
3.799096e+02,1.152629e+03
3.828023e+02,1.145618e+03
3.856950e+02,1.137484e+03
3.885877e+02,1.129646e+03
3.914804e+02,1.134709e+03
3.943731e+02,1.126714e+03
3.972658e+02,1.128447e+03
4.001585e+02,1.128366e+03
4.030512e+02,1.134111e+03
4.059439e+02,1.131060e+03
4.088366e+02,1.121912e+03
4.117293e+02,1.130281e+03
4.146220e+02,1.128099e+03
4.175147e+02,1.141569e+03
4.204074e+02,1.121368e+03
4.233001e+02,1.128744e+03
4.261928e+02,1.138177e+03
4.290855e+02,1.139955e+03
4.319782e+02,1.143552e+03
4.348709e+02,1.144865e+03
4.377636e+02,1.138517e+03
4.406563e+02,1.142802e+03
4.435490e+02,1.140042e+03
4.464417e+02,1.126182e+03
4.493344e+02,1.138505e+03
4.522271e+02,1.148551e+03
4.551198e+02,1.143144e+03
4.580125e+02,1.142020e+03
4.609052e+02,1.131781e+03
4.637979e+02,1.137771e+03
4.666906e+02,1.130844e+03
4.695833e+02,1.138610e+03
4.724760e+02,1.126589e+03
4.753687e+02,1.138960e+03
4.782614e+02,1.137420e+03
4.811541e+02,1.136290e+03
4.840468e+02,1.138042e+03
4.869395e+02,1.139344e+03
4.898322e+02,1.132516e+03
4.927249e+02,1.127614e+03
4.956176e+02,1.129234e+03
4.985103e+02,1.126486e+03
5.014030e+02,1.132439e+03
5.042957e+02,1.124936e+03
5.071884e+02,1.122570e+03
5.100811e+02,1.121862e+03
5.129738e+02,1.133476e+03
5.158665e+02,1.143602e+03
5.187592e+02,1.138944e+03
5.216519e+02,1.135098e+03
5.245446e+02,1.134365e+03
5.274373e+02,1.132444e+03
5.303300e+02,1.127326e+03
5.332227e+02,1.126532e+03
5.361154e+02,1.127012e+03
5.390081e+02,1.124469e+03
5.419008e+02,1.117183e+03
5.447935e+02,1.128007e+03
5.476862e+02,1.128535e+03
5.505789e+02,1.119541e+03
5.534716e+02,1.122369e+03
5.563643e+02,1.113992e+03
5.592570e+02,1.110672e+03
5.621497e+02,1.124549e+03
5.650424e+02,1.122381e+03
5.679351e+02,1.123801e+03
5.708278e+02,1.124213e+03
5.737205e+02,1.116483e+03
5.766132e+02,1.120514e+03
5.795059e+02,1.117096e+03
5.823986e+02,1.119786e+03
5.852913e+02,1.124553e+03
5.881840e+02,1.117897e+03
5.910767e+02,1.109942e+03
5.939694e+02,1.118390e+03
5.968621e+02,1.120834e+03
5.997548e+02,1.112479e+03
6.026475e+02,1.114748e+03
6.055402e+02,1.122119e+03
6.084329e+02,1.108041e+03
6.113256e+02,1.109761e+03
6.142183e+02,1.117197e+03
6.171110e+02,1.112082e+03
6.200037e+02,1.102405e+03
6.228964e+02,1.115778e+03
6.257891e+02,1.109983e+03
6.286818e+02,1.111932e+03
6.315745e+02,1.107610e+03
6.344672e+02,1.107034e+03
6.373599e+02,1.108061e+03
6.402526e+02,1.117456e+03
6.431453e+02,1.097251e+03
6.460380e+02,1.104140e+03
6.489307e+02,1.105914e+03
6.518234e+02,1.108670e+03
6.547161e+02,1.106109e+03
6.576088e+02,1.105048e+03
6.605015e+02,1.102935e+03
6.633942e+02,1.112872e+03
6.662869e+02,1.110975e+03
6.691796e+02,1.107009e+03
6.720723e+02,1.107364e+03
6.749650e+02,1.102704e+03
6.778577e+02,1.103138e+03
6.807504e+02,1.109493e+03
6.836431e+02,1.101727e+03
6.865358e+02,1.098338e+03
6.894285e+02,1.099576e+03
6.923212e+02,1.103920e+03
6.952139e+02,1.097251e+03
6.981066e+02,1.099847e+03
7.009993e+02,1.091755e+03
7.038920e+02,1.094113e+03
7.067847e+02,1.090005e+03
7.096774e+02,1.091396e+03
7.125701e+02,1.095178e+03
7.154628e+02,1.090406e+03
7.183555e+02,1.088357e+03
7.212482e+02,1.087640e+03
7.241409e+02,1.088425e+03
7.270336e+02,1.087897e+03
7.299263e+02,1.097017e+03
7.328190e+02,1.080158e+03
7.357117e+02,1.089368e+03
7.386044e+02,1.085147e+03
7.414971e+02,1.082185e+03
7.443898e+02,1.077359e+03
7.472825e+02,1.076139e+03
7.501752e+02,1.089738e+03
7.530679e+02,1.076131e+03
7.559606e+02,1.083250e+03
7.588533e+02,1.077923e+03
7.617460e+02,1.070436e+03
7.646387e+02,1.080735e+03
7.675314e+02,1.075978e+03
7.704241e+02,1.077001e+03
7.733168e+02,1.073886e+03
7.762095e+02,1.075237e+03
7.791022e+02,1.064388e+03
7.819949e+02,1.069036e+03
7.848876e+02,1.063250e+03
7.877803e+02,1.061631e+03
7.906730e+02,1.055616e+03
7.935657e+02,1.065603e+03
7.964584e+02,1.054453e+03
7.993511e+02,1.074223e+03
8.022438e+02,1.065182e+03
8.051365e+02,1.068636e+03
8.080292e+02,1.068625e+03
8.109219e+02,1.067692e+03
8.138146e+02,1.054246e+03
8.167073e+02,1.064943e+03
8.196000e+02,1.061150e+03
8.224927e+02,1.066533e+03
8.253854e+02,1.061817e+03
8.282781e+02,1.052138e+03
8.311708e+02,1.055882e+03
8.340635e+02,1.065052e+03
8.369562e+02,1.064977e+03
8.398489e+02,1.054717e+03
8.427416e+02,1.056612e+03
8.456343e+02,1.047391e+03
8.485270e+02,1.045848e+03
8.514197e+02,1.043007e+03
8.543124e+02,1.043411e+03
8.572051e+02,1.054849e+03
8.600978e+02,1.049595e+03
8.629905e+02,1.050600e+03
8.658832e+02,1.053167e+03
8.687759e+02,1.049521e+03
8.716686e+02,1.042092e+03
8.745613e+02,1.055325e+03
8.774540e+02,1.049149e+03
8.803467e+02,1.055681e+03
8.832394e+02,1.059691e+03
8.861321e+02,1.049618e+03
8.890248e+02,1.051243e+03
8.919175e+02,1.043117e+03
8.948102e+02,1.049066e+03
8.977029e+02,1.049450e+03
9.005956e+02,1.046410e+03
9.034883e+02,1.044849e+03
9.063810e+02,1.037218e+03
9.092737e+02,1.031085e+03
9.121664e+02,1.030704e+03
9.150591e+02,1.042542e+03
9.179518e+02,1.042990e+03
9.208445e+02,1.027885e+03
9.237372e+02,1.022877e+03
9.266299e+02,1.035893e+03
9.295226e+02,1.028546e+03
9.324153e+02,1.027545e+03
9.353080e+02,1.022980e+03
9.382007e+02,1.031823e+03
9.410934e+02,1.020539e+03
9.439861e+02,1.017370e+03
9.468788e+02,1.029299e+03
9.497715e+02,1.028731e+03
9.526642e+02,1.021075e+03
9.555569e+02,1.019990e+03
9.584496e+02,1.014155e+03
9.613423e+02,1.016028e+03
9.642350e+02,1.023056e+03
9.671277e+02,1.022924e+03
9.700204e+02,1.018517e+03
9.729131e+02,1.011893e+03
9.758058e+02,1.017317e+03
9.786985e+02,1.020545e+03
9.815912e+02,1.008917e+03
9.844839e+02,1.015736e+03
9.873766e+02,1.021908e+03
9.902693e+02,1.018445e+03
9.931620e+02,1.019811e+03
9.960547e+02,1.012593e+03
9.989474e+02,1.017605e+03
1.001840e+03,1.006666e+03
1.004733e+03,1.007585e+03
1.007626e+03,1.006295e+03
1.010518e+03,1.010222e+03
1.013411e+03,9.995964e+02
1.016304e+03,9.929222e+02
1.019196e+03,1.000238e+03
1.022089e+03,9.990160e+02
1.024982e+03,1.002197e+03
1.027875e+03,1.002412e+03
1.030767e+03,9.977357e+02
1.033660e+03,1.004546e+03
1.036552e+03,1.007148e+03
1.039445e+03,1.005503e+03
1.042338e+03,1.006037e+03
1.045231e+03,9.974617e+02
1.048123e+03,1.003326e+03
1.051016e+03,1.008766e+03
1.053909e+03,1.007370e+03
1.056802e+03,1.005432e+03
1.059694e+03,1.006772e+03
1.062587e+03,1.014930e+03
1.065479e+03,1.005570e+03
1.068372e+03,9.990470e+02
1.071265e+03,1.001551e+03
1.074158e+03,9.962908e+02
1.077050e+03,1.006333e+03
1.079943e+03,9.978545e+02
1.082836e+03,1.004567e+03
1.085729e+03,1.013801e+03
1.088621e+03,1.019135e+03
1.091514e+03,1.023344e+03
1.094406e+03,1.016511e+03
1.097299e+03,1.015802e+03
1.100192e+03,1.022380e+03
1.103085e+03,1.006997e+03
1.105977e+03,1.002253e+03
1.108870e+03,9.973623e+02
1.111763e+03,1.005563e+03
1.114656e+03,1.006272e+03
1.117548e+03,1.010476e+03
1.120441e+03,9.965234e+02
1.123334e+03,1.008027e+03
1.126226e+03,9.900965e+02
1.129119e+03,9.963082e+02
1.132012e+03,9.992614e+02
1.134904e+03,9.854055e+02
1.137797e+03,9.905147e+02
1.140690e+03,9.904899e+02
1.143583e+03,9.844382e+02
1.146475e+03,9.829910e+02
1.149368e+03,9.913295e+02
1.152261e+03,9.858453e+02
1.155153e+03,9.871171e+02
1.158046e+03,9.821851e+02
1.160939e+03,9.704099e+02
1.163831e+03,9.873297e+02
1.166724e+03,9.790910e+02
1.169617e+03,9.646144e+02
1.172510e+03,9.792161e+02
1.175402e+03,9.775680e+02
1.178295e+03,9.754583e+02
1.181188e+03,9.825740e+02
1.184080e+03,9.756096e+02
1.186973e+03,9.703033e+02
1.189866e+03,9.698422e+02
1.192758e+03,9.686661e+02
1.195651e+03,9.724072e+02
1.198544e+03,9.724252e+02
1.201437e+03,9.794131e+02
1.204329e+03,9.665495e+02
1.207222e+03,9.710055e+02
1.210115e+03,9.734102e+02
1.213007e+03,9.772394e+02
1.215900e+03,9.727574e+02
1.218793e+03,9.735057e+02
1.221685e+03,9.731984e+02
1.224578e+03,9.728289e+02
1.227471e+03,9.831396e+02
1.230364e+03,9.769609e+02
1.233256e+03,9.695323e+02
1.236149e+03,9.769678e+02
1.239042e+03,9.777708e+02
1.241934e+03,9.781331e+02
1.244827e+03,9.791152e+02
1.247720e+03,9.734688e+02
1.250612e+03,9.818109e+02
1.253505e+03,9.777108e+02
1.256398e+03,9.750764e+02
1.259291e+03,9.784240e+02
1.262183e+03,9.712391e+02
1.265076e+03,9.779791e+02
1.267969e+03,9.721256e+02
1.270861e+03,9.806250e+02
1.273754e+03,9.759264e+02
1.276647e+03,9.764960e+02
1.279539e+03,9.912844e+02
1.282432e+03,9.766168e+02
1.285325e+03,9.872504e+02
1.288218e+03,9.754574e+02
1.291110e+03,9.847455e+02
1.294003e+03,9.838333e+02
1.296896e+03,9.731711e+02
1.299788e+03,9.728337e+02
1.302681e+03,9.804248e+02
1.305574e+03,9.838564e+02
1.308466e+03,9.812684e+02
1.311359e+03,9.801343e+02
1.314252e+03,9.881212e+02
1.317145e+03,9.957279e+02
1.320037e+03,9.876299e+02
1.322930e+03,9.934541e+02
1.325823e+03,9.941702e+02
1.328715e+03,9.874758e+02
1.331608e+03,9.907120e+02
1.334501e+03,9.957241e+02
1.337393e+03,9.983773e+02
1.340286e+03,9.903877e+02
1.343179e+03,9.893349e+02
1.346072e+03,9.968334e+02
1.348964e+03,9.942438e+02
1.351857e+03,9.928185e+02
1.354750e+03,9.973675e+02
1.357642e+03,9.985751e+02
1.360535e+03,1.001723e+03
1.363428e+03,1.006207e+03
1.366320e+03,9.960740e+02
1.369213e+03,1.005887e+03
1.372106e+03,1.001739e+03
1.374999e+03,9.961733e+02
1.377891e+03,1.001108e+03
1.380784e+03,9.945265e+02
1.383677e+03,9.930710e+02
1.386569e+03,9.935516e+02
1.389462e+03,9.849666e+02
1.392355e+03,9.914437e+02
1.395247e+03,9.854728e+02
1.398140e+03,9.885505e+02
1.401033e+03,9.830995e+02
1.403926e+03,9.841891e+02
1.406818e+03,9.842894e+02
1.409711e+03,9.808111e+02
1.412604e+03,9.764658e+02
1.415496e+03,9.788116e+02
1.418389e+03,9.724976e+02
1.421282e+03,9.834213e+02
1.424174e+03,9.781406e+02
1.427067e+03,9.797589e+02
1.429960e+03,9.653503e+02
1.432853e+03,9.715096e+02
1.435745e+03,9.653837e+02
1.438638e+03,9.731591e+02
1.441531e+03,9.712589e+02
1.444423e+03,9.674910e+02
1.447316e+03,9.697976e+02
1.450209e+03,9.688875e+02
1.453101e+03,9.652526e+02
1.455994e+03,9.622672e+02
1.458887e+03,9.646183e+02
1.461780e+03,9.561224e+02
1.464672e+03,9.643661e+02
1.467565e+03,9.612487e+02
1.470458e+03,9.597573e+02
1.473350e+03,9.649988e+02
1.476243e+03,9.733858e+02
1.479136e+03,9.648242e+02
1.482028e+03,9.500893e+02
1.484921e+03,9.533113e+02
1.487814e+03,9.683480e+02
1.490707e+03,9.540104e+02
1.493599e+03,9.450444e+02
1.496492e+03,9.512981e+02
1.499385e+03,9.409563e+02
1.502277e+03,9.533663e+02
1.505170e+03,9.483138e+02
1.508063e+03,9.586010e+02
1.510955e+03,9.441443e+02
1.513848e+03,9.436410e+02
1.516741e+03,9.546172e+02
1.519634e+03,9.419981e+02
1.522526e+03,9.396674e+02
1.525419e+03,9.421081e+02
1.528312e+03,9.380148e+02
1.531204e+03,9.503937e+02
1.534097e+03,9.503871e+02
1.536990e+03,9.463381e+02
1.539882e+03,9.419180e+02
1.542775e+03,9.403984e+02
1.545668e+03,9.380584e+02
1.548561e+03,9.421580e+02
1.551453e+03,9.385027e+02
1.554346e+03,9.332161e+02
1.557239e+03,9.351522e+02
1.560131e+03,9.235497e+02
1.563024e+03,9.299457e+02
1.565917e+03,9.256779e+02
1.568809e+03,9.316710e+02
1.571702e+03,9.251032e+02
1.574595e+03,9.145579e+02
1.577488e+03,9.346066e+02
1.580380e+03,9.240701e+02
1.583273e+03,9.248190e+02
1.586166e+03,9.213525e+02
1.589058e+03,9.235361e+02
1.591951e+03,9.152551e+02
1.594844e+03,9.041593e+02
1.597736e+03,9.130518e+02
1.600629e+03,9.108253e+02
1.603522e+03,9.106415e+02
1.606415e+03,9.110678e+02
1.609307e+03,9.135447e+02
1.612200e+03,9.184336e+02
1.615093e+03,9.156823e+02
1.617985e+03,8.986330e+02
1.620878e+03,9.059445e+02
1.623771e+03,8.880583e+02
1.626663e+03,9.016015e+02
1.629556e+03,8.958284e+02
1.632449e+03,9.047580e+02
1.635342e+03,9.012770e+02
1.638234e+03,8.982922e+02
1.641127e+03,8.985143e+02
1.644020e+03,8.857092e+02
1.646912e+03,8.914224e+02
1.649805e+03,8.853216e+02
1.652698e+03,8.898311e+02
1.655590e+03,8.883599e+02
1.658483e+03,8.812217e+02
1.661376e+03,8.804576e+02
1.664269e+03,8.793552e+02
1.667161e+03,8.906619e+02
1.670054e+03,8.785120e+02
1.672947e+03,8.718096e+02
1.675839e+03,8.842657e+02
1.678732e+03,8.705933e+02
1.681625e+03,8.720662e+02
1.684517e+03,8.844492e+02
1.687410e+03,8.765123e+02
1.690303e+03,8.762039e+02
1.693196e+03,8.662094e+02
1.696088e+03,8.678487e+02
1.698981e+03,8.593747e+02
1.701874e+03,8.742097e+02
1.704766e+03,8.765526e+02
1.707659e+03,8.678200e+02
1.710552e+03,8.749351e+02
1.713444e+03,8.603878e+02
1.716337e+03,8.725321e+02
1.719230e+03,8.683407e+02
1.722123e+03,8.675034e+02
1.725015e+03,8.622289e+02
1.727908e+03,8.420594e+02
1.730801e+03,8.757411e+02
1.733693e+03,8.695020e+02
1.736586e+03,8.657092e+02
1.739479e+03,8.586761e+02
1.742371e+03,8.602282e+02
1.745264e+03,8.610587e+02
1.748157e+03,8.546252e+02
1.751050e+03,8.568587e+02
1.753942e+03,8.527337e+02
1.756835e+03,8.482578e+02
1.759728e+03,8.543226e+02
1.762620e+03,8.549017e+02
1.765513e+03,8.493925e+02
1.768406e+03,8.527005e+02
1.771298e+03,8.482517e+02
1.774191e+03,8.431382e+02
1.777084e+03,8.456329e+02
1.779977e+03,8.435560e+02
1.782869e+03,8.424274e+02
1.785762e+03,8.379549e+02
1.788655e+03,8.303530e+02
1.791547e+03,8.415546e+02
1.794440e+03,8.456091e+02
1.797333e+03,8.285280e+02
1.800225e+03,8.445377e+02
1.803118e+03,8.288644e+02
1.806011e+03,8.338888e+02
1.808904e+03,8.349641e+02
1.811796e+03,8.350260e+02
1.814689e+03,8.345345e+02
1.817582e+03,8.395447e+02
1.820474e+03,8.407159e+02
1.823367e+03,8.291708e+02
1.826260e+03,8.325418e+02
1.829152e+03,8.232205e+02
1.832045e+03,8.297222e+02
1.834938e+03,8.263820e+02
1.837831e+03,8.217336e+02
1.840723e+03,8.322122e+02
1.843616e+03,8.252653e+02
1.846509e+03,8.309908e+02
1.849401e+03,8.232015e+02
1.852294e+03,8.208398e+02
1.855187e+03,8.105549e+02
1.858079e+03,8.150636e+02
1.860972e+03,8.190515e+02
1.863865e+03,8.230242e+02
1.866758e+03,8.168923e+02
1.869650e+03,8.122396e+02
1.872543e+03,8.083176e+02
1.875436e+03,8.233512e+02
1.878328e+03,8.067864e+02
1.881221e+03,8.130916e+02
1.884114e+03,8.096736e+02
1.887006e+03,7.992852e+02
1.889899e+03,8.102506e+02
1.892792e+03,8.131365e+02
1.895685e+03,8.026149e+02
1.898577e+03,8.006168e+02
1.901470e+03,8.018393e+02
1.904363e+03,7.918009e+02
1.907255e+03,8.034863e+02
1.910148e+03,8.012252e+02
1.913041e+03,8.110538e+02
1.915933e+03,8.025075e+02
1.918826e+03,7.993443e+02
1.921719e+03,7.962480e+02
1.924612e+03,7.908415e+02
1.927504e+03,7.956996e+02
1.930397e+03,8.006512e+02
1.933290e+03,7.968568e+02
1.936182e+03,7.918412e+02
1.939075e+03,7.791363e+02
1.941968e+03,7.838701e+02
1.944860e+03,7.838256e+02
1.947753e+03,7.812189e+02
1.950646e+03,7.909907e+02
1.953539e+03,7.837841e+02
1.956431e+03,7.842720e+02
1.959324e+03,7.731589e+02
1.962217e+03,7.874539e+02
1.965109e+03,7.848451e+02
1.968002e+03,7.875936e+02
1.970895e+03,7.777460e+02
1.973787e+03,7.778368e+02
1.976680e+03,7.732560e+02
1.979573e+03,7.880497e+02
1.982466e+03,7.743369e+02
1.985358e+03,7.719319e+02
1.988251e+03,7.751677e+02
1.991144e+03,7.630655e+02
1.994036e+03,7.716746e+02
1.996929e+03,7.635852e+02
1.999822e+03,7.662763e+02
2.002714e+03,7.628615e+02
2.005607e+03,7.683472e+02
2.008500e+03,7.588591e+02
2.011393e+03,7.678577e+02
2.014285e+03,7.749688e+02
2.017178e+03,7.652881e+02
2.020071e+03,7.561249e+02
2.022963e+03,7.525599e+02
2.025856e+03,7.613848e+02
2.028749e+03,7.550142e+02
2.031641e+03,7.482688e+02
2.034534e+03,7.511907e+02
2.037427e+03,7.468010e+02
2.040320e+03,7.555598e+02
2.043212e+03,7.409153e+02
2.046105e+03,7.448012e+02
2.048998e+03,7.547421e+02
2.051890e+03,7.467870e+02
2.054783e+03,7.550305e+02
2.057676e+03,7.432974e+02
2.060568e+03,7.420667e+02
2.063461e+03,7.445926e+02
2.066354e+03,7.447105e+02
2.069247e+03,7.332463e+02
2.072139e+03,7.376740e+02
2.075032e+03,7.366825e+02
2.077925e+03,7.335632e+02
2.080817e+03,7.434361e+02
2.083710e+03,7.335100e+02
2.086603e+03,7.321479e+02
2.089496e+03,7.399601e+02
2.092388e+03,7.315754e+02
2.095281e+03,7.365061e+02
2.098174e+03,7.354806e+02
2.101066e+03,7.325843e+02
2.103959e+03,7.272819e+02
2.106852e+03,7.173887e+02
2.109744e+03,7.154122e+02
2.112637e+03,7.183671e+02
2.115530e+03,7.057578e+02
2.118422e+03,7.194108e+02
2.121315e+03,7.406385e+02
2.124208e+03,7.263559e+02
2.127101e+03,7.196593e+02
2.129993e+03,7.151901e+02
2.132886e+03,7.192001e+02
2.135779e+03,7.052045e+02
2.138671e+03,7.196293e+02
2.141564e+03,7.055812e+02
2.144457e+03,7.143658e+02
2.147350e+03,7.049149e+02
2.150242e+03,7.021114e+02
2.153135e+03,6.966730e+02
2.156028e+03,7.159977e+02
2.158920e+03,6.978467e+02
2.161813e+03,7.049418e+02
2.164706e+03,6.965055e+02
2.167598e+03,7.065356e+02
2.170491e+03,7.047018e+02
2.173384e+03,7.060658e+02
2.176277e+03,6.976944e+02
2.179169e+03,7.044786e+02
2.182062e+03,7.069704e+02
2.184955e+03,7.104771e+02
2.187847e+03,6.888434e+02
2.190740e+03,7.011740e+02
2.193633e+03,6.974777e+02
2.196525e+03,6.955999e+02
2.199418e+03,6.788627e+02
2.202311e+03,6.923061e+02
2.205204e+03,6.975865e+02
2.208096e+03,6.795602e+02
2.210989e+03,6.808359e+02
2.213882e+03,6.873503e+02
2.216774e+03,6.793043e+02
2.219667e+03,6.886192e+02
2.222560e+03,6.840574e+02
2.225452e+03,6.818204e+02
2.228345e+03,6.853087e+02
2.231238e+03,6.797897e+02
2.234131e+03,6.745334e+02
2.237023e+03,6.848508e+02
2.239916e+03,6.839435e+02
2.242809e+03,6.734591e+02
2.245701e+03,6.668625e+02
2.248594e+03,6.697823e+02
2.251487e+03,6.664828e+02
2.254379e+03,6.824171e+02
2.257272e+03,6.661891e+02
2.260165e+03,6.648697e+02
2.263058e+03,6.685311e+02
2.265950e+03,6.676618e+02
2.268843e+03,6.664193e+02
2.271736e+03,6.631945e+02
2.274628e+03,6.533080e+02
2.277521e+03,6.592634e+02
2.280414e+03,6.620143e+02
2.283306e+03,6.559378e+02
2.286199e+03,6.575494e+02
2.289092e+03,6.512543e+02
2.291985e+03,6.567804e+02
2.294877e+03,6.576037e+02
2.297770e+03,6.491696e+02
2.300663e+03,6.568293e+02
2.303555e+03,6.403120e+02
2.306448e+03,6.503845e+02
2.309341e+03,6.516407e+02
2.312233e+03,6.503466e+02
2.315126e+03,6.498738e+02
2.318019e+03,6.477741e+02
2.320912e+03,6.408231e+02
2.323804e+03,6.380544e+02
2.326697e+03,6.502346e+02
2.329590e+03,6.418010e+02
2.332482e+03,6.450401e+02
2.335375e+03,6.481456e+02
2.338268e+03,6.375386e+02
2.341160e+03,6.388076e+02
2.344053e+03,6.372926e+02
2.346946e+03,6.369590e+02
2.349839e+03,6.542086e+02
2.352731e+03,6.404716e+02
2.355624e+03,6.465922e+02
2.358517e+03,6.398487e+02
2.361409e+03,6.529013e+02
2.364302e+03,6.350231e+02
2.367195e+03,6.218709e+02
2.370087e+03,6.367678e+02
2.372980e+03,6.325898e+02
2.375873e+03,6.301868e+02
2.378766e+03,6.313204e+02
2.381658e+03,6.317598e+02
2.384551e+03,6.244017e+02
2.387444e+03,6.312325e+02
2.390336e+03,6.360627e+02
2.393229e+03,6.312238e+02
2.396122e+03,6.260785e+02
2.399014e+03,6.126473e+02
2.401907e+03,6.292992e+02
2.404800e+03,6.273942e+02
2.407693e+03,6.219416e+02
2.410585e+03,6.249525e+02
2.413478e+03,6.272618e+02
2.416371e+03,6.172628e+02
2.419263e+03,6.210187e+02
2.422156e+03,6.154420e+02
2.425049e+03,6.213262e+02
2.427941e+03,6.190402e+02
2.430834e+03,6.223359e+02
2.433727e+03,6.080911e+02
2.436620e+03,6.215711e+02
2.439512e+03,6.118053e+02
2.442405e+03,6.169036e+02
2.445298e+03,6.066179e+02
2.448190e+03,6.081532e+02
2.451083e+03,6.144902e+02
2.453976e+03,6.094744e+02
2.456868e+03,6.072816e+02
2.459761e+03,6.042459e+02
2.462654e+03,6.038387e+02
2.465547e+03,6.025029e+02
2.468439e+03,5.953369e+02
2.471332e+03,6.079521e+02
2.474225e+03,5.974880e+02
2.477117e+03,6.102299e+02
2.480010e+03,6.147121e+02
2.482903e+03,6.067752e+02
2.485795e+03,6.112446e+02
2.488688e+03,6.041550e+02
2.491581e+03,6.074610e+02
2.494474e+03,5.781003e+02
2.497366e+03,6.042960e+02
2.500259e+03,6.056533e+02
2.503152e+03,5.975154e+02
2.506044e+03,6.049872e+02
2.508937e+03,5.998328e+02
2.511830e+03,5.992266e+02
2.514722e+03,5.880602e+02
2.517615e+03,5.974929e+02
2.520508e+03,5.934816e+02
2.523401e+03,5.992180e+02
2.526293e+03,5.849769e+02
2.529186e+03,5.838766e+02
2.532079e+03,6.030795e+02
2.534971e+03,5.918531e+02
2.537864e+03,5.847808e+02
2.540757e+03,5.918126e+02
2.543649e+03,5.911769e+02
2.546542e+03,6.002835e+02
2.549435e+03,5.997836e+02
2.552328e+03,5.883497e+02
2.555220e+03,5.868487e+02
2.558113e+03,5.885970e+02
2.561006e+03,6.025195e+02
2.563898e+03,5.937385e+02
2.566791e+03,5.838837e+02
2.569684e+03,5.809747e+02
2.572576e+03,5.920344e+02
2.575469e+03,5.910549e+02
2.578362e+03,5.886779e+02
2.581255e+03,5.850402e+02
2.584147e+03,5.747825e+02
2.587040e+03,5.829649e+02
2.589933e+03,5.785604e+02
2.592825e+03,5.765350e+02
2.595718e+03,5.726081e+02
2.598611e+03,5.742315e+02
2.601503e+03,5.623389e+02
2.604396e+03,5.676564e+02
2.607289e+03,5.744191e+02
2.610182e+03,5.775129e+02
2.613074e+03,5.708636e+02
2.615967e+03,5.748555e+02
2.618860e+03,5.666809e+02
2.621752e+03,5.694263e+02
2.624645e+03,5.678800e+02
2.627538e+03,5.718820e+02
2.630430e+03,5.769123e+02
2.633323e+03,5.699662e+02
2.636216e+03,5.740367e+02
2.639109e+03,5.748819e+02
2.642001e+03,5.632692e+02
2.644894e+03,5.746984e+02
2.647787e+03,5.736324e+02
2.650679e+03,5.737249e+02
2.653572e+03,5.561771e+02
2.656465e+03,5.562758e+02
2.659357e+03,5.762193e+02
2.662250e+03,5.653893e+02
2.665143e+03,5.752846e+02
2.668036e+03,5.683138e+02
2.670928e+03,5.680966e+02
2.673821e+03,5.645536e+02
2.676714e+03,5.576514e+02
2.679606e+03,5.634755e+02
2.682499e+03,5.653085e+02
2.685392e+03,5.613828e+02
2.688284e+03,5.600723e+02
2.691177e+03,5.709919e+02
2.694070e+03,5.581735e+02
2.696963e+03,5.553383e+02
2.699855e+03,5.491599e+02
2.702748e+03,5.600681e+02
2.705641e+03,5.584900e+02
2.708533e+03,5.437825e+02
2.711426e+03,5.455840e+02
2.714319e+03,5.493178e+02
2.717211e+03,5.535387e+02
2.720104e+03,5.570354e+02
2.722997e+03,5.569094e+02
2.725890e+03,5.655967e+02
2.728782e+03,5.580922e+02
2.731675e+03,5.517209e+02
2.734568e+03,5.467877e+02
2.737460e+03,5.352037e+02
2.740353e+03,5.474978e+02
2.743246e+03,5.486375e+02
2.746138e+03,5.409825e+02
2.749031e+03,5.609500e+02
2.751924e+03,5.464932e+02
2.754817e+03,5.587957e+02
2.757709e+03,5.429622e+02
2.760602e+03,5.505938e+02
2.763495e+03,5.521890e+02
2.766387e+03,5.468860e+02
2.769280e+03,5.550164e+02
2.772173e+03,5.452766e+02
2.775065e+03,5.322128e+02
2.777958e+03,5.523430e+02
2.780851e+03,5.535969e+02
2.783744e+03,5.540212e+02
2.786636e+03,5.560638e+02
2.789529e+03,5.315877e+02
2.792422e+03,5.653134e+02
2.795314e+03,5.399240e+02
2.798207e+03,5.412313e+02
2.801100e+03,5.407669e+02
2.803992e+03,5.356141e+02
2.806885e+03,5.262150e+02
2.809778e+03,5.595141e+02
2.812671e+03,5.380441e+02
2.815563e+03,5.187009e+02
2.818456e+03,5.239145e+02
2.821349e+03,5.273415e+02
2.824241e+03,5.474953e+02
2.827134e+03,5.395762e+02
2.830027e+03,5.247789e+02
2.832919e+03,5.382191e+02
2.835812e+03,5.404426e+02
2.838705e+03,5.291085e+02
2.841598e+03,5.394590e+02
2.844490e+03,5.388179e+02
2.847383e+03,5.426488e+02
2.850276e+03,5.356705e+02
2.853168e+03,5.356695e+02
2.856061e+03,5.507978e+02
2.858954e+03,5.526074e+02
2.861846e+03,5.396371e+02
2.864739e+03,5.385131e+02
2.867632e+03,5.479022e+02
2.870525e+03,5.528261e+02
2.873417e+03,5.376551e+02
2.876310e+03,5.505026e+02
2.879203e+03,5.440842e+02
2.882095e+03,5.443325e+02
2.884988e+03,5.437425e+02
2.887881e+03,5.487272e+02
2.890773e+03,5.523776e+02
2.893666e+03,5.594501e+02
2.896559e+03,5.370845e+02
2.899452e+03,5.505530e+02
2.902344e+03,5.563614e+02
2.905237e+03,5.339026e+02
2.908130e+03,5.518965e+02
2.911022e+03,5.380781e+02
2.913915e+03,5.194346e+02
2.916808e+03,5.430006e+02
2.919700e+03,5.327147e+02
2.922593e+03,5.284447e+02
2.925486e+03,5.258849e+02
2.928379e+03,5.105293e+02
2.931271e+03,5.389016e+02
2.934164e+03,5.424720e+02
2.937057e+03,5.275593e+02
2.939949e+03,5.221083e+02
2.942842e+03,5.018382e+02
2.945735e+03,5.243159e+02
2.948627e+03,5.094626e+02
2.951520e+03,5.260488e+02
2.954413e+03,5.193862e+02
2.957306e+03,5.529512e+02
2.960198e+03,5.279406e+02
2.963091e+03,5.134736e+02
2.965984e+03,5.030361e+02
2.968876e+03,5.194943e+02
2.971769e+03,5.256642e+02
2.974662e+03,5.056690e+02
2.977554e+03,5.038047e+02
2.980447e+03,5.186080e+02
2.983340e+03,5.001767e+02
2.986233e+03,5.029277e+02
2.989125e+03,4.909455e+02
2.992018e+03,4.971374e+02
2.994911e+03,4.927182e+02
2.997803e+03,5.220048e+02
3.000696e+03,5.114103e+02
3.003589e+03,5.047009e+02
3.006481e+03,5.127191e+02
3.009374e+03,4.962553e+02
3.012267e+03,5.061425e+02
3.015160e+03,5.110796e+02
3.018052e+03,4.711610e+02
3.020945e+03,4.905671e+02
3.023838e+03,4.911592e+02
3.026730e+03,4.947764e+02
3.029623e+03,4.933404e+02
3.032516e+03,4.866013e+02
3.035408e+03,4.811016e+02
3.038301e+03,4.901129e+02
3.041194e+03,4.825291e+02
3.044087e+03,4.830461e+02
3.046979e+03,4.867386e+02
3.049872e+03,4.821333e+02
3.052765e+03,4.975951e+02
3.055657e+03,4.950637e+02
3.058550e+03,5.081727e+02
3.061443e+03,4.982294e+02
3.064335e+03,4.799963e+02
3.067228e+03,4.790226e+02
3.070121e+03,4.882639e+02
3.073014e+03,4.720967e+02
3.075906e+03,4.732054e+02
3.078799e+03,5.032044e+02
3.081692e+03,4.882646e+02
3.084584e+03,4.867519e+02
3.087477e+03,4.827558e+02
3.090370e+03,4.886340e+02
3.093262e+03,4.663255e+02
3.096155e+03,4.736776e+02
3.099048e+03,4.833842e+02
3.101941e+03,4.847448e+02
3.104833e+03,4.698522e+02
3.107726e+03,4.786416e+02
3.110619e+03,4.775824e+02
3.113511e+03,4.984521e+02
3.116404e+03,4.808931e+02
3.119297e+03,4.765314e+02
3.122189e+03,4.836164e+02
3.125082e+03,4.700523e+02
3.127975e+03,4.831984e+02
3.130868e+03,4.587007e+02
3.133760e+03,5.143748e+02
3.136653e+03,4.774100e+02
3.139546e+03,4.903488e+02
3.142438e+03,4.826172e+02
3.145331e+03,4.721387e+02
3.148224e+03,4.995110e+02
3.151116e+03,4.975913e+02
3.154009e+03,4.662076e+02
3.156902e+03,4.883910e+02
3.159795e+03,4.740882e+02
3.162687e+03,4.789338e+02
3.165580e+03,4.881836e+02
3.168473e+03,4.844214e+02
3.171365e+03,4.852940e+02
3.174258e+03,4.638911e+02
3.177151e+03,4.814873e+02
3.180043e+03,4.577860e+02
3.182936e+03,4.966515e+02
3.185829e+03,5.129415e+02
3.188722e+03,4.265576e+02
3.191614e+03,5.165031e+02
3.194507e+03,5.034763e+02
3.197400e+03,4.572226e+02
3.200292e+03,5.015397e+02
3.203185e+03,0.000000e+00
3.206078e+03,0.000000e+00
3.208970e+03,0.000000e+00
3.211863e+03,0.000000e+00
3.214756e+03,0.000000e+00
3.217649e+03,0.000000e+00
3.220541e+03,0.000000e+00
3.223434e+03,0.000000e+00
3.226327e+03,0.000000e+00
3.229219e+03,0.000000e+00
3.232112e+03,0.000000e+00
3.235005e+03,0.000000e+00
3.237897e+03,0.000000e+00
3.240790e+03,0.000000e+00
3.243683e+03,0.000000e+00
3.246576e+03,0.000000e+00
3.249468e+03,0.000000e+00
3.252361e+03,0.000000e+00
3.255254e+03,0.000000e+00
3.258146e+03,0.000000e+00
3.261039e+03,0.000000e+00
3.263932e+03,0.000000e+00
3.266824e+03,0.000000e+00
3.269717e+03,0.000000e+00
3.272610e+03,0.000000e+00
3.275503e+03,0.000000e+00
3.278395e+03,0.000000e+00
3.281288e+03,0.000000e+00
3.284181e+03,0.000000e+00
3.287073e+03,0.000000e+00
3.289966e+03,0.000000e+00
3.292859e+03,0.000000e+00
3.295751e+03,0.000000e+00
3.298644e+03,0.000000e+00
3.301537e+03,0.000000e+00
3.304430e+03,0.000000e+00
3.307322e+03,0.000000e+00
3.310215e+03,0.000000e+00
3.313108e+03,0.000000e+00
3.316000e+03,0.000000e+00
3.318893e+03,0.000000e+00
3.321786e+03,0.000000e+00
3.324678e+03,0.000000e+00
3.327571e+03,0.000000e+00
3.330464e+03,0.000000e+00
3.333357e+03,0.000000e+00
3.336249e+03,0.000000e+00
3.339142e+03,0.000000e+00
3.342035e+03,0.000000e+00
3.344927e+03,0.000000e+00
3.347820e+03,0.000000e+00
3.350713e+03,0.000000e+00
3.353605e+03,0.000000e+00
3.356498e+03,0.000000e+00
3.359391e+03,0.000000e+00
3.362284e+03,0.000000e+00
3.365176e+03,0.000000e+00
3.368069e+03,0.000000e+00
3.370962e+03,0.000000e+00
3.373854e+03,0.000000e+00
3.376747e+03,0.000000e+00
3.379640e+03,0.000000e+00
3.382532e+03,0.000000e+00
3.385425e+03,0.000000e+00
3.388318e+03,0.000000e+00
3.391211e+03,0.000000e+00
3.394103e+03,0.000000e+00
3.396996e+03,0.000000e+00
3.399889e+03,0.000000e+00
3.402781e+03,0.000000e+00
3.405674e+03,0.000000e+00
3.408567e+03,0.000000e+00
3.411459e+03,0.000000e+00
3.414352e+03,0.000000e+00
3.417245e+03,0.000000e+00
3.420138e+03,0.000000e+00
3.423030e+03,0.000000e+00
3.425923e+03,0.000000e+00
3.428816e+03,0.000000e+00
3.431708e+03,0.000000e+00
3.434601e+03,0.000000e+00
3.437494e+03,0.000000e+00
3.440386e+03,0.000000e+00
3.443279e+03,0.000000e+00
3.446172e+03,0.000000e+00
3.449065e+03,0.000000e+00
3.451957e+03,0.000000e+00
3.454850e+03,0.000000e+00
3.457743e+03,0.000000e+00
3.460635e+03,0.000000e+00
3.463528e+03,0.000000e+00
3.466421e+03,0.000000e+00
3.469313e+03,0.000000e+00
3.472206e+03,0.000000e+00
3.475099e+03,0.000000e+00
3.477992e+03,0.000000e+00
3.480884e+03,0.000000e+00
3.483777e+03,0.000000e+00
3.486670e+03,0.000000e+00
3.489563e+03,0.000000e+00
3.492455e+03,0.000000e+00
3.495348e+03,0.000000e+00
3.498240e+03,0.000000e+00
3.500169e+03,0.000000e+00