File: RAMAN_data/20012023_r3/black fibre5.CSV
9.931763e+01,0.000000e+00
1.022103e+02,0.000000e+00
1.051030e+02,0.000000e+00
1.079957e+02,0.000000e+00
1.108884e+02,0.000000e+00
1.137811e+02,0.000000e+00
1.166738e+02,0.000000e+00
1.195665e+02,0.000000e+00
1.224592e+02,0.000000e+00
1.253519e+02,0.000000e+00
1.282446e+02,0.000000e+00
1.311373e+02,0.000000e+00
1.340300e+02,0.000000e+00
1.369227e+02,0.000000e+00
1.398154e+02,0.000000e+00
1.427081e+02,0.000000e+00
1.456008e+02,0.000000e+00
1.484935e+02,0.000000e+00
1.513862e+02,0.000000e+00
1.542789e+02,0.000000e+00
1.571716e+02,0.000000e+00
1.600643e+02,0.000000e+00
1.629570e+02,0.000000e+00
1.658497e+02,0.000000e+00
1.687424e+02,0.000000e+00
1.716351e+02,0.000000e+00
1.745278e+02,0.000000e+00
1.774205e+02,0.000000e+00
1.803132e+02,0.000000e+00
1.832059e+02,0.000000e+00
1.860986e+02,0.000000e+00
1.889913e+02,0.000000e+00
1.918840e+02,0.000000e+00
1.947767e+02,0.000000e+00
1.976694e+02,0.000000e+00
2.005621e+02,1.344470e+03
2.034548e+02,1.351751e+03
2.063475e+02,1.350200e+03
2.092402e+02,1.345963e+03
2.121329e+02,1.352758e+03
2.150256e+02,1.346486e+03
2.179183e+02,1.338517e+03
2.208110e+02,1.351002e+03
2.237037e+02,1.344983e+03
2.265964e+02,1.334214e+03
2.294892e+02,1.334851e+03
2.323819e+02,1.344028e+03
2.352746e+02,1.348578e+03
2.381673e+02,1.343427e+03
2.410600e+02,1.341269e+03
2.439527e+02,1.340020e+03
2.468454e+02,1.349001e+03
2.497381e+02,1.358319e+03
2.526308e+02,1.345513e+03
2.555235e+02,1.351427e+03
2.584161e+02,1.343005e+03
2.613088e+02,1.350602e+03
2.642015e+02,1.350371e+03
2.670942e+02,1.353080e+03
2.699869e+02,1.351799e+03
2.728796e+02,1.353822e+03
2.757723e+02,1.357806e+03
2.786650e+02,1.353157e+03
2.815577e+02,1.363652e+03
2.844504e+02,1.337301e+03
2.873431e+02,1.354377e+03
2.902358e+02,1.360257e+03
2.931285e+02,1.362976e+03
2.960212e+02,1.358295e+03
2.989139e+02,1.354200e+03
3.018066e+02,1.360998e+03
3.046993e+02,1.362768e+03
3.075920e+02,1.364897e+03
3.104847e+02,1.360093e+03
3.133774e+02,1.360749e+03
3.162701e+02,1.354114e+03
3.191628e+02,1.358301e+03
3.220555e+02,1.356135e+03
3.249482e+02,1.362559e+03
3.278409e+02,1.365951e+03
3.307336e+02,1.366843e+03
3.336263e+02,1.360470e+03
3.365190e+02,1.357044e+03
3.394117e+02,1.368549e+03
3.423044e+02,1.367960e+03
3.451971e+02,1.367742e+03
3.480898e+02,1.365044e+03
3.509825e+02,1.353602e+03
3.538752e+02,1.356871e+03
3.567680e+02,1.368608e+03
3.596607e+02,1.362353e+03
3.625534e+02,1.368200e+03
3.654461e+02,1.353404e+03
3.683388e+02,1.360420e+03
3.712315e+02,1.360013e+03
3.741242e+02,1.369089e+03
3.770169e+02,1.377653e+03
3.799096e+02,1.380306e+03
3.828023e+02,1.363481e+03
3.856950e+02,1.352844e+03
3.885877e+02,1.353122e+03
3.914804e+02,1.354554e+03
3.943731e+02,1.334929e+03
3.972658e+02,1.341067e+03
4.001585e+02,1.334254e+03
4.030512e+02,1.341663e+03
4.059439e+02,1.342695e+03
4.088366e+02,1.341046e+03
4.117293e+02,1.330975e+03
4.146220e+02,1.333218e+03
4.175147e+02,1.342418e+03
4.204074e+02,1.333592e+03
4.233001e+02,1.335584e+03
4.261928e+02,1.340609e+03
4.290855e+02,1.343241e+03
4.319782e+02,1.351817e+03
4.348709e+02,1.345472e+03
4.377636e+02,1.335172e+03
4.406563e+02,1.341052e+03
4.435490e+02,1.331935e+03
4.464417e+02,1.338854e+03
4.493344e+02,1.332583e+03
4.522271e+02,1.336265e+03
4.551198e+02,1.351006e+03
4.580125e+02,1.339190e+03
4.609052e+02,1.336648e+03
4.637979e+02,1.320275e+03
4.666906e+02,1.317997e+03
4.695833e+02,1.322409e+03
4.724760e+02,1.318987e+03
4.753687e+02,1.314845e+03
4.782614e+02,1.315782e+03
4.811541e+02,1.295615e+03
4.840468e+02,1.309855e+03
4.869395e+02,1.307700e+03
4.898322e+02,1.312322e+03
4.927249e+02,1.292801e+03
4.956176e+02,1.302896e+03
4.985103e+02,1.307638e+03
5.014030e+02,1.303004e+03
5.042957e+02,1.300797e+03
5.071884e+02,1.294068e+03
5.100811e+02,1.295499e+03
5.129738e+02,1.314738e+03
5.158665e+02,1.304587e+03
5.187592e+02,1.294984e+03
5.216519e+02,1.288325e+03
5.245446e+02,1.289693e+03
5.274373e+02,1.290317e+03
5.303300e+02,1.281583e+03
5.332227e+02,1.276705e+03
5.361154e+02,1.282130e+03
5.390081e+02,1.277320e+03
5.419008e+02,1.294189e+03
5.447935e+02,1.276561e+03
5.476862e+02,1.274127e+03
5.505789e+02,1.272433e+03
5.534716e+02,1.259262e+03
5.563643e+02,1.267742e+03
5.592570e+02,1.285829e+03
5.621497e+02,1.276690e+03
5.650424e+02,1.274037e+03
5.679351e+02,1.262584e+03
5.708278e+02,1.257745e+03
5.737205e+02,1.262682e+03
5.766132e+02,1.272700e+03
5.795059e+02,1.262260e+03
5.823986e+02,1.254012e+03
5.852913e+02,1.256669e+03
5.881840e+02,1.258233e+03
5.910767e+02,1.259158e+03
5.939694e+02,1.254989e+03
5.968621e+02,1.250824e+03
5.997548e+02,1.249872e+03
6.026475e+02,1.258758e+03
6.055402e+02,1.253289e+03
6.084329e+02,1.248186e+03
6.113256e+02,1.250275e+03
6.142183e+02,1.250542e+03
6.171110e+02,1.247487e+03
6.200037e+02,1.243103e+03
6.228964e+02,1.248784e+03
6.257891e+02,1.244413e+03
6.286818e+02,1.232187e+03
6.315745e+02,1.232146e+03
6.344672e+02,1.236692e+03
6.373599e+02,1.226738e+03
6.402526e+02,1.225687e+03
6.431453e+02,1.224770e+03
6.460380e+02,1.236598e+03
6.489307e+02,1.228112e+03
6.518234e+02,1.220560e+03
6.547161e+02,1.210591e+03
6.576088e+02,1.202014e+03
6.605015e+02,1.213367e+03
6.633942e+02,1.215206e+03
6.662869e+02,1.213360e+03
6.691796e+02,1.207997e+03
6.720723e+02,1.204020e+03
6.749650e+02,1.210311e+03
6.778577e+02,1.200452e+03
6.807504e+02,1.198153e+03
6.836431e+02,1.202549e+03
6.865358e+02,1.203284e+03
6.894285e+02,1.192211e+03
6.923212e+02,1.193322e+03
6.952139e+02,1.205412e+03
6.981066e+02,1.201471e+03
7.009993e+02,1.201776e+03
7.038920e+02,1.196233e+03
7.067847e+02,1.210288e+03
7.096774e+02,1.198361e+03
7.125701e+02,1.190397e+03
7.154628e+02,1.180682e+03
7.183555e+02,1.180371e+03
7.212482e+02,1.191186e+03
7.241409e+02,1.185974e+03
7.270336e+02,1.189892e+03
7.299263e+02,1.188694e+03
7.328190e+02,1.177744e+03
7.357117e+02,1.176292e+03
7.386044e+02,1.176911e+03
7.414971e+02,1.174073e+03
7.443898e+02,1.167884e+03
7.472825e+02,1.181890e+03
7.501752e+02,1.166341e+03
7.530679e+02,1.160014e+03
7.559606e+02,1.156577e+03
7.588533e+02,1.171595e+03
7.617460e+02,1.154406e+03
7.646387e+02,1.151051e+03
7.675314e+02,1.160806e+03
7.704241e+02,1.142292e+03
7.733168e+02,1.141637e+03
7.762095e+02,1.145355e+03
7.791022e+02,1.133349e+03
7.819949e+02,1.141284e+03
7.848876e+02,1.133515e+03
7.877803e+02,1.136826e+03
7.906730e+02,1.143838e+03
7.935657e+02,1.134746e+03
7.964584e+02,1.128655e+03
7.993511e+02,1.128161e+03
8.022438e+02,1.134929e+03
8.051365e+02,1.132909e+03
8.080292e+02,1.130676e+03
8.109219e+02,1.138846e+03
8.138146e+02,1.137120e+03
8.167073e+02,1.122119e+03
8.196000e+02,1.127115e+03
8.224927e+02,1.133862e+03
8.253854e+02,1.128253e+03
8.282781e+02,1.120860e+03
8.311708e+02,1.120055e+03
8.340635e+02,1.117200e+03
8.369562e+02,1.121087e+03
8.398489e+02,1.117547e+03
8.427416e+02,1.111851e+03
8.456343e+02,1.108293e+03
8.485270e+02,1.112252e+03
8.514197e+02,1.113534e+03
8.543124e+02,1.120239e+03
8.572051e+02,1.112336e+03
8.600978e+02,1.104101e+03
8.629905e+02,1.106988e+03
8.658832e+02,1.098557e+03
8.687759e+02,1.104333e+03
8.716686e+02,1.095153e+03
8.745613e+02,1.094548e+03
8.774540e+02,1.100829e+03
8.803467e+02,1.097276e+03
8.832394e+02,1.099986e+03
8.861321e+02,1.099962e+03
8.890248e+02,1.100991e+03
8.919175e+02,1.087012e+03
8.948102e+02,1.081563e+03
8.977029e+02,1.086431e+03
9.005956e+02,1.082555e+03
9.034883e+02,1.066456e+03
9.063810e+02,1.070884e+03
9.092737e+02,1.076863e+03
9.121664e+02,1.075607e+03
9.150591e+02,1.064796e+03
9.179518e+02,1.062191e+03
9.208445e+02,1.061692e+03
9.237372e+02,1.060002e+03
9.266299e+02,1.054014e+03
9.295226e+02,1.063083e+03
9.324153e+02,1.054930e+03
9.353080e+02,1.049803e+03
9.382007e+02,1.057354e+03
9.410934e+02,1.046648e+03
9.439861e+02,1.045303e+03
9.468788e+02,1.047517e+03
9.497715e+02,1.049158e+03
9.526642e+02,1.044962e+03
9.555569e+02,1.032706e+03
9.584496e+02,1.048477e+03
9.613423e+02,1.042215e+03
9.642350e+02,1.047653e+03
9.671277e+02,1.046528e+03
9.700204e+02,1.035838e+03
9.729131e+02,1.022980e+03
9.758058e+02,1.034317e+03
9.786985e+02,1.035761e+03
9.815912e+02,1.034842e+03
9.844839e+02,1.029521e+03
9.873766e+02,1.034006e+03
9.902693e+02,1.025058e+03
9.931620e+02,1.031333e+03
9.960547e+02,1.034592e+03
9.989474e+02,1.037755e+03
1.001840e+03,1.028056e+03
1.004733e+03,1.018394e+03
1.007626e+03,1.014672e+03
1.010518e+03,1.010020e+03
1.013411e+03,1.010836e+03
1.016304e+03,1.010018e+03
1.019196e+03,1.013178e+03
1.022089e+03,1.008664e+03
1.024982e+03,1.007376e+03
1.027875e+03,1.006706e+03
1.030767e+03,1.008502e+03
1.033660e+03,1.004202e+03
1.036552e+03,1.002511e+03
1.039445e+03,1.006927e+03
1.042338e+03,1.001626e+03
1.045231e+03,1.006453e+03
1.048123e+03,1.002856e+03
1.051016e+03,9.979178e+02
1.053909e+03,1.005115e+03
1.056802e+03,9.996569e+02
1.059694e+03,1.008996e+03
1.062587e+03,1.001046e+03
1.065479e+03,1.001916e+03
1.068372e+03,1.003263e+03
1.071265e+03,1.008695e+03
1.074158e+03,1.008226e+03
1.077050e+03,1.009767e+03
1.079943e+03,1.011900e+03
1.082836e+03,1.013283e+03
1.085729e+03,1.015422e+03
1.088621e+03,1.040016e+03
1.091514e+03,1.039014e+03
1.094406e+03,1.047056e+03
1.097299e+03,1.033884e+03
1.100192e+03,1.016157e+03
1.103085e+03,1.004212e+03
1.105977e+03,1.006988e+03
1.108870e+03,1.010397e+03
1.111763e+03,1.008524e+03
1.114656e+03,1.011905e+03
1.117548e+03,1.017457e+03
1.120441e+03,1.016688e+03
1.123334e+03,1.005375e+03
1.126226e+03,1.002341e+03
1.129119e+03,9.907559e+02
1.132012e+03,9.914452e+02
1.134904e+03,9.746231e+02
1.137797e+03,9.770883e+02
1.140690e+03,9.813846e+02
1.143583e+03,9.835618e+02
1.146475e+03,9.802063e+02
1.149368e+03,9.864217e+02
1.152261e+03,9.901953e+02
1.155153e+03,9.810793e+02
1.158046e+03,9.861868e+02
1.160939e+03,9.830461e+02
1.163831e+03,9.771550e+02
1.166724e+03,9.730112e+02
1.169617e+03,9.668730e+02
1.172510e+03,9.692844e+02
1.175402e+03,9.618813e+02
1.178295e+03,9.664175e+02
1.181188e+03,9.480814e+02
1.184080e+03,9.491534e+02
1.186973e+03,9.418083e+02
1.189866e+03,9.458036e+02
1.192758e+03,9.447510e+02
1.195651e+03,9.401352e+02
1.198544e+03,9.444699e+02
1.201437e+03,9.360748e+02
1.204329e+03,9.456115e+02
1.207222e+03,9.288179e+02
1.210115e+03,9.397031e+02
1.213007e+03,9.336387e+02
1.215900e+03,9.293008e+02
1.218793e+03,9.237228e+02
1.221685e+03,9.231971e+02
1.224578e+03,9.122256e+02
1.227471e+03,9.188164e+02
1.230364e+03,9.123920e+02
1.233256e+03,9.092118e+02
1.236149e+03,9.108038e+02
1.239042e+03,9.123485e+02
1.241934e+03,9.136107e+02
1.244827e+03,9.175319e+02
1.247720e+03,9.051894e+02
1.250612e+03,9.117849e+02
1.253505e+03,9.096889e+02
1.256398e+03,9.092709e+02
1.259291e+03,9.104735e+02
1.262183e+03,9.032473e+02
1.265076e+03,8.998212e+02
1.267969e+03,9.043094e+02
1.270861e+03,9.090809e+02
1.273754e+03,9.111452e+02
1.276647e+03,9.184600e+02
1.279539e+03,9.165564e+02
1.282432e+03,9.172817e+02
1.285325e+03,9.207533e+02
1.288218e+03,9.255043e+02
1.291110e+03,9.230257e+02
1.294003e+03,9.184148e+02
1.296896e+03,9.204337e+02
1.299788e+03,9.132836e+02
1.302681e+03,9.254035e+02
1.305574e+03,9.155870e+02
1.308466e+03,9.287825e+02
1.311359e+03,9.246281e+02
1.314252e+03,9.260683e+02
1.317145e+03,9.282244e+02
1.320037e+03,9.335405e+02
1.322930e+03,9.273485e+02
1.325823e+03,9.405160e+02
1.328715e+03,9.272272e+02
1.331608e+03,9.273368e+02
1.334501e+03,9.278904e+02
1.337393e+03,9.315811e+02
1.340286e+03,9.262098e+02
1.343179e+03,9.200227e+02
1.346072e+03,9.066099e+02
1.348964e+03,9.111495e+02
1.351857e+03,9.002637e+02
1.354750e+03,8.907385e+02
1.357642e+03,8.802206e+02
1.360535e+03,8.927473e+02
1.363428e+03,8.901613e+02
1.366320e+03,8.898946e+02
1.369213e+03,8.889562e+02
1.372106e+03,8.876264e+02
1.374999e+03,8.900645e+02
1.377891e+03,8.870731e+02
1.380784e+03,8.897394e+02
1.383677e+03,8.826614e+02
1.386569e+03,8.754182e+02
1.389462e+03,8.728256e+02
1.392355e+03,8.686494e+02
1.395247e+03,8.677151e+02
1.398140e+03,8.671730e+02
1.401033e+03,8.717572e+02
1.403926e+03,8.566694e+02
1.406818e+03,8.578092e+02
1.409711e+03,8.554425e+02
1.412604e+03,8.533083e+02
1.415496e+03,8.602402e+02
1.418389e+03,8.631406e+02
1.421282e+03,8.556102e+02
1.424174e+03,8.564135e+02
1.427067e+03,8.547184e+02
1.429960e+03,8.515699e+02
1.432853e+03,8.499932e+02
1.435745e+03,8.430950e+02
1.438638e+03,8.421431e+02
1.441531e+03,8.405174e+02
1.444423e+03,8.385612e+02
1.447316e+03,8.357444e+02
1.450209e+03,8.310201e+02
1.453101e+03,8.268585e+02
1.455994e+03,8.415071e+02
1.458887e+03,8.399736e+02
1.461780e+03,8.295302e+02
1.464672e+03,8.303976e+02
1.467565e+03,8.271943e+02
1.470458e+03,8.250756e+02
1.473350e+03,8.297512e+02
1.476243e+03,8.346526e+02
1.479136e+03,8.201507e+02
1.482028e+03,8.294932e+02
1.484921e+03,8.219254e+02
1.487814e+03,8.172916e+02
1.490707e+03,8.095341e+02
1.493599e+03,8.082922e+02
1.496492e+03,8.192090e+02
1.499385e+03,7.968699e+02
1.502277e+03,8.107680e+02
1.505170e+03,8.075190e+02
1.508063e+03,8.043044e+02
1.510955e+03,7.987961e+02
1.513848e+03,7.954845e+02
1.516741e+03,8.067401e+02
1.519634e+03,7.962134e+02
1.522526e+03,8.015449e+02
1.525419e+03,8.008018e+02
1.528312e+03,7.920778e+02
1.531204e+03,7.995622e+02
1.534097e+03,7.932260e+02
1.536990e+03,7.946185e+02
1.539882e+03,7.900221e+02
1.542775e+03,7.921241e+02
1.545668e+03,7.841327e+02
1.548561e+03,7.949766e+02
1.551453e+03,7.939254e+02
1.554346e+03,7.896273e+02
1.557239e+03,7.947683e+02
1.560131e+03,7.945561e+02
1.563024e+03,7.839111e+02
1.565917e+03,7.910389e+02
1.568809e+03,7.958213e+02
1.571702e+03,7.996714e+02
1.574595e+03,7.935883e+02
1.577488e+03,7.961533e+02
1.580380e+03,8.026917e+02
1.583273e+03,7.924670e+02
1.586166e+03,7.938859e+02
1.589058e+03,7.825475e+02
1.591951e+03,7.758383e+02
1.594844e+03,7.773824e+02
1.597736e+03,7.690462e+02
1.600629e+03,7.696411e+02
1.603522e+03,7.865352e+02
1.606415e+03,7.842231e+02
1.609307e+03,8.019968e+02
1.612200e+03,7.982097e+02
1.615093e+03,8.017448e+02
1.617985e+03,7.794453e+02
1.620878e+03,7.696895e+02
1.623771e+03,7.527509e+02
1.626663e+03,7.541584e+02
1.629556e+03,7.592244e+02
1.632449e+03,7.512225e+02
1.635342e+03,7.374661e+02
1.638234e+03,7.456689e+02
1.641127e+03,7.441967e+02
1.644020e+03,7.346990e+02
1.646912e+03,7.464515e+02
1.649805e+03,7.445427e+02
1.652698e+03,7.432733e+02
1.655590e+03,7.264636e+02
1.658483e+03,7.301744e+02
1.661376e+03,7.358581e+02
1.664269e+03,7.197565e+02
1.667161e+03,7.243022e+02
1.670054e+03,7.284921e+02
1.672947e+03,7.345760e+02
1.675839e+03,7.252355e+02
1.678732e+03,7.263439e+02
1.681625e+03,7.222960e+02
1.684517e+03,7.215648e+02
1.687410e+03,7.189532e+02
1.690303e+03,7.123258e+02
1.693196e+03,7.151389e+02
1.696088e+03,7.108487e+02
1.698981e+03,7.055665e+02
1.701874e+03,7.127344e+02
1.704766e+03,7.088063e+02
1.707659e+03,7.097172e+02
1.710552e+03,7.095533e+02
1.713444e+03,7.133513e+02
1.716337e+03,7.032037e+02
1.719230e+03,7.087064e+02
1.722123e+03,7.203125e+02
1.725015e+03,7.146389e+02
1.727908e+03,7.140841e+02
1.730801e+03,7.154518e+02
1.733693e+03,7.051376e+02
1.736586e+03,7.014899e+02
1.739479e+03,6.962478e+02
1.742371e+03,6.959456e+02
1.745264e+03,6.869656e+02
1.748157e+03,6.895245e+02
1.751050e+03,7.031602e+02
1.753942e+03,6.763749e+02
1.756835e+03,6.880710e+02
1.759728e+03,6.752009e+02
1.762620e+03,6.816672e+02
1.765513e+03,6.795460e+02
1.768406e+03,6.709836e+02
1.771298e+03,6.722751e+02
1.774191e+03,6.646174e+02
1.777084e+03,6.635564e+02
1.779977e+03,6.656908e+02
1.782869e+03,6.662457e+02
1.785762e+03,6.632480e+02
1.788655e+03,6.665996e+02
1.791547e+03,6.609583e+02
1.794440e+03,6.553438e+02
1.797333e+03,6.706756e+02
1.800225e+03,6.547003e+02
1.803118e+03,6.509139e+02
1.806011e+03,6.481846e+02
1.808904e+03,6.584318e+02
1.811796e+03,6.523109e+02
1.814689e+03,6.530010e+02
1.817582e+03,6.547859e+02
1.820474e+03,6.482224e+02
1.823367e+03,6.356295e+02
1.826260e+03,6.364579e+02
1.829152e+03,6.353073e+02
1.832045e+03,6.407742e+02
1.834938e+03,6.328674e+02
1.837831e+03,6.349394e+02
1.840723e+03,6.311809e+02
1.843616e+03,6.388074e+02
1.846509e+03,6.282001e+02
1.849401e+03,6.184182e+02
1.852294e+03,6.347166e+02
1.855187e+03,6.242687e+02
1.858079e+03,6.179898e+02
1.860972e+03,6.263114e+02
1.863865e+03,6.230688e+02
1.866758e+03,6.196193e+02
1.869650e+03,6.211003e+02
1.872543e+03,6.068807e+02
1.875436e+03,6.197344e+02
1.878328e+03,6.131526e+02
1.881221e+03,6.105001e+02
1.884114e+03,6.050417e+02
1.887006e+03,6.039774e+02
1.889899e+03,6.086677e+02
1.892792e+03,6.136044e+02
1.895685e+03,6.029281e+02
1.898577e+03,6.072167e+02
1.901470e+03,5.990936e+02
1.904363e+03,5.903190e+02
1.907255e+03,6.020941e+02
1.910148e+03,6.030748e+02
1.913041e+03,5.913920e+02
1.915933e+03,5.943105e+02
1.918826e+03,5.861611e+02
1.921719e+03,5.967270e+02
1.924612e+03,5.903353e+02
1.927504e+03,5.794244e+02
1.930397e+03,5.867786e+02
1.933290e+03,5.759844e+02
1.936182e+03,5.773533e+02
1.939075e+03,5.771097e+02
1.941968e+03,5.752076e+02
1.944860e+03,5.690615e+02
1.947753e+03,5.730498e+02
1.950646e+03,5.604431e+02
1.953539e+03,5.729545e+02
1.956431e+03,5.639786e+02
1.959324e+03,5.648280e+02
1.962217e+03,5.693788e+02
1.965109e+03,5.619517e+02
1.968002e+03,5.737189e+02
1.970895e+03,5.685840e+02
1.973787e+03,5.617359e+02
1.976680e+03,5.529522e+02
1.979573e+03,5.616153e+02
1.982466e+03,5.545233e+02
1.985358e+03,5.541059e+02
1.988251e+03,5.556179e+02
1.991144e+03,5.518602e+02
1.994036e+03,5.560121e+02
1.996929e+03,5.434107e+02
1.999822e+03,5.479727e+02
2.002714e+03,5.337037e+02
2.005607e+03,5.414874e+02
2.008500e+03,5.354977e+02
2.011393e+03,5.429051e+02
2.014285e+03,5.317130e+02
2.017178e+03,5.398729e+02
2.020071e+03,5.296349e+02
2.022963e+03,5.300215e+02
2.025856e+03,5.288768e+02
2.028749e+03,5.294583e+02
2.031641e+03,5.217607e+02
2.034534e+03,5.228073e+02
2.037427e+03,5.342589e+02
2.040320e+03,5.251831e+02
2.043212e+03,5.193336e+02
2.046105e+03,5.293771e+02
2.048998e+03,5.073266e+02
2.051890e+03,5.176025e+02
2.054783e+03,5.129628e+02
2.057676e+03,5.149807e+02
2.060568e+03,5.139200e+02
2.063461e+03,5.157014e+02
2.066354e+03,5.099325e+02
2.069247e+03,5.066675e+02
2.072139e+03,5.107378e+02
2.075032e+03,5.044869e+02
2.077925e+03,5.018681e+02
2.080817e+03,5.033745e+02
2.083710e+03,5.004909e+02
2.086603e+03,4.881406e+02
2.089496e+03,5.015732e+02
2.092388e+03,4.897856e+02
2.095281e+03,4.913481e+02
2.098174e+03,4.954211e+02
2.101066e+03,4.872694e+02
2.103959e+03,4.978227e+02
2.106852e+03,4.920830e+02
2.109744e+03,4.882831e+02
2.112637e+03,4.877341e+02
2.115530e+03,4.804926e+02
2.118422e+03,4.791082e+02
2.121315e+03,4.827023e+02
2.124208e+03,4.920622e+02
2.127101e+03,4.713351e+02
2.129993e+03,4.814811e+02
2.132886e+03,4.787195e+02
2.135779e+03,4.819085e+02
2.138671e+03,4.680853e+02
2.141564e+03,4.762663e+02
2.144457e+03,4.798017e+02
2.147350e+03,4.696508e+02
2.150242e+03,4.767669e+02
2.153135e+03,4.653921e+02
2.156028e+03,4.642390e+02
2.158920e+03,4.676706e+02
2.161813e+03,4.645074e+02
2.164706e+03,4.620511e+02
2.167598e+03,4.675169e+02
2.170491e+03,4.652801e+02
2.173384e+03,4.545885e+02
2.176277e+03,4.492152e+02
2.179169e+03,4.502965e+02
2.182062e+03,4.480405e+02
2.184955e+03,4.529120e+02
2.187847e+03,4.506004e+02
2.190740e+03,4.508834e+02
2.193633e+03,4.424533e+02
2.196525e+03,4.402029e+02
2.199418e+03,4.413003e+02
2.202311e+03,4.435476e+02
2.205204e+03,4.489074e+02
2.208096e+03,4.530284e+02
2.210989e+03,4.398333e+02
2.213882e+03,4.357376e+02
2.216774e+03,4.432631e+02
2.219667e+03,4.319336e+02
2.222560e+03,4.410376e+02
2.225452e+03,4.352709e+02
2.228345e+03,4.361603e+02
2.231238e+03,4.345281e+02
2.234131e+03,4.305378e+02
2.237023e+03,4.273809e+02
2.239916e+03,4.315864e+02
2.242809e+03,4.306280e+02
2.245701e+03,4.223603e+02
2.248594e+03,4.205921e+02
2.251487e+03,4.294872e+02
2.254379e+03,4.262103e+02
2.257272e+03,4.223903e+02
2.260165e+03,4.100488e+02
2.263058e+03,4.227807e+02
2.265950e+03,4.188114e+02
2.268843e+03,4.116761e+02
2.271736e+03,4.075019e+02
2.274628e+03,3.978515e+02
2.277521e+03,4.089651e+02
2.280414e+03,4.125000e+02
2.283306e+03,4.122937e+02
2.286199e+03,4.013725e+02
2.289092e+03,4.060322e+02
2.291985e+03,3.918995e+02
2.294877e+03,4.034398e+02
2.297770e+03,3.955941e+02
2.300663e+03,3.967282e+02
2.303555e+03,3.990643e+02
2.306448e+03,3.909536e+02
2.309341e+03,3.929505e+02
2.312233e+03,3.876120e+02
2.315126e+03,3.940771e+02
2.318019e+03,3.990522e+02
2.320912e+03,3.946595e+02
2.323804e+03,3.843526e+02
2.326697e+03,3.961498e+02
2.329590e+03,3.856812e+02
2.332482e+03,3.887306e+02
2.335375e+03,3.878387e+02
2.338268e+03,3.877321e+02
2.341160e+03,3.932934e+02
2.344053e+03,3.849492e+02
2.346946e+03,3.783607e+02
2.349839e+03,3.849940e+02
2.352731e+03,3.824321e+02
2.355624e+03,3.821808e+02
2.358517e+03,3.880726e+02
2.361409e+03,3.776591e+02
2.364302e+03,3.802920e+02
2.367195e+03,3.706686e+02
2.370087e+03,3.781418e+02
2.372980e+03,3.692310e+02
2.375873e+03,3.791590e+02
2.378766e+03,3.720996e+02
2.381658e+03,3.738788e+02
2.384551e+03,3.637961e+02
2.387444e+03,3.702430e+02
2.390336e+03,3.633371e+02
2.393229e+03,3.611582e+02
2.396122e+03,3.671924e+02
2.399014e+03,3.606832e+02
2.401907e+03,3.661138e+02
2.404800e+03,3.604909e+02
2.407693e+03,3.611477e+02
2.410585e+03,3.654908e+02
2.413478e+03,3.520805e+02
2.416371e+03,3.561375e+02
2.419263e+03,3.547755e+02
2.422156e+03,3.612706e+02
2.425049e+03,3.498292e+02
2.427941e+03,3.598554e+02
2.430834e+03,3.582372e+02
2.433727e+03,3.530825e+02
2.436620e+03,3.471364e+02
2.439512e+03,3.513250e+02
2.442405e+03,3.508250e+02
2.445298e+03,3.423231e+02
2.448190e+03,3.424964e+02
2.451083e+03,3.508559e+02
2.453976e+03,3.351889e+02
2.456868e+03,3.417272e+02
2.459761e+03,3.422819e+02
2.462654e+03,3.467875e+02
2.465547e+03,3.391812e+02
2.468439e+03,3.382942e+02
2.471332e+03,3.404563e+02
2.474225e+03,3.391817e+02
2.477117e+03,3.452593e+02
2.480010e+03,3.366487e+02
2.482903e+03,3.387614e+02
2.485795e+03,3.405200e+02
2.488688e+03,3.442361e+02
2.491581e+03,3.392051e+02
2.494474e+03,3.352281e+02
2.497366e+03,3.301288e+02
2.500259e+03,3.258788e+02
2.503152e+03,3.326820e+02
2.506044e+03,3.236442e+02
2.508937e+03,3.234651e+02
2.511830e+03,3.312025e+02
2.514722e+03,3.216724e+02
2.517615e+03,3.242249e+02
2.520508e+03,3.347332e+02
2.523401e+03,3.346539e+02
2.526293e+03,3.221883e+02
2.529186e+03,3.169595e+02
2.532079e+03,3.224281e+02
2.534971e+03,3.161429e+02
2.537864e+03,3.141971e+02
2.540757e+03,3.263999e+02
2.543649e+03,3.209654e+02
2.546542e+03,3.251461e+02
2.549435e+03,3.229995e+02
2.552328e+03,3.259999e+02
2.555220e+03,3.269493e+02
2.558113e+03,3.201101e+02
2.561006e+03,3.210592e+02
2.563898e+03,3.246488e+02
2.566791e+03,3.240055e+02
2.569684e+03,3.191481e+02
2.572576e+03,3.171042e+02
2.575469e+03,3.220949e+02
2.578362e+03,3.148707e+02
2.581255e+03,3.151548e+02
2.584147e+03,3.121419e+02
2.587040e+03,3.088003e+02
2.589933e+03,3.053074e+02
2.592825e+03,3.067315e+02
2.595718e+03,3.094251e+02
2.598611e+03,3.084977e+02
2.601503e+03,3.156092e+02
2.604396e+03,3.105638e+02
2.607289e+03,3.065260e+02
2.610182e+03,3.076653e+02
2.613074e+03,3.117767e+02
2.615967e+03,3.014475e+02
2.618860e+03,3.096773e+02
2.621752e+03,3.006087e+02
2.624645e+03,3.044590e+02
2.627538e+03,3.022275e+02
2.630430e+03,3.060708e+02
2.633323e+03,2.982487e+02
2.636216e+03,2.975119e+02
2.639109e+03,2.941848e+02
2.642001e+03,2.960993e+02
2.644894e+03,2.973888e+02
2.647787e+03,2.950800e+02
2.650679e+03,3.002912e+02
2.653572e+03,2.918249e+02
2.656465e+03,2.981747e+02
2.659357e+03,2.839286e+02
2.662250e+03,2.972890e+02
2.665143e+03,2.915655e+02
2.668036e+03,2.960920e+02
2.670928e+03,2.945168e+02
2.673821e+03,2.958946e+02
2.676714e+03,2.826090e+02
2.679606e+03,2.893255e+02
2.682499e+03,2.843738e+02
2.685392e+03,2.735668e+02
2.688284e+03,2.841270e+02
2.691177e+03,2.912619e+02
2.694070e+03,2.821895e+02
2.696963e+03,2.896769e+02
2.699855e+03,2.868183e+02
2.702748e+03,2.844140e+02
2.705641e+03,2.807385e+02
2.708533e+03,2.930450e+02
2.711426e+03,2.806292e+02
2.714319e+03,2.891554e+02
2.717211e+03,2.907587e+02
2.720104e+03,2.835213e+02
2.722997e+03,2.828828e+02
2.725890e+03,2.802528e+02
2.728782e+03,2.844981e+02
2.731675e+03,2.789466e+02
2.734568e+03,2.808269e+02
2.737460e+03,2.802133e+02
2.740353e+03,2.777696e+02
2.743246e+03,2.783891e+02
2.746138e+03,2.780849e+02
2.749031e+03,2.809286e+02
2.751924e+03,2.794824e+02
2.754817e+03,2.720404e+02
2.757709e+03,2.675801e+02
2.760602e+03,2.816992e+02
2.763495e+03,2.690261e+02
2.766387e+03,2.898128e+02
2.769280e+03,2.704481e+02
2.772173e+03,2.827184e+02
2.775065e+03,2.681081e+02
2.777958e+03,2.707033e+02
2.780851e+03,2.762243e+02
2.783744e+03,2.672727e+02
2.786636e+03,2.619400e+02
2.789529e+03,2.721331e+02
2.792422e+03,2.717425e+02
2.795314e+03,2.486513e+02
2.798207e+03,2.728889e+02
2.801100e+03,2.749685e+02
2.803992e+03,2.576761e+02
2.806885e+03,2.644495e+02
2.809778e+03,2.751641e+02
2.812671e+03,2.823648e+02
2.815563e+03,2.567184e+02
2.818456e+03,2.695976e+02
2.821349e+03,2.608290e+02
2.824241e+03,2.678547e+02
2.827134e+03,2.647295e+02
2.830027e+03,2.764596e+02
2.832919e+03,2.641471e+02
2.835812e+03,2.662109e+02
2.838705e+03,2.655824e+02
2.841598e+03,2.685044e+02
2.844490e+03,2.694756e+02
2.847383e+03,2.663323e+02
2.850276e+03,2.787058e+02
2.853168e+03,2.779481e+02
2.856061e+03,2.729180e+02
2.858954e+03,2.747184e+02
2.861846e+03,2.784976e+02
2.864739e+03,2.708506e+02
2.867632e+03,2.799435e+02
2.870525e+03,2.834892e+02
2.873417e+03,2.915148e+02
2.876310e+03,2.781218e+02
2.879203e+03,2.765634e+02
2.882095e+03,2.866661e+02
2.884988e+03,2.958724e+02
2.887881e+03,2.992125e+02
2.890773e+03,2.987160e+02
2.893666e+03,2.977054e+02
2.896559e+03,3.011260e+02
2.899452e+03,3.039838e+02
2.902344e+03,3.029656e+02
2.905237e+03,3.016376e+02
2.908130e+03,2.800093e+02
2.911022e+03,3.068692e+02
2.913915e+03,2.766304e+02
2.916808e+03,2.654671e+02
2.919700e+03,2.817194e+02
2.922593e+03,2.790814e+02
2.925486e+03,2.834007e+02
2.928379e+03,2.597560e+02
2.931271e+03,2.766008e+02
2.934164e+03,2.780290e+02
2.937057e+03,2.657731e+02
2.939949e+03,2.670112e+02
2.942842e+03,2.759016e+02
2.945735e+03,2.901727e+02
2.948627e+03,2.571514e+02
2.951520e+03,2.624974e+02
2.954413e+03,2.676467e+02
2.957306e+03,3.027273e+02
2.960198e+03,2.799762e+02
2.963091e+03,2.685059e+02
2.965984e+03,2.678027e+02
2.968876e+03,2.588697e+02
2.971769e+03,2.623091e+02
2.974662e+03,2.464515e+02
2.977554e+03,2.563556e+02
2.980447e+03,2.336615e+02
2.983340e+03,2.566067e+02
2.986233e+03,2.427798e+02
2.989125e+03,2.493104e+02
2.992018e+03,2.514496e+02
2.994911e+03,2.230172e+02
2.997803e+03,2.426816e+02
3.000696e+03,2.484250e+02
3.003589e+03,2.416666e+02
3.006481e+03,2.517167e+02
3.009374e+03,2.313716e+02
3.012267e+03,2.410804e+02
3.015160e+03,2.367632e+02
3.018052e+03,2.131203e+02
3.020945e+03,2.209773e+02
3.023838e+03,2.334522e+02
3.026730e+03,2.289268e+02
3.029623e+03,2.319079e+02
3.032516e+03,2.273095e+02
3.035408e+03,2.171968e+02
3.038301e+03,2.308220e+02
3.041194e+03,2.325937e+02
3.044087e+03,2.301381e+02
3.046979e+03,2.281310e+02
3.049872e+03,2.342630e+02
3.052765e+03,2.291260e+02
3.055657e+03,2.278536e+02
3.058550e+03,2.224980e+02
3.061443e+03,2.460988e+02
3.064335e+03,2.237915e+02
3.067228e+03,2.335534e+02
3.070121e+03,2.241937e+02
3.073014e+03,2.316678e+02
3.075906e+03,2.392222e+02
3.078799e+03,2.470587e+02
3.081692e+03,2.275969e+02
3.084584e+03,2.250653e+02
3.087477e+03,2.296279e+02
3.090370e+03,2.478284e+02
3.093262e+03,2.002189e+02
3.096155e+03,2.303049e+02
3.099048e+03,2.175400e+02
3.101941e+03,2.438061e+02
3.104833e+03,2.103604e+02
3.107726e+03,2.089235e+02
3.110619e+03,2.317603e+02
3.113511e+03,2.100665e+02
3.116404e+03,2.057984e+02
3.119297e+03,2.278604e+02
3.122189e+03,2.337700e+02
3.125082e+03,2.349703e+02
3.127975e+03,2.239227e+02
3.130868e+03,2.205954e+02
3.133760e+03,2.556904e+02
3.136653e+03,2.066369e+02
3.139546e+03,2.444901e+02
3.142438e+03,2.370060e+02
3.145331e+03,1.939366e+02
3.148224e+03,2.278054e+02
3.151116e+03,2.450428e+02
3.154009e+03,2.418839e+02
3.156902e+03,2.291134e+02
3.159795e+03,2.199574e+02
3.162687e+03,2.454427e+02
3.165580e+03,2.406861e+02
3.168473e+03,2.500426e+02
3.171365e+03,2.007256e+02
3.174258e+03,2.299199e+02
3.177151e+03,2.301492e+02
3.180043e+03,2.298576e+02
3.182936e+03,2.167943e+02
3.185829e+03,1.971390e+02
3.188722e+03,2.420198e+02
3.191614e+03,2.421196e+02
3.194507e+03,2.609554e+02
3.197400e+03,2.159605e+02
3.200292e+03,2.573833e+02
3.203185e+03,0.000000e+00
3.206078e+03,0.000000e+00
3.208970e+03,0.000000e+00
3.211863e+03,0.000000e+00
3.214756e+03,0.000000e+00
3.217649e+03,0.000000e+00
3.220541e+03,0.000000e+00
3.223434e+03,0.000000e+00
3.226327e+03,0.000000e+00
3.229219e+03,0.000000e+00
3.232112e+03,0.000000e+00
3.235005e+03,0.000000e+00
3.237897e+03,0.000000e+00
3.240790e+03,0.000000e+00
3.243683e+03,0.000000e+00
3.246576e+03,0.000000e+00
3.249468e+03,0.000000e+00
3.252361e+03,0.000000e+00
3.255254e+03,0.000000e+00
3.258146e+03,0.000000e+00
3.261039e+03,0.000000e+00
3.263932e+03,0.000000e+00
3.266824e+03,0.000000e+00
3.269717e+03,0.000000e+00
3.272610e+03,0.000000e+00
3.275503e+03,0.000000e+00
3.278395e+03,0.000000e+00
3.281288e+03,0.000000e+00
3.284181e+03,0.000000e+00
3.287073e+03,0.000000e+00
3.289966e+03,0.000000e+00
3.292859e+03,0.000000e+00
3.295751e+03,0.000000e+00
3.298644e+03,0.000000e+00
3.301537e+03,0.000000e+00
3.304430e+03,0.000000e+00
3.307322e+03,0.000000e+00
3.310215e+03,0.000000e+00
3.313108e+03,0.000000e+00
3.316000e+03,0.000000e+00
3.318893e+03,0.000000e+00
3.321786e+03,0.000000e+00
3.324678e+03,0.000000e+00
3.327571e+03,0.000000e+00
3.330464e+03,0.000000e+00
3.333357e+03,0.000000e+00
3.336249e+03,0.000000e+00
3.339142e+03,0.000000e+00
3.342035e+03,0.000000e+00
3.344927e+03,0.000000e+00
3.347820e+03,0.000000e+00
3.350713e+03,0.000000e+00
3.353605e+03,0.000000e+00
3.356498e+03,0.000000e+00
3.359391e+03,0.000000e+00
3.362284e+03,0.000000e+00
3.365176e+03,0.000000e+00
3.368069e+03,0.000000e+00
3.370962e+03,0.000000e+00
3.373854e+03,0.000000e+00
3.376747e+03,0.000000e+00
3.379640e+03,0.000000e+00
3.382532e+03,0.000000e+00
3.385425e+03,0.000000e+00
3.388318e+03,0.000000e+00
3.391211e+03,0.000000e+00
3.394103e+03,0.000000e+00
3.396996e+03,0.000000e+00
3.399889e+03,0.000000e+00
3.402781e+03,0.000000e+00
3.405674e+03,0.000000e+00
3.408567e+03,0.000000e+00
3.411459e+03,0.000000e+00
3.414352e+03,0.000000e+00
3.417245e+03,0.000000e+00
3.420138e+03,0.000000e+00
3.423030e+03,0.000000e+00
3.425923e+03,0.000000e+00
3.428816e+03,0.000000e+00
3.431708e+03,0.000000e+00
3.434601e+03,0.000000e+00
3.437494e+03,0.000000e+00
3.440386e+03,0.000000e+00
3.443279e+03,0.000000e+00
3.446172e+03,0.000000e+00
3.449065e+03,0.000000e+00
3.451957e+03,0.000000e+00
3.454850e+03,0.000000e+00
3.457743e+03,0.000000e+00
3.460635e+03,0.000000e+00
3.463528e+03,0.000000e+00
3.466421e+03,0.000000e+00
3.469313e+03,0.000000e+00
3.472206e+03,0.000000e+00
3.475099e+03,0.000000e+00
3.477992e+03,0.000000e+00
3.480884e+03,0.000000e+00
3.483777e+03,0.000000e+00
3.486670e+03,0.000000e+00
3.489563e+03,0.000000e+00
3.492455e+03,0.000000e+00
3.495348e+03,0.000000e+00
3.498240e+03,0.000000e+00
3.500169e+03,0.000000e+00