File: RAMAN_data/20012023_r3/blue fibre10.CSV
9.931763e+01,0.000000e+00
1.022103e+02,0.000000e+00
1.051030e+02,0.000000e+00
1.079957e+02,0.000000e+00
1.108884e+02,0.000000e+00
1.137811e+02,0.000000e+00
1.166738e+02,0.000000e+00
1.195665e+02,0.000000e+00
1.224592e+02,0.000000e+00
1.253519e+02,0.000000e+00
1.282446e+02,0.000000e+00
1.311373e+02,0.000000e+00
1.340300e+02,0.000000e+00
1.369227e+02,0.000000e+00
1.398154e+02,0.000000e+00
1.427081e+02,0.000000e+00
1.456008e+02,0.000000e+00
1.484935e+02,0.000000e+00
1.513862e+02,0.000000e+00
1.542789e+02,0.000000e+00
1.571716e+02,0.000000e+00
1.600643e+02,0.000000e+00
1.629570e+02,0.000000e+00
1.658497e+02,0.000000e+00
1.687424e+02,0.000000e+00
1.716351e+02,0.000000e+00
1.745278e+02,0.000000e+00
1.774205e+02,0.000000e+00
1.803132e+02,0.000000e+00
1.832059e+02,0.000000e+00
1.860986e+02,0.000000e+00
1.889913e+02,0.000000e+00
1.918840e+02,0.000000e+00
1.947767e+02,0.000000e+00
1.976694e+02,0.000000e+00
2.005621e+02,8.353667e+03
2.034548e+02,8.404805e+03
2.063475e+02,8.406876e+03
2.092402e+02,8.425786e+03
2.121329e+02,8.436989e+03
2.150256e+02,8.442392e+03
2.179183e+02,8.523864e+03
2.208110e+02,8.561751e+03
2.237037e+02,8.590049e+03
2.265964e+02,8.574880e+03
2.294892e+02,8.630509e+03
2.323819e+02,8.680735e+03
2.352746e+02,8.721558e+03
2.381673e+02,8.719977e+03
2.410600e+02,8.719320e+03
2.439527e+02,8.749697e+03
2.468454e+02,8.820516e+03
2.497381e+02,8.871385e+03
2.526308e+02,8.913471e+03
2.555235e+02,8.919511e+03
2.584161e+02,8.920955e+03
2.613088e+02,8.956536e+03
2.642015e+02,9.016075e+03
2.670942e+02,9.053141e+03
2.699869e+02,9.075916e+03
2.728796e+02,9.106506e+03
2.757723e+02,9.169991e+03
2.786650e+02,9.244166e+03
2.815577e+02,9.273900e+03
2.844504e+02,9.274946e+03
2.873431e+02,9.235844e+03
2.902358e+02,9.243181e+03
2.931285e+02,9.233041e+03
2.960212e+02,9.245591e+03
2.989139e+02,9.263803e+03
3.018066e+02,9.287466e+03
3.046993e+02,9.327957e+03
3.075920e+02,9.313475e+03
3.104847e+02,9.333324e+03
3.133774e+02,9.355382e+03
3.162701e+02,9.344526e+03
3.191628e+02,9.379510e+03
3.220555e+02,9.401243e+03
3.249482e+02,9.433504e+03
3.278409e+02,9.438963e+03
3.307336e+02,9.430340e+03
3.336263e+02,9.478303e+03
3.365190e+02,9.477203e+03
3.394117e+02,9.499932e+03
3.423044e+02,9.537510e+03
3.451971e+02,9.550969e+03
3.480898e+02,9.570081e+03
3.509825e+02,9.557347e+03
3.538752e+02,9.579026e+03
3.567680e+02,9.616203e+03
3.596607e+02,9.636184e+03
3.625534e+02,9.670165e+03
3.654461e+02,9.631161e+03
3.683388e+02,9.641956e+03
3.712315e+02,9.698481e+03
3.741242e+02,9.714610e+03
3.770169e+02,9.760592e+03
3.799096e+02,9.764343e+03
3.828023e+02,9.766260e+03
3.856950e+02,9.783893e+03
3.885877e+02,9.797479e+03
3.914804e+02,9.805896e+03
3.943731e+02,9.841428e+03
3.972658e+02,9.806453e+03
4.001585e+02,9.789864e+03
4.030512e+02,9.864778e+03
4.059439e+02,9.842832e+03
4.088366e+02,9.858863e+03
4.117293e+02,9.864382e+03
4.146220e+02,9.886435e+03
4.175147e+02,9.903159e+03
4.204074e+02,9.926646e+03
4.233001e+02,9.922103e+03
4.261928e+02,9.896646e+03
4.290855e+02,9.917250e+03
4.319782e+02,9.950432e+03
4.348709e+02,9.959714e+03
4.377636e+02,9.973507e+03
4.406563e+02,9.983140e+03
4.435490e+02,9.952929e+03
4.464417e+02,9.974960e+03
4.493344e+02,9.993651e+03
4.522271e+02,1.001063e+04
4.551198e+02,9.981026e+03
4.580125e+02,1.001504e+04
4.609052e+02,1.001913e+04
4.637979e+02,1.003366e+04
4.666906e+02,1.003200e+04
4.695833e+02,1.005389e+04
4.724760e+02,1.002324e+04
4.753687e+02,1.002596e+04
4.782614e+02,1.001267e+04
4.811541e+02,1.002852e+04
4.840468e+02,1.008150e+04
4.869395e+02,1.005121e+04
4.898322e+02,1.004457e+04
4.927249e+02,1.004031e+04
4.956176e+02,1.009786e+04
4.985103e+02,1.010220e+04
5.014030e+02,1.008625e+04
5.042957e+02,1.010615e+04
5.071884e+02,1.009367e+04
5.100811e+02,1.007690e+04
5.129738e+02,1.007592e+04
5.158665e+02,1.013080e+04
5.187592e+02,1.016344e+04
5.216519e+02,1.012581e+04
5.245446e+02,1.011041e+04
5.274373e+02,1.015547e+04
5.303300e+02,1.016348e+04
5.332227e+02,1.015852e+04
5.361154e+02,1.017793e+04
5.390081e+02,1.020260e+04
5.419008e+02,1.023790e+04
5.447935e+02,1.032165e+04
5.476862e+02,1.028813e+04
5.505789e+02,1.026365e+04
5.534716e+02,1.026324e+04
5.563643e+02,1.032063e+04
5.592570e+02,1.036674e+04
5.621497e+02,1.035050e+04
5.650424e+02,1.029955e+04
5.679351e+02,1.019438e+04
5.708278e+02,1.018180e+04
5.737205e+02,1.019170e+04
5.766132e+02,1.018931e+04
5.795059e+02,1.018040e+04
5.823986e+02,1.017873e+04
5.852913e+02,1.017706e+04
5.881840e+02,1.016544e+04
5.910767e+02,1.018214e+04
5.939694e+02,1.019456e+04
5.968621e+02,1.018615e+04
5.997548e+02,1.019437e+04
6.026475e+02,1.018806e+04
6.055402e+02,1.022531e+04
6.084329e+02,1.023877e+04
6.113256e+02,1.033758e+04
6.142183e+02,1.027797e+04
6.171110e+02,1.018431e+04
6.200037e+02,1.016144e+04
6.228964e+02,1.011451e+04
6.257891e+02,1.014136e+04
6.286818e+02,1.013040e+04
6.315745e+02,1.010966e+04
6.344672e+02,1.010591e+04
6.373599e+02,1.007387e+04
6.402526e+02,1.006378e+04
6.431453e+02,1.007156e+04
6.460380e+02,1.007820e+04
6.489307e+02,1.006641e+04
6.518234e+02,1.007210e+04
6.547161e+02,1.005364e+04
6.576088e+02,1.003873e+04
6.605015e+02,1.003628e+04
6.633942e+02,9.987786e+03
6.662869e+02,1.001380e+04
6.691796e+02,1.004667e+04
6.720723e+02,1.002794e+04
6.749650e+02,1.002133e+04
6.778577e+02,9.996474e+03
6.807504e+02,9.981890e+03
6.836431e+02,9.991511e+03
6.865358e+02,9.998953e+03
6.894285e+02,9.959978e+03
6.923212e+02,9.952684e+03
6.952139e+02,9.946678e+03
6.981066e+02,9.947775e+03
7.009993e+02,9.913562e+03
7.038920e+02,9.892469e+03
7.067847e+02,9.838413e+03
7.096774e+02,9.843270e+03
7.125701e+02,9.872844e+03
7.154628e+02,9.860926e+03
7.183555e+02,9.869323e+03
7.212482e+02,9.830655e+03
7.241409e+02,9.823066e+03
7.270336e+02,9.824369e+03
7.299263e+02,9.790190e+03
7.328190e+02,9.754557e+03
7.357117e+02,9.764335e+03
7.386044e+02,9.764865e+03
7.414971e+02,9.750866e+03
7.443898e+02,9.747480e+03
7.472825e+02,9.725034e+03
7.501752e+02,9.723646e+03
7.530679e+02,9.713546e+03
7.559606e+02,9.717881e+03
7.588533e+02,9.722926e+03
7.617460e+02,9.709688e+03
7.646387e+02,9.677981e+03
7.675314e+02,9.683753e+03
7.704241e+02,9.628821e+03
7.733168e+02,9.614756e+03
7.762095e+02,9.662675e+03
7.791022e+02,9.690751e+03
7.819949e+02,9.628072e+03
7.848876e+02,9.643209e+03
7.877803e+02,9.649005e+03
7.906730e+02,9.651173e+03
7.935657e+02,9.638980e+03
7.964584e+02,9.568351e+03
7.993511e+02,9.554031e+03
8.022438e+02,9.511579e+03
8.051365e+02,9.506216e+03
8.080292e+02,9.500124e+03
8.109219e+02,9.464340e+03
8.138146e+02,9.437378e+03
8.167073e+02,9.414349e+03
8.196000e+02,9.444047e+03
8.224927e+02,9.419366e+03
8.253854e+02,9.390176e+03
8.282781e+02,9.432247e+03
8.311708e+02,9.369457e+03
8.340635e+02,9.373449e+03
8.369562e+02,9.351660e+03
8.398489e+02,9.351129e+03
8.427416e+02,9.331790e+03
8.456343e+02,9.302245e+03
8.485270e+02,9.309347e+03
8.514197e+02,9.295239e+03
8.543124e+02,9.305909e+03
8.572051e+02,9.238225e+03
8.600978e+02,9.239544e+03
8.629905e+02,9.231427e+03
8.658832e+02,9.215842e+03
8.687759e+02,9.209271e+03
8.716686e+02,9.160696e+03
8.745613e+02,9.169080e+03
8.774540e+02,9.124141e+03
8.803467e+02,9.134041e+03
8.832394e+02,9.117531e+03
8.861321e+02,9.130691e+03
8.890248e+02,9.085616e+03
8.919175e+02,9.065835e+03
8.948102e+02,9.032322e+03
8.977029e+02,9.036209e+03
9.005956e+02,9.025669e+03
9.034883e+02,9.010728e+03
9.063810e+02,8.982001e+03
9.092737e+02,8.970822e+03
9.121664e+02,8.947323e+03
9.150591e+02,8.915632e+03
9.179518e+02,8.929095e+03
9.208445e+02,8.889547e+03
9.237372e+02,8.852541e+03
9.266299e+02,8.826547e+03
9.295226e+02,8.882024e+03
9.324153e+02,8.848395e+03
9.353080e+02,8.822948e+03
9.382007e+02,8.783667e+03
9.410934e+02,8.771256e+03
9.439861e+02,8.773041e+03
9.468788e+02,8.737370e+03
9.497715e+02,8.745365e+03
9.526642e+02,8.701336e+03
9.555569e+02,8.646521e+03
9.584496e+02,8.637073e+03
9.613423e+02,8.670334e+03
9.642350e+02,8.645187e+03
9.671277e+02,8.605613e+03
9.700204e+02,8.588307e+03
9.729131e+02,8.563424e+03
9.758058e+02,8.555474e+03
9.786985e+02,8.557713e+03
9.815912e+02,8.509646e+03
9.844839e+02,8.498435e+03
9.873766e+02,8.487101e+03
9.902693e+02,8.459627e+03
9.931620e+02,8.468498e+03
9.960547e+02,8.476568e+03
9.989474e+02,8.429292e+03
1.001840e+03,8.413751e+03
1.004733e+03,8.399377e+03
1.007626e+03,8.400785e+03
1.010518e+03,8.353627e+03
1.013411e+03,8.354664e+03
1.016304e+03,8.330332e+03
1.019196e+03,8.294415e+03
1.022089e+03,8.301601e+03
1.024982e+03,8.301056e+03
1.027875e+03,8.260713e+03
1.030767e+03,8.248100e+03
1.033660e+03,8.242544e+03
1.036552e+03,8.213052e+03
1.039445e+03,8.250637e+03
1.042338e+03,8.196607e+03
1.045231e+03,8.165987e+03
1.048123e+03,8.169411e+03
1.051016e+03,8.151324e+03
1.053909e+03,8.154440e+03
1.056802e+03,8.129602e+03
1.059694e+03,8.094994e+03
1.062587e+03,8.082596e+03
1.065479e+03,8.038841e+03
1.068372e+03,8.095476e+03
1.071265e+03,8.087183e+03
1.074158e+03,8.106089e+03
1.077050e+03,8.083438e+03
1.079943e+03,8.055565e+03
1.082836e+03,8.082724e+03
1.085729e+03,8.047844e+03
1.088621e+03,8.050677e+03
1.091514e+03,7.978922e+03
1.094406e+03,7.926654e+03
1.097299e+03,7.952668e+03
1.100192e+03,7.913584e+03
1.103085e+03,7.902812e+03
1.105977e+03,7.889531e+03
1.108870e+03,7.843750e+03
1.111763e+03,7.823021e+03
1.114656e+03,7.822991e+03
1.117548e+03,7.824275e+03
1.120441e+03,7.836376e+03
1.123334e+03,7.797536e+03
1.126226e+03,7.765463e+03
1.129119e+03,7.750899e+03
1.132012e+03,7.758994e+03
1.134904e+03,7.730658e+03
1.137797e+03,7.714302e+03
1.140690e+03,7.680207e+03
1.143583e+03,7.668834e+03
1.146475e+03,7.684786e+03
1.149368e+03,7.649289e+03
1.152261e+03,7.639227e+03
1.155153e+03,7.612706e+03
1.158046e+03,7.573295e+03
1.160939e+03,7.592003e+03
1.163831e+03,7.572011e+03
1.166724e+03,7.543931e+03
1.169617e+03,7.529222e+03
1.172510e+03,7.515396e+03
1.175402e+03,7.482526e+03
1.178295e+03,7.478766e+03
1.181188e+03,7.511681e+03
1.184080e+03,7.458397e+03
1.186973e+03,7.465848e+03
1.189866e+03,7.442500e+03
1.192758e+03,7.442407e+03
1.195651e+03,7.438375e+03
1.198544e+03,7.450252e+03
1.201437e+03,7.395092e+03
1.204329e+03,7.352654e+03
1.207222e+03,7.345018e+03
1.210115e+03,7.343531e+03
1.213007e+03,7.307521e+03
1.215900e+03,7.306599e+03
1.218793e+03,7.299468e+03
1.221685e+03,7.307189e+03
1.224578e+03,7.329393e+03
1.227471e+03,7.307958e+03
1.230364e+03,7.261297e+03
1.233256e+03,7.229268e+03
1.236149e+03,7.194583e+03
1.239042e+03,7.226665e+03
1.241934e+03,7.213949e+03
1.244827e+03,7.191333e+03
1.247720e+03,7.178614e+03
1.250612e+03,7.142253e+03
1.253505e+03,7.141467e+03
1.256398e+03,7.116554e+03
1.259291e+03,7.096029e+03
1.262183e+03,7.077459e+03
1.265076e+03,7.044309e+03
1.267969e+03,7.037566e+03
1.270861e+03,7.039636e+03
1.273754e+03,7.036762e+03
1.276647e+03,7.036107e+03
1.279539e+03,6.970591e+03
1.282432e+03,6.973919e+03
1.285325e+03,6.982244e+03
1.288218e+03,6.971334e+03
1.291110e+03,6.946325e+03
1.294003e+03,6.934295e+03
1.296896e+03,6.909669e+03
1.299788e+03,6.897257e+03
1.302681e+03,6.882854e+03
1.305574e+03,6.917568e+03
1.308466e+03,6.882859e+03
1.311359e+03,6.892597e+03
1.314252e+03,6.852333e+03
1.317145e+03,6.871235e+03
1.320037e+03,6.855654e+03
1.322930e+03,6.817635e+03
1.325823e+03,6.802095e+03
1.328715e+03,6.774214e+03
1.331608e+03,6.786399e+03
1.334501e+03,6.801075e+03
1.337393e+03,6.790889e+03
1.340286e+03,6.762945e+03
1.343179e+03,6.722196e+03
1.346072e+03,6.716321e+03
1.348964e+03,6.720739e+03
1.351857e+03,6.719893e+03
1.354750e+03,6.696953e+03
1.357642e+03,6.672117e+03
1.360535e+03,6.645263e+03
1.363428e+03,6.674779e+03
1.366320e+03,6.678413e+03
1.369213e+03,6.643052e+03
1.372106e+03,6.620030e+03
1.374999e+03,6.581096e+03
1.377891e+03,6.598896e+03
1.380784e+03,6.560353e+03
1.383677e+03,6.573950e+03
1.386569e+03,6.543139e+03
1.389462e+03,6.529158e+03
1.392355e+03,6.497645e+03
1.395247e+03,6.508966e+03
1.398140e+03,6.506522e+03
1.401033e+03,6.488950e+03
1.403926e+03,6.469369e+03
1.406818e+03,6.441193e+03
1.409711e+03,6.470438e+03
1.412604e+03,6.456720e+03
1.415496e+03,6.416958e+03
1.418389e+03,6.416897e+03
1.421282e+03,6.406708e+03
1.424174e+03,6.390515e+03
1.427067e+03,6.388728e+03
1.429960e+03,6.372542e+03
1.432853e+03,6.361280e+03
1.435745e+03,6.336192e+03
1.438638e+03,6.331226e+03
1.441531e+03,6.331399e+03
1.444423e+03,6.347460e+03
1.447316e+03,6.321458e+03
1.450209e+03,6.346089e+03
1.453101e+03,6.338663e+03
1.455994e+03,6.317478e+03
1.458887e+03,6.311521e+03
1.461780e+03,6.297877e+03
1.464672e+03,6.265690e+03
1.467565e+03,6.232568e+03
1.470458e+03,6.220211e+03
1.473350e+03,6.220304e+03
1.476243e+03,6.214439e+03
1.479136e+03,6.204313e+03
1.482028e+03,6.186817e+03
1.484921e+03,6.167815e+03
1.487814e+03,6.166778e+03
1.490707e+03,6.148811e+03
1.493599e+03,6.175953e+03
1.496492e+03,6.131938e+03
1.499385e+03,6.129478e+03
1.502277e+03,6.127522e+03
1.505170e+03,6.138584e+03
1.508063e+03,6.146763e+03
1.510955e+03,6.114560e+03
1.513848e+03,6.080920e+03
1.516741e+03,6.072257e+03
1.519634e+03,6.088045e+03
1.522526e+03,6.059671e+03
1.525419e+03,6.044051e+03
1.528312e+03,6.007625e+03
1.531204e+03,5.986675e+03
1.534097e+03,6.001170e+03
1.536990e+03,5.974221e+03
1.539882e+03,5.966491e+03
1.542775e+03,5.953679e+03
1.545668e+03,5.962391e+03
1.548561e+03,5.945650e+03
1.551453e+03,5.969303e+03
1.554346e+03,5.927471e+03
1.557239e+03,5.923451e+03
1.560131e+03,5.954900e+03
1.563024e+03,5.952451e+03
1.565917e+03,6.036002e+03
1.568809e+03,6.046874e+03
1.571702e+03,6.104648e+03
1.574595e+03,6.088284e+03
1.577488e+03,6.035002e+03
1.580380e+03,6.012162e+03
1.583273e+03,5.993670e+03
1.586166e+03,5.954539e+03
1.589058e+03,5.885094e+03
1.591951e+03,5.827368e+03
1.594844e+03,5.835648e+03
1.597736e+03,5.820548e+03
1.600629e+03,5.805115e+03
1.603522e+03,5.761498e+03
1.606415e+03,5.752461e+03
1.609307e+03,5.750155e+03
1.612200e+03,5.731513e+03
1.615093e+03,5.745880e+03
1.617985e+03,5.712033e+03
1.620878e+03,5.696373e+03
1.623771e+03,5.682710e+03
1.626663e+03,5.713324e+03
1.629556e+03,5.689528e+03
1.632449e+03,5.712156e+03
1.635342e+03,5.669459e+03
1.638234e+03,5.614045e+03
1.641127e+03,5.594178e+03
1.644020e+03,5.595643e+03
1.646912e+03,5.588459e+03
1.649805e+03,5.543248e+03
1.652698e+03,5.550927e+03
1.655590e+03,5.530616e+03
1.658483e+03,5.542369e+03
1.661376e+03,5.521466e+03
1.664269e+03,5.493440e+03
1.667161e+03,5.504994e+03
1.670054e+03,5.481334e+03
1.672947e+03,5.487425e+03
1.675839e+03,5.484416e+03
1.678732e+03,5.473330e+03
1.681625e+03,5.473068e+03
1.684517e+03,5.459100e+03
1.687410e+03,5.444487e+03
1.690303e+03,5.405791e+03
1.693196e+03,5.406735e+03
1.696088e+03,5.388314e+03
1.698981e+03,5.362625e+03
1.701874e+03,5.351792e+03
1.704766e+03,5.371930e+03
1.707659e+03,5.325705e+03
1.710552e+03,5.324143e+03
1.713444e+03,5.311713e+03
1.716337e+03,5.302823e+03
1.719230e+03,5.291896e+03
1.722123e+03,5.286822e+03
1.725015e+03,5.277163e+03
1.727908e+03,5.254180e+03
1.730801e+03,5.255961e+03
1.733693e+03,5.242870e+03
1.736586e+03,5.251454e+03
1.739479e+03,5.216290e+03
1.742371e+03,5.214720e+03
1.745264e+03,5.199925e+03
1.748157e+03,5.205839e+03
1.751050e+03,5.187942e+03
1.753942e+03,5.202967e+03
1.756835e+03,5.196361e+03
1.759728e+03,5.110576e+03
1.762620e+03,5.145625e+03
1.765513e+03,5.146364e+03
1.768406e+03,5.111481e+03
1.771298e+03,5.134046e+03
1.774191e+03,5.116710e+03
1.777084e+03,5.087483e+03
1.779977e+03,5.031897e+03
1.782869e+03,5.074942e+03
1.785762e+03,5.051661e+03
1.788655e+03,5.026915e+03
1.791547e+03,5.027361e+03
1.794440e+03,5.008757e+03
1.797333e+03,5.038213e+03
1.800225e+03,4.993673e+03
1.803118e+03,4.982462e+03
1.806011e+03,4.948243e+03
1.808904e+03,4.971013e+03
1.811796e+03,4.936033e+03
1.814689e+03,4.936372e+03
1.817582e+03,4.913288e+03
1.820474e+03,4.917524e+03
1.823367e+03,4.911177e+03
1.826260e+03,4.893784e+03
1.829152e+03,4.886147e+03
1.832045e+03,4.899310e+03
1.834938e+03,4.849573e+03
1.837831e+03,4.823177e+03
1.840723e+03,4.842417e+03
1.843616e+03,4.845375e+03
1.846509e+03,4.814858e+03
1.849401e+03,4.819325e+03
1.852294e+03,4.778117e+03
1.855187e+03,4.763757e+03
1.858079e+03,4.768889e+03
1.860972e+03,4.797537e+03
1.863865e+03,4.791905e+03
1.866758e+03,4.720975e+03
1.869650e+03,4.734748e+03
1.872543e+03,4.721594e+03
1.875436e+03,4.723445e+03
1.878328e+03,4.718211e+03
1.881221e+03,4.700479e+03
1.884114e+03,4.674347e+03
1.887006e+03,4.647354e+03
1.889899e+03,4.652483e+03
1.892792e+03,4.628447e+03
1.895685e+03,4.635111e+03
1.898577e+03,4.634320e+03
1.901470e+03,4.615612e+03
1.904363e+03,4.621933e+03
1.907255e+03,4.596776e+03
1.910148e+03,4.590596e+03
1.913041e+03,4.554222e+03
1.915933e+03,4.533955e+03
1.918826e+03,4.527110e+03
1.921719e+03,4.521381e+03
1.924612e+03,4.544083e+03
1.927504e+03,4.504186e+03
1.930397e+03,4.504603e+03
1.933290e+03,4.456044e+03
1.936182e+03,4.486627e+03
1.939075e+03,4.486977e+03
1.941968e+03,4.472989e+03
1.944860e+03,4.430130e+03
1.947753e+03,4.439119e+03
1.950646e+03,4.404071e+03
1.953539e+03,4.409222e+03
1.956431e+03,4.410678e+03
1.959324e+03,4.423683e+03
1.962217e+03,4.391611e+03
1.965109e+03,4.365490e+03
1.968002e+03,4.397432e+03
1.970895e+03,4.359850e+03
1.973787e+03,4.342197e+03
1.976680e+03,4.356690e+03
1.979573e+03,4.307481e+03
1.982466e+03,4.316800e+03
1.985358e+03,4.276256e+03
1.988251e+03,4.285292e+03
1.991144e+03,4.233299e+03
1.994036e+03,4.252378e+03
1.996929e+03,4.261140e+03
1.999822e+03,4.242191e+03
2.002714e+03,4.229188e+03
2.005607e+03,4.208023e+03
2.008500e+03,4.167353e+03
2.011393e+03,4.190024e+03
2.014285e+03,4.162715e+03
2.017178e+03,4.183075e+03
2.020071e+03,4.168643e+03
2.022963e+03,4.103200e+03
2.025856e+03,4.100537e+03
2.028749e+03,4.150469e+03
2.031641e+03,4.088427e+03
2.034534e+03,4.106159e+03
2.037427e+03,4.071030e+03
2.040320e+03,4.071097e+03
2.043212e+03,4.034672e+03
2.046105e+03,4.059350e+03
2.048998e+03,4.046662e+03
2.051890e+03,4.020890e+03
2.054783e+03,4.015564e+03
2.057676e+03,4.002260e+03
2.060568e+03,4.002145e+03
2.063461e+03,3.991118e+03
2.066354e+03,3.994899e+03
2.069247e+03,3.951694e+03
2.072139e+03,3.932275e+03
2.075032e+03,3.929178e+03
2.077925e+03,3.954910e+03
2.080817e+03,3.926146e+03
2.083710e+03,3.891717e+03
2.086603e+03,3.904532e+03
2.089496e+03,3.884962e+03
2.092388e+03,3.885993e+03
2.095281e+03,3.848831e+03
2.098174e+03,3.857194e+03
2.101066e+03,3.843537e+03
2.103959e+03,3.828181e+03
2.106852e+03,3.793851e+03
2.109744e+03,3.840813e+03
2.112637e+03,3.812468e+03
2.115530e+03,3.752703e+03
2.118422e+03,3.748137e+03
2.121315e+03,3.797762e+03
2.124208e+03,3.770347e+03
2.127101e+03,3.727353e+03
2.129993e+03,3.716654e+03
2.132886e+03,3.692292e+03
2.135779e+03,3.703064e+03
2.138671e+03,3.708961e+03
2.141564e+03,3.697747e+03
2.144457e+03,3.663402e+03
2.147350e+03,3.621212e+03
2.150242e+03,3.630613e+03
2.153135e+03,3.649304e+03
2.156028e+03,3.632273e+03
2.158920e+03,3.607664e+03
2.161813e+03,3.593112e+03
2.164706e+03,3.578338e+03
2.167598e+03,3.579063e+03
2.170491e+03,3.594460e+03
2.173384e+03,3.565347e+03
2.176277e+03,3.564370e+03
2.179169e+03,3.538291e+03
2.182062e+03,3.547987e+03
2.184955e+03,3.534657e+03
2.187847e+03,3.530062e+03
2.190740e+03,3.517728e+03
2.193633e+03,3.470331e+03
2.196525e+03,3.477897e+03
2.199418e+03,3.458079e+03
2.202311e+03,3.464009e+03
2.205204e+03,3.466214e+03
2.208096e+03,3.437733e+03
2.210989e+03,3.401088e+03
2.213882e+03,3.434379e+03
2.216774e+03,3.426662e+03
2.219667e+03,3.402205e+03
2.222560e+03,3.407520e+03
2.225452e+03,3.341852e+03
2.228345e+03,3.342382e+03
2.231238e+03,3.351669e+03
2.234131e+03,3.363524e+03
2.237023e+03,3.327896e+03
2.239916e+03,3.308871e+03
2.242809e+03,3.307355e+03
2.245701e+03,3.291565e+03
2.248594e+03,3.294153e+03
2.251487e+03,3.266132e+03
2.254379e+03,3.274504e+03
2.257272e+03,3.255414e+03
2.260165e+03,3.251114e+03
2.263058e+03,3.251741e+03
2.265950e+03,3.223142e+03
2.268843e+03,3.226614e+03
2.271736e+03,3.187913e+03
2.274628e+03,3.203062e+03
2.277521e+03,3.197753e+03
2.280414e+03,3.166653e+03
2.283306e+03,3.173638e+03
2.286199e+03,3.147433e+03
2.289092e+03,3.149459e+03
2.291985e+03,3.107548e+03
2.294877e+03,3.105374e+03
2.297770e+03,3.125962e+03
2.300663e+03,3.106020e+03
2.303555e+03,3.086798e+03
2.306448e+03,3.089050e+03
2.309341e+03,3.073469e+03
2.312233e+03,3.063061e+03
2.315126e+03,3.076272e+03
2.318019e+03,3.041704e+03
2.320912e+03,3.029810e+03
2.323804e+03,3.049445e+03
2.326697e+03,3.027332e+03
2.329590e+03,3.042902e+03
2.332482e+03,3.000442e+03
2.335375e+03,2.966983e+03
2.338268e+03,2.988689e+03
2.341160e+03,2.956778e+03
2.344053e+03,2.976925e+03
2.346946e+03,2.957633e+03
2.349839e+03,2.948479e+03
2.352731e+03,2.950729e+03
2.355624e+03,2.957753e+03
2.358517e+03,2.917603e+03
2.361409e+03,2.934446e+03
2.364302e+03,2.918414e+03
2.367195e+03,2.882823e+03
2.370087e+03,2.865700e+03
2.372980e+03,2.873609e+03
2.375873e+03,2.877086e+03
2.378766e+03,2.858946e+03
2.381658e+03,2.841409e+03
2.384551e+03,2.835930e+03
2.387444e+03,2.826741e+03
2.390336e+03,2.835420e+03
2.393229e+03,2.800434e+03
2.396122e+03,2.820882e+03
2.399014e+03,2.798167e+03
2.401907e+03,2.802953e+03
2.404800e+03,2.772024e+03
2.407693e+03,2.793789e+03
2.410585e+03,2.762627e+03
2.413478e+03,2.750622e+03
2.416371e+03,2.765752e+03
2.419263e+03,2.739646e+03
2.422156e+03,2.732766e+03
2.425049e+03,2.730546e+03
2.427941e+03,2.717016e+03
2.430834e+03,2.718401e+03
2.433727e+03,2.708156e+03
2.436620e+03,2.708202e+03
2.439512e+03,2.690998e+03
2.442405e+03,2.654792e+03
2.445298e+03,2.658844e+03
2.448190e+03,2.642562e+03
2.451083e+03,2.644740e+03
2.453976e+03,2.656231e+03
2.456868e+03,2.629760e+03
2.459761e+03,2.627940e+03
2.462654e+03,2.621487e+03
2.465547e+03,2.597556e+03
2.468439e+03,2.590569e+03
2.471332e+03,2.579851e+03
2.474225e+03,2.584216e+03
2.477117e+03,2.579616e+03
2.480010e+03,2.603560e+03
2.482903e+03,2.574356e+03
2.485795e+03,2.566906e+03
2.488688e+03,2.528845e+03
2.491581e+03,2.538249e+03
2.494474e+03,2.531076e+03
2.497366e+03,2.529182e+03
2.500259e+03,2.516168e+03
2.503152e+03,2.527815e+03
2.506044e+03,2.511748e+03
2.508937e+03,2.477113e+03
2.511830e+03,2.492097e+03
2.514722e+03,2.490441e+03
2.517615e+03,2.463272e+03
2.520508e+03,2.483090e+03
2.523401e+03,2.442110e+03
2.526293e+03,2.477874e+03
2.529186e+03,2.469097e+03
2.532079e+03,2.438124e+03
2.534971e+03,2.446703e+03
2.537864e+03,2.425910e+03
2.540757e+03,2.404210e+03
2.543649e+03,2.415482e+03
2.546542e+03,2.422000e+03
2.549435e+03,2.406274e+03
2.552328e+03,2.387373e+03
2.555220e+03,2.405378e+03
2.558113e+03,2.377176e+03
2.561006e+03,2.399373e+03
2.563898e+03,2.377452e+03
2.566791e+03,2.362928e+03
2.569684e+03,2.341734e+03
2.572576e+03,2.335960e+03
2.575469e+03,2.356933e+03
2.578362e+03,2.346685e+03
2.581255e+03,2.341924e+03
2.584147e+03,2.331746e+03
2.587040e+03,2.308593e+03
2.589933e+03,2.301464e+03
2.592825e+03,2.300852e+03
2.595718e+03,2.279915e+03
2.598611e+03,2.265646e+03
2.601503e+03,2.280485e+03
2.604396e+03,2.293282e+03
2.607289e+03,2.279595e+03
2.610182e+03,2.254622e+03
2.613074e+03,2.250724e+03
2.615967e+03,2.272606e+03
2.618860e+03,2.244747e+03
2.621752e+03,2.241983e+03
2.624645e+03,2.242799e+03
2.627538e+03,2.242023e+03
2.630430e+03,2.230636e+03
2.633323e+03,2.207333e+03
2.636216e+03,2.208516e+03
2.639109e+03,2.209580e+03
2.642001e+03,2.212221e+03
2.644894e+03,2.197779e+03
2.647787e+03,2.183297e+03
2.650679e+03,2.182929e+03
2.653572e+03,2.179698e+03
2.656465e+03,2.169758e+03
2.659357e+03,2.182062e+03
2.662250e+03,2.167625e+03
2.665143e+03,2.149480e+03
2.668036e+03,2.148777e+03
2.670928e+03,2.140175e+03
2.673821e+03,2.134067e+03
2.676714e+03,2.116150e+03
2.679606e+03,2.128142e+03
2.682499e+03,2.129525e+03
2.685392e+03,2.140259e+03
2.688284e+03,2.092464e+03
2.691177e+03,2.114365e+03
2.694070e+03,2.130101e+03
2.696963e+03,2.090169e+03
2.699855e+03,2.083491e+03
2.702748e+03,2.086742e+03
2.705641e+03,2.061190e+03
2.708533e+03,2.073075e+03
2.711426e+03,2.047184e+03
2.714319e+03,2.079561e+03
2.717211e+03,2.058916e+03
2.720104e+03,2.068110e+03
2.722997e+03,2.076792e+03
2.725890e+03,2.036001e+03
2.728782e+03,2.070481e+03
2.731675e+03,2.024898e+03
2.734568e+03,2.035311e+03
2.737460e+03,2.007995e+03
2.740353e+03,2.037814e+03
2.743246e+03,1.997102e+03
2.746138e+03,2.025138e+03
2.749031e+03,2.003118e+03
2.751924e+03,1.995179e+03
2.754817e+03,1.984731e+03
2.757709e+03,1.983673e+03
2.760602e+03,1.991498e+03
2.763495e+03,1.957761e+03
2.766387e+03,1.998801e+03
2.769280e+03,1.962648e+03
2.772173e+03,1.979418e+03
2.775065e+03,1.969099e+03
2.777958e+03,1.970889e+03
2.780851e+03,1.970695e+03
2.783744e+03,1.924882e+03
2.786636e+03,1.923149e+03
2.789529e+03,1.941543e+03
2.792422e+03,1.945169e+03
2.795314e+03,1.927587e+03
2.798207e+03,1.922937e+03
2.801100e+03,1.937255e+03
2.803992e+03,1.902465e+03
2.806885e+03,1.913713e+03
2.809778e+03,1.869514e+03
2.812671e+03,1.913273e+03
2.815563e+03,1.871341e+03
2.818456e+03,1.913948e+03
2.821349e+03,1.877211e+03
2.824241e+03,1.847144e+03
2.827134e+03,1.879142e+03
2.830027e+03,1.850859e+03
2.832919e+03,1.885590e+03
2.835812e+03,1.857749e+03
2.838705e+03,1.892583e+03
2.841598e+03,1.870053e+03
2.844490e+03,1.832793e+03
2.847383e+03,1.847744e+03
2.850276e+03,1.842008e+03
2.853168e+03,1.848022e+03
2.856061e+03,1.855223e+03
2.858954e+03,1.855561e+03
2.861846e+03,1.842551e+03
2.864739e+03,1.833432e+03
2.867632e+03,1.834433e+03
2.870525e+03,1.847365e+03
2.873417e+03,1.845667e+03
2.876310e+03,1.822728e+03
2.879203e+03,1.796326e+03
2.882095e+03,1.829000e+03
2.884988e+03,1.800299e+03
2.887881e+03,1.825863e+03
2.890773e+03,1.798986e+03
2.893666e+03,1.781444e+03
2.896559e+03,1.794892e+03
2.899452e+03,1.812844e+03
2.902344e+03,1.807512e+03
2.905237e+03,1.809356e+03
2.908130e+03,1.802428e+03
2.911022e+03,1.778874e+03
2.913915e+03,1.784467e+03
2.916808e+03,1.740923e+03
2.919700e+03,1.770000e+03
2.922593e+03,1.746744e+03
2.925486e+03,1.750091e+03
2.928379e+03,1.789033e+03
2.931271e+03,1.723837e+03
2.934164e+03,1.767091e+03
2.937057e+03,1.740559e+03
2.939949e+03,1.736980e+03
2.942842e+03,1.724133e+03
2.945735e+03,1.765391e+03
2.948627e+03,1.717183e+03
2.951520e+03,1.743066e+03
2.954413e+03,1.718150e+03
2.957306e+03,1.735010e+03
2.960198e+03,1.721341e+03
2.963091e+03,1.692860e+03
2.965984e+03,1.717112e+03
2.968876e+03,1.719378e+03
2.971769e+03,1.709775e+03
2.974662e+03,1.661221e+03
2.977554e+03,1.669483e+03
2.980447e+03,1.678430e+03
2.983340e+03,1.689199e+03
2.986233e+03,1.672352e+03
2.989125e+03,1.640802e+03
2.992018e+03,1.681766e+03
2.994911e+03,1.651516e+03
2.997803e+03,1.681396e+03
3.000696e+03,1.653905e+03
3.003589e+03,1.673456e+03
3.006481e+03,1.662359e+03
3.009374e+03,1.623577e+03
3.012267e+03,1.656716e+03
3.015160e+03,1.612578e+03
3.018052e+03,1.643544e+03
3.020945e+03,1.645464e+03
3.023838e+03,1.603549e+03
3.026730e+03,1.622717e+03
3.029623e+03,1.616352e+03
3.032516e+03,1.646263e+03
3.035408e+03,1.597276e+03
3.038301e+03,1.647246e+03
3.041194e+03,1.566375e+03
3.044087e+03,1.630812e+03
3.046979e+03,1.608460e+03
3.049872e+03,1.609576e+03
3.052765e+03,1.612765e+03
3.055657e+03,1.601135e+03
3.058550e+03,1.610465e+03
3.061443e+03,1.634404e+03
3.064335e+03,1.590841e+03
3.067228e+03,1.566062e+03
3.070121e+03,1.607197e+03
3.073014e+03,1.613001e+03
3.075906e+03,1.606586e+03
3.078799e+03,1.606256e+03
3.081692e+03,1.617725e+03
3.084584e+03,1.595963e+03
3.087477e+03,1.581717e+03
3.090370e+03,1.577432e+03
3.093262e+03,1.605619e+03
3.096155e+03,1.583100e+03
3.099048e+03,1.579924e+03
3.101941e+03,1.558510e+03
3.104833e+03,1.584510e+03
3.107726e+03,1.582658e+03
3.110619e+03,1.552904e+03
3.113511e+03,1.562487e+03
3.116404e+03,1.566307e+03
3.119297e+03,1.582656e+03
3.122189e+03,1.591844e+03
3.125082e+03,1.574174e+03
3.127975e+03,1.596078e+03
3.130868e+03,1.572668e+03
3.133760e+03,1.568571e+03
3.136653e+03,1.562048e+03
3.139546e+03,1.600763e+03
3.142438e+03,1.583878e+03
3.145331e+03,1.560679e+03
3.148224e+03,1.537905e+03
3.151116e+03,1.529712e+03
3.154009e+03,1.589946e+03
3.156902e+03,1.567168e+03
3.159795e+03,1.555843e+03
3.162687e+03,1.577985e+03
3.165580e+03,1.587474e+03
3.168473e+03,1.573635e+03
3.171365e+03,1.555524e+03
3.174258e+03,1.514669e+03
3.177151e+03,1.572729e+03
3.180043e+03,1.544757e+03
3.182936e+03,1.599570e+03
3.185829e+03,1.562123e+03
3.188722e+03,1.532721e+03
3.191614e+03,1.578705e+03
3.194507e+03,1.598499e+03
3.197400e+03,1.545184e+03
3.200292e+03,1.596934e+03
3.203185e+03,0.000000e+00
3.206078e+03,0.000000e+00
3.208970e+03,0.000000e+00
3.211863e+03,0.000000e+00
3.214756e+03,0.000000e+00
3.217649e+03,0.000000e+00
3.220541e+03,0.000000e+00
3.223434e+03,0.000000e+00
3.226327e+03,0.000000e+00
3.229219e+03,0.000000e+00
3.232112e+03,0.000000e+00
3.235005e+03,0.000000e+00
3.237897e+03,0.000000e+00
3.240790e+03,0.000000e+00
3.243683e+03,0.000000e+00
3.246576e+03,0.000000e+00
3.249468e+03,0.000000e+00
3.252361e+03,0.000000e+00
3.255254e+03,0.000000e+00
3.258146e+03,0.000000e+00
3.261039e+03,0.000000e+00
3.263932e+03,0.000000e+00
3.266824e+03,0.000000e+00
3.269717e+03,0.000000e+00
3.272610e+03,0.000000e+00
3.275503e+03,0.000000e+00
3.278395e+03,0.000000e+00
3.281288e+03,0.000000e+00
3.284181e+03,0.000000e+00
3.287073e+03,0.000000e+00
3.289966e+03,0.000000e+00
3.292859e+03,0.000000e+00
3.295751e+03,0.000000e+00
3.298644e+03,0.000000e+00
3.301537e+03,0.000000e+00
3.304430e+03,0.000000e+00
3.307322e+03,0.000000e+00
3.310215e+03,0.000000e+00
3.313108e+03,0.000000e+00
3.316000e+03,0.000000e+00
3.318893e+03,0.000000e+00
3.321786e+03,0.000000e+00
3.324678e+03,0.000000e+00
3.327571e+03,0.000000e+00
3.330464e+03,0.000000e+00
3.333357e+03,0.000000e+00
3.336249e+03,0.000000e+00
3.339142e+03,0.000000e+00
3.342035e+03,0.000000e+00
3.344927e+03,0.000000e+00
3.347820e+03,0.000000e+00
3.350713e+03,0.000000e+00
3.353605e+03,0.000000e+00
3.356498e+03,0.000000e+00
3.359391e+03,0.000000e+00
3.362284e+03,0.000000e+00
3.365176e+03,0.000000e+00
3.368069e+03,0.000000e+00
3.370962e+03,0.000000e+00
3.373854e+03,0.000000e+00
3.376747e+03,0.000000e+00
3.379640e+03,0.000000e+00
3.382532e+03,0.000000e+00
3.385425e+03,0.000000e+00
3.388318e+03,0.000000e+00
3.391211e+03,0.000000e+00
3.394103e+03,0.000000e+00
3.396996e+03,0.000000e+00
3.399889e+03,0.000000e+00
3.402781e+03,0.000000e+00
3.405674e+03,0.000000e+00
3.408567e+03,0.000000e+00
3.411459e+03,0.000000e+00
3.414352e+03,0.000000e+00
3.417245e+03,0.000000e+00
3.420138e+03,0.000000e+00
3.423030e+03,0.000000e+00
3.425923e+03,0.000000e+00
3.428816e+03,0.000000e+00
3.431708e+03,0.000000e+00
3.434601e+03,0.000000e+00
3.437494e+03,0.000000e+00
3.440386e+03,0.000000e+00
3.443279e+03,0.000000e+00
3.446172e+03,0.000000e+00
3.449065e+03,0.000000e+00
3.451957e+03,0.000000e+00
3.454850e+03,0.000000e+00
3.457743e+03,0.000000e+00
3.460635e+03,0.000000e+00
3.463528e+03,0.000000e+00
3.466421e+03,0.000000e+00
3.469313e+03,0.000000e+00
3.472206e+03,0.000000e+00
3.475099e+03,0.000000e+00
3.477992e+03,0.000000e+00
3.480884e+03,0.000000e+00
3.483777e+03,0.000000e+00
3.486670e+03,0.000000e+00
3.489563e+03,0.000000e+00
3.492455e+03,0.000000e+00
3.495348e+03,0.000000e+00
3.498240e+03,0.000000e+00
3.500169e+03,0.000000e+00