File: RAMAN_data/20012023_r3/blue fibre5.CSV
9.931763e+01,0.000000e+00
1.022103e+02,0.000000e+00
1.051030e+02,0.000000e+00
1.079957e+02,0.000000e+00
1.108884e+02,0.000000e+00
1.137811e+02,0.000000e+00
1.166738e+02,0.000000e+00
1.195665e+02,0.000000e+00
1.224592e+02,0.000000e+00
1.253519e+02,0.000000e+00
1.282446e+02,0.000000e+00
1.311373e+02,0.000000e+00
1.340300e+02,0.000000e+00
1.369227e+02,0.000000e+00
1.398154e+02,0.000000e+00
1.427081e+02,0.000000e+00
1.456008e+02,0.000000e+00
1.484935e+02,0.000000e+00
1.513862e+02,0.000000e+00
1.542789e+02,0.000000e+00
1.571716e+02,0.000000e+00
1.600643e+02,0.000000e+00
1.629570e+02,0.000000e+00
1.658497e+02,0.000000e+00
1.687424e+02,0.000000e+00
1.716351e+02,0.000000e+00
1.745278e+02,0.000000e+00
1.774205e+02,0.000000e+00
1.803132e+02,0.000000e+00
1.832059e+02,0.000000e+00
1.860986e+02,0.000000e+00
1.889913e+02,0.000000e+00
1.918840e+02,0.000000e+00
1.947767e+02,0.000000e+00
1.976694e+02,0.000000e+00
2.005621e+02,8.705582e+03
2.034548e+02,8.708704e+03
2.063475e+02,8.729084e+03
2.092402e+02,8.736550e+03
2.121329e+02,8.730412e+03
2.150256e+02,8.763166e+03
2.179183e+02,8.781442e+03
2.208110e+02,8.812563e+03
2.237037e+02,8.824382e+03
2.265964e+02,8.807582e+03
2.294892e+02,8.802604e+03
2.323819e+02,8.855201e+03
2.352746e+02,8.864812e+03
2.381673e+02,8.875292e+03
2.410600e+02,8.879547e+03
2.439527e+02,8.862154e+03
2.468454e+02,8.915515e+03
2.497381e+02,8.930671e+03
2.526308e+02,8.932127e+03
2.555235e+02,8.949456e+03
2.584161e+02,8.928198e+03
2.613088e+02,8.968249e+03
2.642015e+02,9.007474e+03
2.670942e+02,9.025073e+03
2.699869e+02,9.032219e+03
2.728796e+02,9.001488e+03
2.757723e+02,9.043689e+03
2.786650e+02,9.079169e+03
2.815577e+02,9.088454e+03
2.844504e+02,9.093869e+03
2.873431e+02,9.096021e+03
2.902358e+02,9.072361e+03
2.931285e+02,9.073603e+03
2.960212e+02,9.070375e+03
2.989139e+02,9.081810e+03
3.018066e+02,9.059455e+03
3.046993e+02,9.090156e+03
3.075920e+02,9.099649e+03
3.104847e+02,9.113081e+03
3.133774e+02,9.124984e+03
3.162701e+02,9.133558e+03
3.191628e+02,9.127371e+03
3.220555e+02,9.116036e+03
3.249482e+02,9.147783e+03
3.278409e+02,9.159612e+03
3.307336e+02,9.164429e+03
3.336263e+02,9.151538e+03
3.365190e+02,9.134162e+03
3.394117e+02,9.152188e+03
3.423044e+02,9.166885e+03
3.451971e+02,9.171504e+03
3.480898e+02,9.165231e+03
3.509825e+02,9.137568e+03
3.538752e+02,9.169285e+03
3.567680e+02,9.164388e+03
3.596607e+02,9.187447e+03
3.625534e+02,9.193347e+03
3.654461e+02,9.169936e+03
3.683388e+02,9.197459e+03
3.712315e+02,9.197452e+03
3.741242e+02,9.207668e+03
3.770169e+02,9.221035e+03
3.799096e+02,9.217888e+03
3.828023e+02,9.174607e+03
3.856950e+02,9.194728e+03
3.885877e+02,9.219719e+03
3.914804e+02,9.215804e+03
3.943731e+02,9.197531e+03
3.972658e+02,9.187714e+03
4.001585e+02,9.159792e+03
4.030512e+02,9.230295e+03
4.059439e+02,9.237184e+03
4.088366e+02,9.227065e+03
4.117293e+02,9.210099e+03
4.146220e+02,9.196592e+03
4.175147e+02,9.213056e+03
4.204074e+02,9.217381e+03
4.233001e+02,9.190971e+03
4.261928e+02,9.212567e+03
4.290855e+02,9.199261e+03
4.319782e+02,9.202158e+03
4.348709e+02,9.207201e+03
4.377636e+02,9.200510e+03
4.406563e+02,9.191283e+03
4.435490e+02,9.189424e+03
4.464417e+02,9.196004e+03
4.493344e+02,9.194001e+03
4.522271e+02,9.184190e+03
4.551198e+02,9.201887e+03
4.580125e+02,9.193090e+03
4.609052e+02,9.189250e+03
4.637979e+02,9.173720e+03
4.666906e+02,9.178864e+03
4.695833e+02,9.170683e+03
4.724760e+02,9.160803e+03
4.753687e+02,9.150726e+03
4.782614e+02,9.160892e+03
4.811541e+02,9.158995e+03
4.840468e+02,9.172841e+03
4.869395e+02,9.161567e+03
4.898322e+02,9.141958e+03
4.927249e+02,9.155665e+03
4.956176e+02,9.146834e+03
4.985103e+02,9.149884e+03
5.014030e+02,9.169837e+03
5.042957e+02,9.122959e+03
5.071884e+02,9.145600e+03
5.100811e+02,9.153469e+03
5.129738e+02,9.145135e+03
5.158665e+02,9.141370e+03
5.187592e+02,9.159448e+03
5.216519e+02,9.133265e+03
5.245446e+02,9.120249e+03
5.274373e+02,9.147889e+03
5.303300e+02,9.126860e+03
5.332227e+02,9.121041e+03
5.361154e+02,9.115766e+03
5.390081e+02,9.110922e+03
5.419008e+02,9.140673e+03
5.447935e+02,9.138185e+03
5.476862e+02,9.145969e+03
5.505789e+02,9.124401e+03
5.534716e+02,9.107862e+03
5.563643e+02,9.135193e+03
5.592570e+02,9.152598e+03
5.621497e+02,9.124387e+03
5.650424e+02,9.088072e+03
5.679351e+02,9.071935e+03
5.708278e+02,9.038301e+03
5.737205e+02,9.035934e+03
5.766132e+02,9.045915e+03
5.795059e+02,9.053286e+03
5.823986e+02,9.046643e+03
5.852913e+02,9.016446e+03
5.881840e+02,9.036888e+03
5.910767e+02,9.022777e+03
5.939694e+02,9.021435e+03
5.968621e+02,9.034391e+03
5.997548e+02,9.010936e+03
6.026475e+02,9.008447e+03
6.055402e+02,9.021990e+03
6.084329e+02,9.024017e+03
6.113256e+02,9.004715e+03
6.142183e+02,8.990400e+03
6.171110e+02,8.944794e+03
6.200037e+02,8.930965e+03
6.228964e+02,8.943644e+03
6.257891e+02,8.955369e+03
6.286818e+02,8.938965e+03
6.315745e+02,8.912319e+03
6.344672e+02,8.896278e+03
6.373599e+02,8.905021e+03
6.402526e+02,8.909548e+03
6.431453e+02,8.857854e+03
6.460380e+02,8.846693e+03
6.489307e+02,8.865697e+03
6.518234e+02,8.857970e+03
6.547161e+02,8.876890e+03
6.576088e+02,8.848974e+03
6.605015e+02,8.792806e+03
6.633942e+02,8.780923e+03
6.662869e+02,8.801014e+03
6.691796e+02,8.836073e+03
6.720723e+02,8.821150e+03
6.749650e+02,8.773442e+03
6.778577e+02,8.758858e+03
6.807504e+02,8.779999e+03
6.836431e+02,8.778800e+03
6.865358e+02,8.752457e+03
6.894285e+02,8.732174e+03
6.923212e+02,8.717582e+03
6.952139e+02,8.750688e+03
6.981066e+02,8.730870e+03
7.009993e+02,8.712177e+03
7.038920e+02,8.689758e+03
7.067847e+02,8.675251e+03
7.096774e+02,8.643317e+03
7.125701e+02,8.679454e+03
7.154628e+02,8.639659e+03
7.183555e+02,8.658372e+03
7.212482e+02,8.632993e+03
7.241409e+02,8.624927e+03
7.270336e+02,8.601753e+03
7.299263e+02,8.597051e+03
7.328190e+02,8.612279e+03
7.357117e+02,8.606314e+03
7.386044e+02,8.594952e+03
7.414971e+02,8.543897e+03
7.443898e+02,8.532350e+03
7.472825e+02,8.563968e+03
7.501752e+02,8.544258e+03
7.530679e+02,8.549151e+03
7.559606e+02,8.519533e+03
7.588533e+02,8.527217e+03
7.617460e+02,8.507756e+03
7.646387e+02,8.514176e+03
7.675314e+02,8.494645e+03
7.704241e+02,8.476116e+03
7.733168e+02,8.459601e+03
7.762095e+02,8.484412e+03
7.791022e+02,8.487128e+03
7.819949e+02,8.486402e+03
7.848876e+02,8.437568e+03
7.877803e+02,8.438132e+03
7.906730e+02,8.442903e+03
7.935657e+02,8.474947e+03
7.964584e+02,8.347371e+03
7.993511e+02,8.377713e+03
8.022438e+02,8.373276e+03
8.051365e+02,8.335224e+03
8.080292e+02,8.368810e+03
8.109219e+02,8.345161e+03
8.138146e+02,8.327147e+03
8.167073e+02,8.316554e+03
8.196000e+02,8.326993e+03
8.224927e+02,8.308434e+03
8.253854e+02,8.296863e+03
8.282781e+02,8.297054e+03
8.311708e+02,8.279730e+03
8.340635e+02,8.304479e+03
8.369562e+02,8.298703e+03
8.398489e+02,8.266146e+03
8.427416e+02,8.263491e+03
8.456343e+02,8.235755e+03
8.485270e+02,8.236567e+03
8.514197e+02,8.197917e+03
8.543124e+02,8.231559e+03
8.572051e+02,8.229580e+03
8.600978e+02,8.182111e+03
8.629905e+02,8.143382e+03
8.658832e+02,8.159476e+03
8.687759e+02,8.175049e+03
8.716686e+02,8.156657e+03
8.745613e+02,8.137510e+03
8.774540e+02,8.116597e+03
8.803467e+02,8.128987e+03
8.832394e+02,8.142534e+03
8.861321e+02,8.123688e+03
8.890248e+02,8.100337e+03
8.919175e+02,8.066389e+03
8.948102e+02,8.093581e+03
8.977029e+02,8.080979e+03
9.005956e+02,8.064913e+03
9.034883e+02,8.026759e+03
9.063810e+02,8.003796e+03
9.092737e+02,8.019109e+03
9.121664e+02,7.980953e+03
9.150591e+02,7.994142e+03
9.179518e+02,8.008449e+03
9.208445e+02,7.950098e+03
9.237372e+02,7.948683e+03
9.266299e+02,7.950520e+03
9.295226e+02,7.926029e+03
9.324153e+02,7.946462e+03
9.353080e+02,7.891477e+03
9.382007e+02,7.894065e+03
9.410934e+02,7.878335e+03
9.439861e+02,7.869361e+03
9.468788e+02,7.879211e+03
9.497715e+02,7.878241e+03
9.526642e+02,7.847919e+03
9.555569e+02,7.859519e+03
9.584496e+02,7.832583e+03
9.613423e+02,7.823381e+03
9.642350e+02,7.827010e+03
9.671277e+02,7.808820e+03
9.700204e+02,7.814382e+03
9.729131e+02,7.766877e+03
9.758058e+02,7.776812e+03
9.786985e+02,7.790725e+03
9.815912e+02,7.770452e+03
9.844839e+02,7.744063e+03
9.873766e+02,7.710739e+03
9.902693e+02,7.708050e+03
9.931620e+02,7.739066e+03
9.960547e+02,7.734956e+03
9.989474e+02,7.703412e+03
1.001840e+03,7.664455e+03
1.004733e+03,7.680400e+03
1.007626e+03,7.691081e+03
1.010518e+03,7.686251e+03
1.013411e+03,7.659167e+03
1.016304e+03,7.641354e+03
1.019196e+03,7.636505e+03
1.022089e+03,7.622129e+03
1.024982e+03,7.621085e+03
1.027875e+03,7.592612e+03
1.030767e+03,7.583652e+03
1.033660e+03,7.599638e+03
1.036552e+03,7.607678e+03
1.039445e+03,7.607904e+03
1.042338e+03,7.605865e+03
1.045231e+03,7.551855e+03
1.048123e+03,7.548162e+03
1.051016e+03,7.548458e+03
1.053909e+03,7.556896e+03
1.056802e+03,7.565311e+03
1.059694e+03,7.543529e+03
1.062587e+03,7.516268e+03
1.065479e+03,7.522283e+03
1.068372e+03,7.529029e+03
1.071265e+03,7.537972e+03
1.074158e+03,7.547847e+03
1.077050e+03,7.512307e+03
1.079943e+03,7.498872e+03
1.082836e+03,7.529175e+03
1.085729e+03,7.508716e+03
1.088621e+03,7.546397e+03
1.091514e+03,7.529219e+03
1.094406e+03,7.483760e+03
1.097299e+03,7.449281e+03
1.100192e+03,7.482953e+03
1.103085e+03,7.451000e+03
1.105977e+03,7.455453e+03
1.108870e+03,7.454584e+03
1.111763e+03,7.405908e+03
1.114656e+03,7.414157e+03
1.117548e+03,7.426796e+03
1.120441e+03,7.419047e+03
1.123334e+03,7.392521e+03
1.126226e+03,7.393608e+03
1.129119e+03,7.392190e+03
1.132012e+03,7.344404e+03
1.134904e+03,7.369191e+03
1.137797e+03,7.327882e+03
1.140690e+03,7.356446e+03
1.143583e+03,7.353663e+03
1.146475e+03,7.333237e+03
1.149368e+03,7.362250e+03
1.152261e+03,7.337458e+03
1.155153e+03,7.322080e+03
1.158046e+03,7.291646e+03
1.160939e+03,7.305621e+03
1.163831e+03,7.318054e+03
1.166724e+03,7.315777e+03
1.169617e+03,7.264874e+03
1.172510e+03,7.263984e+03
1.175402e+03,7.271782e+03
1.178295e+03,7.288524e+03
1.181188e+03,7.249704e+03
1.184080e+03,7.254555e+03
1.186973e+03,7.259683e+03
1.189866e+03,7.229205e+03
1.192758e+03,7.249019e+03
1.195651e+03,7.256763e+03
1.198544e+03,7.264771e+03
1.201437e+03,7.228488e+03
1.204329e+03,7.239236e+03
1.207222e+03,7.208136e+03
1.210115e+03,7.238351e+03
1.213007e+03,7.217861e+03
1.215900e+03,7.199229e+03
1.218793e+03,7.188083e+03
1.221685e+03,7.187439e+03
1.224578e+03,7.181840e+03
1.227471e+03,7.187702e+03
1.230364e+03,7.163415e+03
1.233256e+03,7.163108e+03
1.236149e+03,7.130348e+03
1.239042e+03,7.146629e+03
1.241934e+03,7.170233e+03
1.244827e+03,7.131286e+03
1.247720e+03,7.102883e+03
1.250612e+03,7.124087e+03
1.253505e+03,7.118470e+03
1.256398e+03,7.107427e+03
1.259291e+03,7.114799e+03
1.262183e+03,7.070872e+03
1.265076e+03,7.077310e+03
1.267969e+03,7.071864e+03
1.270861e+03,7.068349e+03
1.273754e+03,7.081812e+03
1.276647e+03,7.077015e+03
1.279539e+03,7.067507e+03
1.282432e+03,7.050847e+03
1.285325e+03,7.065316e+03
1.288218e+03,7.030055e+03
1.291110e+03,7.032133e+03
1.294003e+03,7.047877e+03
1.296896e+03,6.995907e+03
1.299788e+03,6.999258e+03
1.302681e+03,7.038524e+03
1.305574e+03,7.018165e+03
1.308466e+03,6.984502e+03
1.311359e+03,6.981983e+03
1.314252e+03,7.002836e+03
1.317145e+03,7.004161e+03
1.320037e+03,7.015502e+03
1.322930e+03,6.999327e+03
1.325823e+03,6.966564e+03
1.328715e+03,6.957639e+03
1.331608e+03,6.980472e+03
1.334501e+03,6.993938e+03
1.337393e+03,6.991194e+03
1.340286e+03,6.966654e+03
1.343179e+03,6.931938e+03
1.346072e+03,6.932104e+03
1.348964e+03,6.953306e+03
1.351857e+03,6.946215e+03
1.354750e+03,6.909735e+03
1.357642e+03,6.888591e+03
1.360535e+03,6.893299e+03
1.363428e+03,6.871231e+03
1.366320e+03,6.886633e+03
1.369213e+03,6.852100e+03
1.372106e+03,6.856482e+03
1.374999e+03,6.852390e+03
1.377891e+03,6.851364e+03
1.380784e+03,6.841833e+03
1.383677e+03,6.844889e+03
1.386569e+03,6.801197e+03
1.389462e+03,6.789865e+03
1.392355e+03,6.761560e+03
1.395247e+03,6.745404e+03
1.398140e+03,6.753132e+03
1.401033e+03,6.781644e+03
1.403926e+03,6.749012e+03
1.406818e+03,6.725688e+03
1.409711e+03,6.703497e+03
1.412604e+03,6.721394e+03
1.415496e+03,6.715155e+03
1.418389e+03,6.703319e+03
1.421282e+03,6.687309e+03
1.424174e+03,6.672896e+03
1.427067e+03,6.692580e+03
1.429960e+03,6.681511e+03
1.432853e+03,6.671782e+03
1.435745e+03,6.657752e+03
1.438638e+03,6.628219e+03
1.441531e+03,6.637575e+03
1.444423e+03,6.655987e+03
1.447316e+03,6.609735e+03
1.450209e+03,6.619958e+03
1.453101e+03,6.582325e+03
1.455994e+03,6.617657e+03
1.458887e+03,6.622644e+03
1.461780e+03,6.599498e+03
1.464672e+03,6.601548e+03
1.467565e+03,6.546659e+03
1.470458e+03,6.562668e+03
1.473350e+03,6.543509e+03
1.476243e+03,6.539762e+03
1.479136e+03,6.543588e+03
1.482028e+03,6.509050e+03
1.484921e+03,6.504683e+03
1.487814e+03,6.506885e+03
1.490707e+03,6.494323e+03
1.493599e+03,6.496500e+03
1.496492e+03,6.479662e+03
1.499385e+03,6.453417e+03
1.502277e+03,6.478689e+03
1.505170e+03,6.458867e+03
1.508063e+03,6.465995e+03
1.510955e+03,6.470658e+03
1.513848e+03,6.439539e+03
1.516741e+03,6.436005e+03
1.519634e+03,6.423828e+03
1.522526e+03,6.436878e+03
1.525419e+03,6.399055e+03
1.528312e+03,6.403561e+03
1.531204e+03,6.359377e+03
1.534097e+03,6.388316e+03
1.536990e+03,6.381250e+03
1.539882e+03,6.370833e+03
1.542775e+03,6.356414e+03
1.545668e+03,6.342953e+03
1.548561e+03,6.362410e+03
1.551453e+03,6.372232e+03
1.554346e+03,6.368639e+03
1.557239e+03,6.349369e+03
1.560131e+03,6.340693e+03
1.563024e+03,6.346783e+03
1.565917e+03,6.372898e+03
1.568809e+03,6.375380e+03
1.571702e+03,6.393970e+03
1.574595e+03,6.368820e+03
1.577488e+03,6.366778e+03
1.580380e+03,6.354919e+03
1.583273e+03,6.372000e+03
1.586166e+03,6.357745e+03
1.589058e+03,6.320116e+03
1.591951e+03,6.306945e+03
1.594844e+03,6.322344e+03
1.597736e+03,6.303831e+03
1.600629e+03,6.318853e+03
1.603522e+03,6.291275e+03
1.606415e+03,6.266929e+03
1.609307e+03,6.249587e+03
1.612200e+03,6.239792e+03
1.615093e+03,6.219320e+03
1.617985e+03,6.203991e+03
1.620878e+03,6.194100e+03
1.623771e+03,6.153846e+03
1.626663e+03,6.156788e+03
1.629556e+03,6.153698e+03
1.632449e+03,6.172366e+03
1.635342e+03,6.117375e+03
1.638234e+03,6.107590e+03
1.641127e+03,6.053910e+03
1.644020e+03,6.107332e+03
1.646912e+03,6.080296e+03
1.649805e+03,6.048428e+03
1.652698e+03,6.036612e+03
1.655590e+03,6.011693e+03
1.658483e+03,6.046682e+03
1.661376e+03,6.022688e+03
1.664269e+03,6.001266e+03
1.667161e+03,5.999107e+03
1.670054e+03,5.979850e+03
1.672947e+03,5.998226e+03
1.675839e+03,5.954448e+03
1.678732e+03,5.983886e+03
1.681625e+03,5.951287e+03
1.684517e+03,5.915187e+03
1.687410e+03,5.928034e+03
1.690303e+03,5.937157e+03
1.693196e+03,5.897442e+03
1.696088e+03,5.877785e+03
1.698981e+03,5.903068e+03
1.701874e+03,5.884020e+03
1.704766e+03,5.867144e+03
1.707659e+03,5.859826e+03
1.710552e+03,5.860883e+03
1.713444e+03,5.847470e+03
1.716337e+03,5.827399e+03
1.719230e+03,5.813841e+03
1.722123e+03,5.833168e+03
1.725015e+03,5.795596e+03
1.727908e+03,5.784196e+03
1.730801e+03,5.783519e+03
1.733693e+03,5.779241e+03
1.736586e+03,5.792619e+03
1.739479e+03,5.761349e+03
1.742371e+03,5.762425e+03
1.745264e+03,5.742507e+03
1.748157e+03,5.736766e+03
1.751050e+03,5.733702e+03
1.753942e+03,5.726183e+03
1.756835e+03,5.740971e+03
1.759728e+03,5.695460e+03
1.762620e+03,5.670304e+03
1.765513e+03,5.693291e+03
1.768406e+03,5.670686e+03
1.771298e+03,5.677982e+03
1.774191e+03,5.698875e+03
1.777084e+03,5.640562e+03
1.779977e+03,5.629973e+03
1.782869e+03,5.642597e+03
1.785762e+03,5.634217e+03
1.788655e+03,5.625282e+03
1.791547e+03,5.591898e+03
1.794440e+03,5.585607e+03
1.797333e+03,5.583731e+03
1.800225e+03,5.578998e+03
1.803118e+03,5.575758e+03
1.806011e+03,5.535164e+03
1.808904e+03,5.561901e+03
1.811796e+03,5.500326e+03
1.814689e+03,5.538566e+03
1.817582e+03,5.532817e+03
1.820474e+03,5.512098e+03
1.823367e+03,5.493141e+03
1.826260e+03,5.477641e+03
1.829152e+03,5.480375e+03
1.832045e+03,5.482884e+03
1.834938e+03,5.473528e+03
1.837831e+03,5.460026e+03
1.840723e+03,5.404740e+03
1.843616e+03,5.470154e+03
1.846509e+03,5.443972e+03
1.849401e+03,5.398494e+03
1.852294e+03,5.424835e+03
1.855187e+03,5.386921e+03
1.858079e+03,5.387721e+03
1.860972e+03,5.370202e+03
1.863865e+03,5.396330e+03
1.866758e+03,5.357554e+03
1.869650e+03,5.351234e+03
1.872543e+03,5.348172e+03
1.875436e+03,5.351525e+03
1.878328e+03,5.328348e+03
1.881221e+03,5.314797e+03
1.884114e+03,5.298236e+03
1.887006e+03,5.274837e+03
1.889899e+03,5.276932e+03
1.892792e+03,5.268295e+03
1.895685e+03,5.251208e+03
1.898577e+03,5.256879e+03
1.901470e+03,5.274401e+03
1.904363e+03,5.214952e+03
1.907255e+03,5.254726e+03
1.910148e+03,5.188452e+03
1.913041e+03,5.196486e+03
1.915933e+03,5.185416e+03
1.918826e+03,5.170858e+03
1.921719e+03,5.182103e+03
1.924612e+03,5.185562e+03
1.927504e+03,5.160699e+03
1.930397e+03,5.162966e+03
1.933290e+03,5.140023e+03
1.936182e+03,5.128727e+03
1.939075e+03,5.138750e+03
1.941968e+03,5.107295e+03
1.944860e+03,5.093933e+03
1.947753e+03,5.090099e+03
1.950646e+03,5.085081e+03
1.953539e+03,5.087196e+03
1.956431e+03,5.079751e+03
1.959324e+03,5.020799e+03
1.962217e+03,5.028085e+03
1.965109e+03,4.985741e+03
1.968002e+03,5.037278e+03
1.970895e+03,5.011942e+03
1.973787e+03,5.014539e+03
1.976680e+03,4.998181e+03
1.979573e+03,4.977758e+03
1.982466e+03,5.001216e+03
1.985358e+03,4.984448e+03
1.988251e+03,4.957865e+03
1.991144e+03,4.919739e+03
1.994036e+03,4.936267e+03
1.996929e+03,4.907228e+03
1.999822e+03,4.910250e+03
2.002714e+03,4.911346e+03
2.005607e+03,4.893919e+03
2.008500e+03,4.866376e+03
2.011393e+03,4.873394e+03
2.014285e+03,4.883398e+03
2.017178e+03,4.851952e+03
2.020071e+03,4.861992e+03
2.022963e+03,4.834289e+03
2.025856e+03,4.816133e+03
2.028749e+03,4.810044e+03
2.031641e+03,4.801138e+03
2.034534e+03,4.797305e+03
2.037427e+03,4.768866e+03
2.040320e+03,4.773773e+03
2.043212e+03,4.764932e+03
2.046105e+03,4.775388e+03
2.048998e+03,4.742747e+03
2.051890e+03,4.722112e+03
2.054783e+03,4.702091e+03
2.057676e+03,4.682306e+03
2.060568e+03,4.695995e+03
2.063461e+03,4.710507e+03
2.066354e+03,4.641216e+03
2.069247e+03,4.685396e+03
2.072139e+03,4.646364e+03
2.075032e+03,4.615079e+03
2.077925e+03,4.634533e+03
2.080817e+03,4.626438e+03
2.083710e+03,4.612001e+03
2.086603e+03,4.582967e+03
2.089496e+03,4.583299e+03
2.092388e+03,4.575476e+03
2.095281e+03,4.589586e+03
2.098174e+03,4.583214e+03
2.101066e+03,4.568402e+03
2.103959e+03,4.547085e+03
2.106852e+03,4.546675e+03
2.109744e+03,4.577282e+03
2.112637e+03,4.520245e+03
2.115530e+03,4.494100e+03
2.118422e+03,4.471056e+03
2.121315e+03,4.493669e+03
2.124208e+03,4.483792e+03
2.127101e+03,4.458764e+03
2.129993e+03,4.451340e+03
2.132886e+03,4.451447e+03
2.135779e+03,4.454682e+03
2.138671e+03,4.441621e+03
2.141564e+03,4.429535e+03
2.144457e+03,4.409624e+03
2.147350e+03,4.379852e+03
2.150242e+03,4.357710e+03
2.153135e+03,4.399519e+03
2.156028e+03,4.364593e+03
2.158920e+03,4.345068e+03
2.161813e+03,4.330437e+03
2.164706e+03,4.341727e+03
2.167598e+03,4.334947e+03
2.170491e+03,4.338083e+03
2.173384e+03,4.341105e+03
2.176277e+03,4.314916e+03
2.179169e+03,4.286756e+03
2.182062e+03,4.253803e+03
2.184955e+03,4.293529e+03
2.187847e+03,4.287323e+03
2.190740e+03,4.240171e+03
2.193633e+03,4.238826e+03
2.196525e+03,4.226219e+03
2.199418e+03,4.196962e+03
2.202311e+03,4.211556e+03
2.205204e+03,4.241857e+03
2.208096e+03,4.211968e+03
2.210989e+03,4.150278e+03
2.213882e+03,4.144246e+03
2.216774e+03,4.159169e+03
2.219667e+03,4.134424e+03
2.222560e+03,4.126572e+03
2.225452e+03,4.087909e+03
2.228345e+03,4.091397e+03
2.231238e+03,4.098696e+03
2.234131e+03,4.088137e+03
2.237023e+03,4.078038e+03
2.239916e+03,4.050644e+03
2.242809e+03,4.060317e+03
2.245701e+03,4.042760e+03
2.248594e+03,4.049916e+03
2.251487e+03,4.032040e+03
2.254379e+03,4.021025e+03
2.257272e+03,3.994730e+03
2.260165e+03,3.987521e+03
2.263058e+03,3.990924e+03
2.265950e+03,3.982275e+03
2.268843e+03,3.974325e+03
2.271736e+03,3.950146e+03
2.274628e+03,3.934668e+03
2.277521e+03,3.946926e+03
2.280414e+03,3.965658e+03
2.283306e+03,3.935767e+03
2.286199e+03,3.879441e+03
2.289092e+03,3.907815e+03
2.291985e+03,3.891187e+03
2.294877e+03,3.885097e+03
2.297770e+03,3.887064e+03
2.300663e+03,3.876398e+03
2.303555e+03,3.845898e+03
2.306448e+03,3.844975e+03
2.309341e+03,3.833331e+03
2.312233e+03,3.825000e+03
2.315126e+03,3.828022e+03
2.318019e+03,3.821551e+03
2.320912e+03,3.791354e+03
2.323804e+03,3.793310e+03
2.326697e+03,3.802519e+03
2.329590e+03,3.791612e+03
2.332482e+03,3.776500e+03
2.335375e+03,3.750443e+03
2.338268e+03,3.746966e+03
2.341160e+03,3.713847e+03
2.344053e+03,3.736683e+03
2.346946e+03,3.759735e+03
2.349839e+03,3.703846e+03
2.352731e+03,3.701302e+03
2.355624e+03,3.688167e+03
2.358517e+03,3.714324e+03
2.361409e+03,3.692649e+03
2.364302e+03,3.636085e+03
2.367195e+03,3.629900e+03
2.370087e+03,3.645167e+03
2.372980e+03,3.661470e+03
2.375873e+03,3.668247e+03
2.378766e+03,3.608998e+03
2.381658e+03,3.600087e+03
2.384551e+03,3.626388e+03
2.387444e+03,3.613161e+03
2.390336e+03,3.585257e+03
2.393229e+03,3.581548e+03
2.396122e+03,3.577559e+03
2.399014e+03,3.545795e+03
2.401907e+03,3.567372e+03
2.404800e+03,3.538752e+03
2.407693e+03,3.552698e+03
2.410585e+03,3.515462e+03
2.413478e+03,3.509199e+03
2.416371e+03,3.531728e+03
2.419263e+03,3.485908e+03
2.422156e+03,3.494527e+03
2.425049e+03,3.473645e+03
2.427941e+03,3.465349e+03
2.430834e+03,3.488126e+03
2.433727e+03,3.469208e+03
2.436620e+03,3.469487e+03
2.439512e+03,3.450014e+03
2.442405e+03,3.445371e+03
2.445298e+03,3.477220e+03
2.448190e+03,3.414036e+03
2.451083e+03,3.449825e+03
2.453976e+03,3.408746e+03
2.456868e+03,3.397294e+03
2.459761e+03,3.398484e+03
2.462654e+03,3.414734e+03
2.465547e+03,3.378358e+03
2.468439e+03,3.383907e+03
2.471332e+03,3.373130e+03
2.474225e+03,3.373739e+03
2.477117e+03,3.370311e+03
2.480010e+03,3.361140e+03
2.482903e+03,3.342273e+03
2.485795e+03,3.326325e+03
2.488688e+03,3.307767e+03
2.491581e+03,3.302622e+03
2.494474e+03,3.330799e+03
2.497366e+03,3.297559e+03
2.500259e+03,3.287868e+03
2.503152e+03,3.292794e+03
2.506044e+03,3.275765e+03
2.508937e+03,3.265839e+03
2.511830e+03,3.262887e+03
2.514722e+03,3.286302e+03
2.517615e+03,3.251770e+03
2.520508e+03,3.236880e+03
2.523401e+03,3.236534e+03
2.526293e+03,3.237741e+03
2.529186e+03,3.223175e+03
2.532079e+03,3.222400e+03
2.534971e+03,3.213509e+03
2.537864e+03,3.202296e+03
2.540757e+03,3.201311e+03
2.543649e+03,3.188759e+03
2.546542e+03,3.194572e+03
2.549435e+03,3.212484e+03
2.552328e+03,3.159715e+03
2.555220e+03,3.189661e+03
2.558113e+03,3.173617e+03
2.561006e+03,3.163103e+03
2.563898e+03,3.160308e+03
2.566791e+03,3.170076e+03
2.569684e+03,3.135833e+03
2.572576e+03,3.120286e+03
2.575469e+03,3.127088e+03
2.578362e+03,3.145616e+03
2.581255e+03,3.111885e+03
2.584147e+03,3.104526e+03
2.587040e+03,3.099133e+03
2.589933e+03,3.107207e+03
2.592825e+03,3.073764e+03
2.595718e+03,3.090333e+03
2.598611e+03,3.079074e+03
2.601503e+03,3.059156e+03
2.604396e+03,3.071992e+03
2.607289e+03,3.059134e+03
2.610182e+03,3.064295e+03
2.613074e+03,3.065550e+03
2.615967e+03,3.055103e+03
2.618860e+03,3.044872e+03
2.621752e+03,3.049183e+03
2.624645e+03,3.032721e+03
2.627538e+03,3.024816e+03
2.630430e+03,3.011582e+03
2.633323e+03,2.992995e+03
2.636216e+03,2.997095e+03
2.639109e+03,3.036301e+03
2.642001e+03,2.989379e+03
2.644894e+03,2.969852e+03
2.647787e+03,2.969156e+03
2.650679e+03,2.979098e+03
2.653572e+03,2.976177e+03
2.656465e+03,2.968019e+03
2.659357e+03,2.939480e+03
2.662250e+03,2.952065e+03
2.665143e+03,2.945618e+03
2.668036e+03,2.988143e+03
2.670928e+03,2.948645e+03
2.673821e+03,2.932148e+03
2.676714e+03,2.917273e+03
2.679606e+03,2.916508e+03
2.682499e+03,2.931855e+03
2.685392e+03,2.939374e+03
2.688284e+03,2.896535e+03
2.691177e+03,2.894907e+03
2.694070e+03,2.916696e+03
2.696963e+03,2.883272e+03
2.699855e+03,2.890980e+03
2.702748e+03,2.882792e+03
2.705641e+03,2.880563e+03
2.708533e+03,2.863595e+03
2.711426e+03,2.860278e+03
2.714319e+03,2.867133e+03
2.717211e+03,2.906925e+03
2.720104e+03,2.822056e+03
2.722997e+03,2.865743e+03
2.725890e+03,2.837443e+03
2.728782e+03,2.821231e+03
2.731675e+03,2.835378e+03
2.734568e+03,2.823816e+03
2.737460e+03,2.818074e+03
2.740353e+03,2.791832e+03
2.743246e+03,2.799799e+03
2.746138e+03,2.806491e+03
2.749031e+03,2.799561e+03
2.751924e+03,2.785155e+03
2.754817e+03,2.804937e+03
2.757709e+03,2.760292e+03
2.760602e+03,2.766117e+03
2.763495e+03,2.808313e+03
2.766387e+03,2.786659e+03
2.769280e+03,2.753063e+03
2.772173e+03,2.747691e+03
2.775065e+03,2.768992e+03
2.777958e+03,2.757080e+03
2.780851e+03,2.731817e+03
2.783744e+03,2.767197e+03
2.786636e+03,2.716375e+03
2.789529e+03,2.746931e+03
2.792422e+03,2.728700e+03
2.795314e+03,2.720961e+03
2.798207e+03,2.717571e+03
2.801100e+03,2.745410e+03
2.803992e+03,2.709522e+03
2.806885e+03,2.725986e+03
2.809778e+03,2.666212e+03
2.812671e+03,2.703889e+03
2.815563e+03,2.707511e+03
2.818456e+03,2.695496e+03
2.821349e+03,2.684171e+03
2.824241e+03,2.700541e+03
2.827134e+03,2.700844e+03
2.830027e+03,2.670008e+03
2.832919e+03,2.651218e+03
2.835812e+03,2.688372e+03
2.838705e+03,2.657149e+03
2.841598e+03,2.678432e+03
2.844490e+03,2.658481e+03
2.847383e+03,2.660628e+03
2.850276e+03,2.659153e+03
2.853168e+03,2.671675e+03
2.856061e+03,2.638740e+03
2.858954e+03,2.644409e+03
2.861846e+03,2.620714e+03
2.864739e+03,2.628833e+03
2.867632e+03,2.633305e+03
2.870525e+03,2.647296e+03
2.873417e+03,2.635300e+03
2.876310e+03,2.637535e+03
2.879203e+03,2.660346e+03
2.882095e+03,2.630200e+03
2.884988e+03,2.636453e+03
2.887881e+03,2.629180e+03
2.890773e+03,2.632886e+03
2.893666e+03,2.636713e+03
2.896559e+03,2.642293e+03
2.899452e+03,2.615414e+03
2.902344e+03,2.592159e+03
2.905237e+03,2.640961e+03
2.908130e+03,2.547108e+03
2.911022e+03,2.596560e+03
2.913915e+03,2.607353e+03
2.916808e+03,2.587327e+03
2.919700e+03,2.591506e+03
2.922593e+03,2.560469e+03
2.925486e+03,2.554495e+03
2.928379e+03,2.545292e+03
2.931271e+03,2.553350e+03
2.934164e+03,2.556517e+03
2.937057e+03,2.560461e+03
2.939949e+03,2.511990e+03
2.942842e+03,2.515191e+03
2.945735e+03,2.551172e+03
2.948627e+03,2.512806e+03
2.951520e+03,2.577768e+03
2.954413e+03,2.527162e+03
2.957306e+03,2.527759e+03
2.960198e+03,2.522212e+03
2.963091e+03,2.539105e+03
2.965984e+03,2.499856e+03
2.968876e+03,2.510410e+03
2.971769e+03,2.477067e+03
2.974662e+03,2.494867e+03
2.977554e+03,2.449701e+03
2.980447e+03,2.482034e+03
2.983340e+03,2.461159e+03
2.986233e+03,2.472310e+03
2.989125e+03,2.424305e+03
2.992018e+03,2.430207e+03
2.994911e+03,2.435889e+03
2.997803e+03,2.466884e+03
3.000696e+03,2.402985e+03
3.003589e+03,2.436473e+03
3.006481e+03,2.418776e+03
3.009374e+03,2.455318e+03
3.012267e+03,2.417519e+03
3.015160e+03,2.428149e+03
3.018052e+03,2.369749e+03
3.020945e+03,2.440504e+03
3.023838e+03,2.400681e+03
3.026730e+03,2.378588e+03
3.029623e+03,2.404053e+03
3.032516e+03,2.386352e+03
3.035408e+03,2.397674e+03
3.038301e+03,2.384181e+03
3.041194e+03,2.432316e+03
3.044087e+03,2.391236e+03
3.046979e+03,2.353195e+03
3.049872e+03,2.341998e+03
3.052765e+03,2.403957e+03
3.055657e+03,2.410902e+03
3.058550e+03,2.325942e+03
3.061443e+03,2.362974e+03
3.064335e+03,2.366968e+03
3.067228e+03,2.337198e+03
3.070121e+03,2.403754e+03
3.073014e+03,2.341090e+03
3.075906e+03,2.324144e+03
3.078799e+03,2.352037e+03
3.081692e+03,2.390089e+03
3.084584e+03,2.393892e+03
3.087477e+03,2.316054e+03
3.090370e+03,2.346582e+03
3.093262e+03,2.367997e+03
3.096155e+03,2.367594e+03
3.099048e+03,2.343867e+03
3.101941e+03,2.336003e+03
3.104833e+03,2.337137e+03
3.107726e+03,2.335528e+03
3.110619e+03,2.347591e+03
3.113511e+03,2.280719e+03
3.116404e+03,2.355137e+03
3.119297e+03,2.304703e+03
3.122189e+03,2.251321e+03
3.125082e+03,2.316271e+03
3.127975e+03,2.329313e+03
3.130868e+03,2.343616e+03
3.133760e+03,2.351734e+03
3.136653e+03,2.254741e+03
3.139546e+03,2.302687e+03
3.142438e+03,2.285521e+03
3.145331e+03,2.252349e+03
3.148224e+03,2.336450e+03
3.151116e+03,2.341547e+03
3.154009e+03,2.299827e+03
3.156902e+03,2.356216e+03
3.159795e+03,2.259749e+03
3.162687e+03,2.278327e+03
3.165580e+03,2.319968e+03
3.168473e+03,2.287255e+03
3.171365e+03,2.268284e+03
3.174258e+03,2.314126e+03
3.177151e+03,2.234145e+03
3.180043e+03,2.358876e+03
3.182936e+03,2.280118e+03
3.185829e+03,2.260973e+03
3.188722e+03,2.272390e+03
3.191614e+03,2.271466e+03
3.194507e+03,2.293404e+03
3.197400e+03,2.302510e+03
3.200292e+03,2.302383e+03
3.203185e+03,0.000000e+00
3.206078e+03,0.000000e+00
3.208970e+03,0.000000e+00
3.211863e+03,0.000000e+00
3.214756e+03,0.000000e+00
3.217649e+03,0.000000e+00
3.220541e+03,0.000000e+00
3.223434e+03,0.000000e+00
3.226327e+03,0.000000e+00
3.229219e+03,0.000000e+00
3.232112e+03,0.000000e+00
3.235005e+03,0.000000e+00
3.237897e+03,0.000000e+00
3.240790e+03,0.000000e+00
3.243683e+03,0.000000e+00
3.246576e+03,0.000000e+00
3.249468e+03,0.000000e+00
3.252361e+03,0.000000e+00
3.255254e+03,0.000000e+00
3.258146e+03,0.000000e+00
3.261039e+03,0.000000e+00
3.263932e+03,0.000000e+00
3.266824e+03,0.000000e+00
3.269717e+03,0.000000e+00
3.272610e+03,0.000000e+00
3.275503e+03,0.000000e+00
3.278395e+03,0.000000e+00
3.281288e+03,0.000000e+00
3.284181e+03,0.000000e+00
3.287073e+03,0.000000e+00
3.289966e+03,0.000000e+00
3.292859e+03,0.000000e+00
3.295751e+03,0.000000e+00
3.298644e+03,0.000000e+00
3.301537e+03,0.000000e+00
3.304430e+03,0.000000e+00
3.307322e+03,0.000000e+00
3.310215e+03,0.000000e+00
3.313108e+03,0.000000e+00
3.316000e+03,0.000000e+00
3.318893e+03,0.000000e+00
3.321786e+03,0.000000e+00
3.324678e+03,0.000000e+00
3.327571e+03,0.000000e+00
3.330464e+03,0.000000e+00
3.333357e+03,0.000000e+00
3.336249e+03,0.000000e+00
3.339142e+03,0.000000e+00
3.342035e+03,0.000000e+00
3.344927e+03,0.000000e+00
3.347820e+03,0.000000e+00
3.350713e+03,0.000000e+00
3.353605e+03,0.000000e+00
3.356498e+03,0.000000e+00
3.359391e+03,0.000000e+00
3.362284e+03,0.000000e+00
3.365176e+03,0.000000e+00
3.368069e+03,0.000000e+00
3.370962e+03,0.000000e+00
3.373854e+03,0.000000e+00
3.376747e+03,0.000000e+00
3.379640e+03,0.000000e+00
3.382532e+03,0.000000e+00
3.385425e+03,0.000000e+00
3.388318e+03,0.000000e+00
3.391211e+03,0.000000e+00
3.394103e+03,0.000000e+00
3.396996e+03,0.000000e+00
3.399889e+03,0.000000e+00
3.402781e+03,0.000000e+00
3.405674e+03,0.000000e+00
3.408567e+03,0.000000e+00
3.411459e+03,0.000000e+00
3.414352e+03,0.000000e+00
3.417245e+03,0.000000e+00
3.420138e+03,0.000000e+00
3.423030e+03,0.000000e+00
3.425923e+03,0.000000e+00
3.428816e+03,0.000000e+00
3.431708e+03,0.000000e+00
3.434601e+03,0.000000e+00
3.437494e+03,0.000000e+00
3.440386e+03,0.000000e+00
3.443279e+03,0.000000e+00
3.446172e+03,0.000000e+00
3.449065e+03,0.000000e+00
3.451957e+03,0.000000e+00
3.454850e+03,0.000000e+00
3.457743e+03,0.000000e+00
3.460635e+03,0.000000e+00
3.463528e+03,0.000000e+00
3.466421e+03,0.000000e+00
3.469313e+03,0.000000e+00
3.472206e+03,0.000000e+00
3.475099e+03,0.000000e+00
3.477992e+03,0.000000e+00
3.480884e+03,0.000000e+00
3.483777e+03,0.000000e+00
3.486670e+03,0.000000e+00
3.489563e+03,0.000000e+00
3.492455e+03,0.000000e+00
3.495348e+03,0.000000e+00
3.498240e+03,0.000000e+00
3.500169e+03,0.000000e+00