File: RAMAN_data/20012023_r3/blue fibre4.CSV
9.931763e+01,0.000000e+00
1.022103e+02,0.000000e+00
1.051030e+02,0.000000e+00
1.079957e+02,0.000000e+00
1.108884e+02,0.000000e+00
1.137811e+02,0.000000e+00
1.166738e+02,0.000000e+00
1.195665e+02,0.000000e+00
1.224592e+02,0.000000e+00
1.253519e+02,0.000000e+00
1.282446e+02,0.000000e+00
1.311373e+02,0.000000e+00
1.340300e+02,0.000000e+00
1.369227e+02,0.000000e+00
1.398154e+02,0.000000e+00
1.427081e+02,0.000000e+00
1.456008e+02,0.000000e+00
1.484935e+02,0.000000e+00
1.513862e+02,0.000000e+00
1.542789e+02,0.000000e+00
1.571716e+02,0.000000e+00
1.600643e+02,0.000000e+00
1.629570e+02,0.000000e+00
1.658497e+02,0.000000e+00
1.687424e+02,0.000000e+00
1.716351e+02,0.000000e+00
1.745278e+02,0.000000e+00
1.774205e+02,0.000000e+00
1.803132e+02,0.000000e+00
1.832059e+02,0.000000e+00
1.860986e+02,0.000000e+00
1.889913e+02,0.000000e+00
1.918840e+02,0.000000e+00
1.947767e+02,0.000000e+00
1.976694e+02,0.000000e+00
2.005621e+02,1.047899e+04
2.034548e+02,1.051899e+04
2.063475e+02,1.054891e+04
2.092402e+02,1.054938e+04
2.121329e+02,1.055037e+04
2.150256e+02,1.057905e+04
2.179183e+02,1.060927e+04
2.208110e+02,1.066068e+04
2.237037e+02,1.067604e+04
2.265964e+02,1.068651e+04
2.294892e+02,1.071479e+04
2.323819e+02,1.076347e+04
2.352746e+02,1.080069e+04
2.381673e+02,1.083713e+04
2.410600e+02,1.083247e+04
2.439527e+02,1.084990e+04
2.468454e+02,1.088676e+04
2.497381e+02,1.092278e+04
2.526308e+02,1.095922e+04
2.555235e+02,1.097428e+04
2.584161e+02,1.097618e+04
2.613088e+02,1.101875e+04
2.642015e+02,1.107090e+04
2.670942e+02,1.109680e+04
2.699869e+02,1.113129e+04
2.728796e+02,1.114345e+04
2.757723e+02,1.118588e+04
2.786650e+02,1.122837e+04
2.815577e+02,1.125757e+04
2.844504e+02,1.128443e+04
2.873431e+02,1.128894e+04
2.902358e+02,1.131662e+04
2.931285e+02,1.134527e+04
2.960212e+02,1.138987e+04
2.989139e+02,1.141438e+04
3.018066e+02,1.143403e+04
3.046993e+02,1.146588e+04
3.075920e+02,1.148845e+04
3.104847e+02,1.152735e+04
3.133774e+02,1.157835e+04
3.162701e+02,1.159458e+04
3.191628e+02,1.160775e+04
3.220555e+02,1.163998e+04
3.249482e+02,1.168473e+04
3.278409e+02,1.172350e+04
3.307336e+02,1.175910e+04
3.336263e+02,1.178434e+04
3.365190e+02,1.179563e+04
3.394117e+02,1.184454e+04
3.423044e+02,1.188976e+04
3.451971e+02,1.195046e+04
3.480898e+02,1.197444e+04
3.509825e+02,1.198815e+04
3.538752e+02,1.203829e+04
3.567680e+02,1.208699e+04
3.596607e+02,1.212620e+04
3.625534e+02,1.216527e+04
3.654461e+02,1.215099e+04
3.683388e+02,1.217619e+04
3.712315e+02,1.223918e+04
3.741242e+02,1.227458e+04
3.770169e+02,1.231110e+04
3.799096e+02,1.235298e+04
3.828023e+02,1.236815e+04
3.856950e+02,1.240989e+04
3.885877e+02,1.246675e+04
3.914804e+02,1.251700e+04
3.943731e+02,1.254452e+04
3.972658e+02,1.257093e+04
4.001585e+02,1.259455e+04
4.030512e+02,1.265127e+04
4.059439e+02,1.268371e+04
4.088366e+02,1.272614e+04
4.117293e+02,1.274362e+04
4.146220e+02,1.277177e+04
4.175147e+02,1.281287e+04
4.204074e+02,1.285215e+04
4.233001e+02,1.288550e+04
4.261928e+02,1.290769e+04
4.290855e+02,1.294545e+04
4.319782e+02,1.298619e+04
4.348709e+02,1.304495e+04
4.377636e+02,1.309429e+04
4.406563e+02,1.313490e+04
4.435490e+02,1.317557e+04
4.464417e+02,1.321596e+04
4.493344e+02,1.326363e+04
4.522271e+02,1.329423e+04
4.551198e+02,1.332356e+04
4.580125e+02,1.333318e+04
4.609052e+02,1.337746e+04
4.637979e+02,1.340270e+04
4.666906e+02,1.342675e+04
4.695833e+02,1.347341e+04
4.724760e+02,1.351124e+04
4.753687e+02,1.353445e+04
4.782614e+02,1.356081e+04
4.811541e+02,1.360224e+04
4.840468e+02,1.364769e+04
4.869395e+02,1.368037e+04
4.898322e+02,1.370541e+04
4.927249e+02,1.374474e+04
4.956176e+02,1.378795e+04
4.985103e+02,1.383418e+04
5.014030e+02,1.385629e+04
5.042957e+02,1.387491e+04
5.071884e+02,1.389021e+04
5.100811e+02,1.391298e+04
5.129738e+02,1.394550e+04
5.158665e+02,1.399692e+04
5.187592e+02,1.401215e+04
5.216519e+02,1.400737e+04
5.245446e+02,1.405473e+04
5.274373e+02,1.410203e+04
5.303300e+02,1.412631e+04
5.332227e+02,1.412495e+04
5.361154e+02,1.414645e+04
5.390081e+02,1.416972e+04
5.419008e+02,1.421837e+04
5.447935e+02,1.426084e+04
5.476862e+02,1.428283e+04
5.505789e+02,1.428556e+04
5.534716e+02,1.427678e+04
5.563643e+02,1.431946e+04
5.592570e+02,1.435454e+04
5.621497e+02,1.439837e+04
5.650424e+02,1.440425e+04
5.679351e+02,1.440188e+04
5.708278e+02,1.441501e+04
5.737205e+02,1.446632e+04
5.766132e+02,1.451403e+04
5.795059e+02,1.453861e+04
5.823986e+02,1.455699e+04
5.852913e+02,1.457575e+04
5.881840e+02,1.461467e+04
5.910767e+02,1.465716e+04
5.939694e+02,1.469887e+04
5.968621e+02,1.471280e+04
5.997548e+02,1.472232e+04
6.026475e+02,1.474915e+04
6.055402e+02,1.479449e+04
6.084329e+02,1.480358e+04
6.113256e+02,1.479925e+04
6.142183e+02,1.479783e+04
6.171110e+02,1.480373e+04
6.200037e+02,1.484330e+04
6.228964e+02,1.487319e+04
6.257891e+02,1.490916e+04
6.286818e+02,1.490022e+04
6.315745e+02,1.490827e+04
6.344672e+02,1.494896e+04
6.373599e+02,1.498388e+04
6.402526e+02,1.499741e+04
6.431453e+02,1.500741e+04
6.460380e+02,1.501156e+04
6.489307e+02,1.505279e+04
6.518234e+02,1.509670e+04
6.547161e+02,1.510578e+04
6.576088e+02,1.509450e+04
6.605015e+02,1.509527e+04
6.633942e+02,1.510781e+04
6.662869e+02,1.514584e+04
6.691796e+02,1.518046e+04
6.720723e+02,1.518342e+04
6.749650e+02,1.516799e+04
6.778577e+02,1.514799e+04
6.807504e+02,1.516651e+04
6.836431e+02,1.520496e+04
6.865358e+02,1.520200e+04
6.894285e+02,1.519395e+04
6.923212e+02,1.520169e+04
6.952139e+02,1.521573e+04
6.981066e+02,1.526848e+04
7.009993e+02,1.527256e+04
7.038920e+02,1.526983e+04
7.067847e+02,1.525350e+04
7.096774e+02,1.525943e+04
7.125701e+02,1.527661e+04
7.154628e+02,1.528766e+04
7.183555e+02,1.528962e+04
7.212482e+02,1.527218e+04
7.241409e+02,1.527022e+04
7.270336e+02,1.526573e+04
7.299263e+02,1.527459e+04
7.328190e+02,1.527758e+04
7.357117e+02,1.526974e+04
7.386044e+02,1.526134e+04
7.414971e+02,1.526304e+04
7.443898e+02,1.526536e+04
7.472825e+02,1.528886e+04
7.501752e+02,1.526417e+04
7.530679e+02,1.523895e+04
7.559606e+02,1.522837e+04
7.588533e+02,1.525555e+04
7.617460e+02,1.527157e+04
7.646387e+02,1.520409e+04
7.675314e+02,1.519982e+04
7.704241e+02,1.515503e+04
7.733168e+02,1.509962e+04
7.762095e+02,1.514934e+04
7.791022e+02,1.513238e+04
7.819949e+02,1.510160e+04
7.848876e+02,1.506295e+04
7.877803e+02,1.506790e+04
7.906730e+02,1.503888e+04
7.935657e+02,1.505522e+04
7.964584e+02,1.495863e+04
7.993511e+02,1.493983e+04
8.022438e+02,1.491398e+04
8.051365e+02,1.487697e+04
8.080292e+02,1.488667e+04
8.109219e+02,1.483615e+04
8.138146e+02,1.482665e+04
8.167073e+02,1.480423e+04
8.196000e+02,1.477722e+04
8.224927e+02,1.476044e+04
8.253854e+02,1.471380e+04
8.282781e+02,1.472562e+04
8.311708e+02,1.467659e+04
8.340635e+02,1.465239e+04
8.369562e+02,1.469072e+04
8.398489e+02,1.461663e+04
8.427416e+02,1.458993e+04
8.456343e+02,1.459774e+04
8.485270e+02,1.454277e+04
8.514197e+02,1.453456e+04
8.543124e+02,1.449724e+04
8.572051e+02,1.442531e+04
8.600978e+02,1.442642e+04
8.629905e+02,1.436046e+04
8.658832e+02,1.439918e+04
8.687759e+02,1.434305e+04
8.716686e+02,1.430574e+04
8.745613e+02,1.427009e+04
8.774540e+02,1.427031e+04
8.803467e+02,1.423644e+04
8.832394e+02,1.422053e+04
8.861321e+02,1.420242e+04
8.890248e+02,1.417372e+04
8.919175e+02,1.411512e+04
8.948102e+02,1.404767e+04
8.977029e+02,1.405525e+04
9.005956e+02,1.402757e+04
9.034883e+02,1.400752e+04
9.063810e+02,1.393062e+04
9.092737e+02,1.393547e+04
9.121664e+02,1.390483e+04
9.150591e+02,1.385619e+04
9.179518e+02,1.388566e+04
9.208445e+02,1.378853e+04
9.237372e+02,1.373305e+04
9.266299e+02,1.374370e+04
9.295226e+02,1.374279e+04
9.324153e+02,1.368697e+04
9.353080e+02,1.368774e+04
9.382007e+02,1.360948e+04
9.410934e+02,1.356568e+04
9.439861e+02,1.358068e+04
9.468788e+02,1.349683e+04
9.497715e+02,1.352683e+04
9.526642e+02,1.346045e+04
9.555569e+02,1.345634e+04
9.584496e+02,1.338979e+04
9.613423e+02,1.342408e+04
9.642350e+02,1.338469e+04
9.671277e+02,1.334148e+04
9.700204e+02,1.328350e+04
9.729131e+02,1.325653e+04
9.758058e+02,1.327503e+04
9.786985e+02,1.321971e+04
9.815912e+02,1.322224e+04
9.844839e+02,1.312353e+04
9.873766e+02,1.313349e+04
9.902693e+02,1.310172e+04
9.931620e+02,1.312529e+04
9.960547e+02,1.309337e+04
9.989474e+02,1.305539e+04
1.001840e+03,1.299357e+04
1.004733e+03,1.298954e+04
1.007626e+03,1.299285e+04
1.010518e+03,1.297585e+04
1.013411e+03,1.293278e+04
1.016304e+03,1.287620e+04
1.019196e+03,1.283388e+04
1.022089e+03,1.284167e+04
1.024982e+03,1.280763e+04
1.027875e+03,1.280812e+04
1.030767e+03,1.273841e+04
1.033660e+03,1.276948e+04
1.036552e+03,1.275861e+04
1.039445e+03,1.274188e+04
1.042338e+03,1.271042e+04
1.045231e+03,1.267897e+04
1.048123e+03,1.268110e+04
1.051016e+03,1.262254e+04
1.053909e+03,1.265806e+04
1.056802e+03,1.260297e+04
1.059694e+03,1.258594e+04
1.062587e+03,1.255637e+04
1.065479e+03,1.251380e+04
1.068372e+03,1.250422e+04
1.071265e+03,1.251742e+04
1.074158e+03,1.251130e+04
1.077050e+03,1.244162e+04
1.079943e+03,1.240136e+04
1.082836e+03,1.242706e+04
1.085729e+03,1.239300e+04
1.088621e+03,1.243747e+04
1.091514e+03,1.234436e+04
1.094406e+03,1.231514e+04
1.097299e+03,1.229949e+04
1.100192e+03,1.227393e+04
1.103085e+03,1.227221e+04
1.105977e+03,1.222336e+04
1.108870e+03,1.217431e+04
1.111763e+03,1.216584e+04
1.114656e+03,1.215437e+04
1.117548e+03,1.218770e+04
1.120441e+03,1.218211e+04
1.123334e+03,1.210236e+04
1.126226e+03,1.204328e+04
1.129119e+03,1.202970e+04
1.132012e+03,1.203341e+04
1.134904e+03,1.201081e+04
1.137797e+03,1.194825e+04
1.140690e+03,1.192958e+04
1.143583e+03,1.189856e+04
1.146475e+03,1.192384e+04
1.149368e+03,1.187052e+04
1.152261e+03,1.187154e+04
1.155153e+03,1.181862e+04
1.158046e+03,1.176437e+04
1.160939e+03,1.181408e+04
1.163831e+03,1.176183e+04
1.166724e+03,1.176510e+04
1.169617e+03,1.173184e+04
1.172510e+03,1.165358e+04
1.175402e+03,1.165505e+04
1.178295e+03,1.163531e+04
1.181188e+03,1.166672e+04
1.184080e+03,1.161917e+04
1.186973e+03,1.155355e+04
1.189866e+03,1.158742e+04
1.192758e+03,1.158291e+04
1.195651e+03,1.157054e+04
1.198544e+03,1.154842e+04
1.201437e+03,1.151235e+04
1.204329e+03,1.146888e+04
1.207222e+03,1.149814e+04
1.210115e+03,1.153367e+04
1.213007e+03,1.152197e+04
1.215900e+03,1.145294e+04
1.218793e+03,1.144640e+04
1.221685e+03,1.144798e+04
1.224578e+03,1.144422e+04
1.227471e+03,1.145156e+04
1.230364e+03,1.140144e+04
1.233256e+03,1.137522e+04
1.236149e+03,1.137132e+04
1.239042e+03,1.135639e+04
1.241934e+03,1.136057e+04
1.244827e+03,1.132001e+04
1.247720e+03,1.126752e+04
1.250612e+03,1.126855e+04
1.253505e+03,1.124934e+04
1.256398e+03,1.120200e+04
1.259291e+03,1.123427e+04
1.262183e+03,1.117824e+04
1.265076e+03,1.116881e+04
1.267969e+03,1.113300e+04
1.270861e+03,1.115814e+04
1.273754e+03,1.117411e+04
1.276647e+03,1.113919e+04
1.279539e+03,1.107262e+04
1.282432e+03,1.105286e+04
1.285325e+03,1.103671e+04
1.288218e+03,1.102442e+04
1.291110e+03,1.103442e+04
1.294003e+03,1.100227e+04
1.296896e+03,1.096467e+04
1.299788e+03,1.093533e+04
1.302681e+03,1.096350e+04
1.305574e+03,1.097000e+04
1.308466e+03,1.091992e+04
1.311359e+03,1.084895e+04
1.314252e+03,1.085067e+04
1.317145e+03,1.082588e+04
1.320037e+03,1.087346e+04
1.322930e+03,1.087722e+04
1.325823e+03,1.081797e+04
1.328715e+03,1.080574e+04
1.331608e+03,1.081368e+04
1.334501e+03,1.083064e+04
1.337393e+03,1.083273e+04
1.340286e+03,1.077470e+04
1.343179e+03,1.075938e+04
1.346072e+03,1.073805e+04
1.348964e+03,1.075325e+04
1.351857e+03,1.073336e+04
1.354750e+03,1.075521e+04
1.357642e+03,1.066371e+04
1.360535e+03,1.064909e+04
1.363428e+03,1.066548e+04
1.366320e+03,1.069664e+04
1.369213e+03,1.063941e+04
1.372106e+03,1.065497e+04
1.374999e+03,1.062868e+04
1.377891e+03,1.061690e+04
1.380784e+03,1.063457e+04
1.383677e+03,1.060041e+04
1.386569e+03,1.062536e+04
1.389462e+03,1.055816e+04
1.392355e+03,1.056556e+04
1.395247e+03,1.053295e+04
1.398140e+03,1.054180e+04
1.401033e+03,1.055082e+04
1.403926e+03,1.047319e+04
1.406818e+03,1.048861e+04
1.409711e+03,1.048717e+04
1.412604e+03,1.048679e+04
1.415496e+03,1.044053e+04
1.418389e+03,1.044984e+04
1.421282e+03,1.041541e+04
1.424174e+03,1.037758e+04
1.427067e+03,1.040164e+04
1.429960e+03,1.039198e+04
1.432853e+03,1.038437e+04
1.435745e+03,1.033903e+04
1.438638e+03,1.030073e+04
1.441531e+03,1.031023e+04
1.444423e+03,1.028680e+04
1.447316e+03,1.030540e+04
1.450209e+03,1.024084e+04
1.453101e+03,1.025867e+04
1.455994e+03,1.023639e+04
1.458887e+03,1.021703e+04
1.461780e+03,1.019966e+04
1.464672e+03,1.017866e+04
1.467565e+03,1.013402e+04
1.470458e+03,1.017094e+04
1.473350e+03,1.014500e+04
1.476243e+03,1.014720e+04
1.479136e+03,1.011515e+04
1.482028e+03,1.008615e+04
1.484921e+03,1.010693e+04
1.487814e+03,1.007623e+04
1.490707e+03,1.010941e+04
1.493599e+03,1.003182e+04
1.496492e+03,1.005407e+04
1.499385e+03,1.003066e+04
1.502277e+03,1.001283e+04
1.505170e+03,1.002973e+04
1.508063e+03,1.003720e+04
1.510955e+03,9.988113e+03
1.513848e+03,9.953149e+03
1.516741e+03,9.969831e+03
1.519634e+03,9.948093e+03
1.522526e+03,9.959889e+03
1.525419e+03,9.919192e+03
1.528312e+03,9.897649e+03
1.531204e+03,9.893835e+03
1.534097e+03,9.902968e+03
1.536990e+03,9.872255e+03
1.539882e+03,9.862972e+03
1.542775e+03,9.835271e+03
1.545668e+03,9.810709e+03
1.548561e+03,9.852184e+03
1.551453e+03,9.834462e+03
1.554346e+03,9.812064e+03
1.557239e+03,9.795393e+03
1.560131e+03,9.819188e+03
1.563024e+03,9.782137e+03
1.565917e+03,9.784303e+03
1.568809e+03,9.761271e+03
1.571702e+03,9.796538e+03
1.574595e+03,9.746481e+03
1.577488e+03,9.732016e+03
1.580380e+03,9.718152e+03
1.583273e+03,9.729946e+03
1.586166e+03,9.690071e+03
1.589058e+03,9.666981e+03
1.591951e+03,9.666467e+03
1.594844e+03,9.706563e+03
1.597736e+03,9.654514e+03
1.600629e+03,9.635747e+03
1.603522e+03,9.633919e+03
1.606415e+03,9.598299e+03
1.609307e+03,9.598066e+03
1.612200e+03,9.630377e+03
1.615093e+03,9.593489e+03
1.617985e+03,9.548268e+03
1.620878e+03,9.544048e+03
1.623771e+03,9.528446e+03
1.626663e+03,9.522631e+03
1.629556e+03,9.555689e+03
1.632449e+03,9.511015e+03
1.635342e+03,9.506485e+03
1.638234e+03,9.490660e+03
1.641127e+03,9.435307e+03
1.644020e+03,9.456270e+03
1.646912e+03,9.464104e+03
1.649805e+03,9.412405e+03
1.652698e+03,9.376529e+03
1.655590e+03,9.371672e+03
1.658483e+03,9.362301e+03
1.661376e+03,9.384509e+03
1.664269e+03,9.380572e+03
1.667161e+03,9.308061e+03
1.670054e+03,9.272474e+03
1.672947e+03,9.277438e+03
1.675839e+03,9.263151e+03
1.678732e+03,9.276312e+03
1.681625e+03,9.254297e+03
1.684517e+03,9.221196e+03
1.687410e+03,9.203426e+03
1.690303e+03,9.219271e+03
1.693196e+03,9.227756e+03
1.696088e+03,9.199049e+03
1.698981e+03,9.180231e+03
1.701874e+03,9.153333e+03
1.704766e+03,9.183873e+03
1.707659e+03,9.127514e+03
1.710552e+03,9.113779e+03
1.713444e+03,9.063903e+03
1.716337e+03,9.078560e+03
1.719230e+03,9.073191e+03
1.722123e+03,9.059188e+03
1.725015e+03,9.034596e+03
1.727908e+03,9.015028e+03
1.730801e+03,8.980358e+03
1.733693e+03,9.003429e+03
1.736586e+03,8.965233e+03
1.739479e+03,9.004635e+03
1.742371e+03,8.981651e+03
1.745264e+03,8.927029e+03
1.748157e+03,8.917213e+03
1.751050e+03,8.926672e+03
1.753942e+03,8.879938e+03
1.756835e+03,8.894444e+03
1.759728e+03,8.893411e+03
1.762620e+03,8.843081e+03
1.765513e+03,8.831567e+03
1.768406e+03,8.813920e+03
1.771298e+03,8.824269e+03
1.774191e+03,8.825761e+03
1.777084e+03,8.775341e+03
1.779977e+03,8.774101e+03
1.782869e+03,8.779168e+03
1.785762e+03,8.762285e+03
1.788655e+03,8.694145e+03
1.791547e+03,8.710201e+03
1.794440e+03,8.678965e+03
1.797333e+03,8.682464e+03
1.800225e+03,8.692941e+03
1.803118e+03,8.692515e+03
1.806011e+03,8.632874e+03
1.808904e+03,8.614770e+03
1.811796e+03,8.645155e+03
1.814689e+03,8.639713e+03
1.817582e+03,8.626717e+03
1.820474e+03,8.630534e+03
1.823367e+03,8.570013e+03
1.826260e+03,8.517554e+03
1.829152e+03,8.549346e+03
1.832045e+03,8.520412e+03
1.834938e+03,8.496614e+03
1.837831e+03,8.463771e+03
1.840723e+03,8.414394e+03
1.843616e+03,8.462243e+03
1.846509e+03,8.477313e+03
1.849401e+03,8.426334e+03
1.852294e+03,8.372189e+03
1.855187e+03,8.331572e+03
1.858079e+03,8.380827e+03
1.860972e+03,8.341066e+03
1.863865e+03,8.323650e+03
1.866758e+03,8.309765e+03
1.869650e+03,8.267627e+03
1.872543e+03,8.256559e+03
1.875436e+03,8.242020e+03
1.878328e+03,8.236904e+03
1.881221e+03,8.211573e+03
1.884114e+03,8.168891e+03
1.887006e+03,8.179727e+03
1.889899e+03,8.194896e+03
1.892792e+03,8.215082e+03
1.895685e+03,8.145333e+03
1.898577e+03,8.133460e+03
1.901470e+03,8.127011e+03
1.904363e+03,8.135591e+03
1.907255e+03,8.090002e+03
1.910148e+03,8.097118e+03
1.913041e+03,8.022595e+03
1.915933e+03,7.959948e+03
1.918826e+03,8.035601e+03
1.921719e+03,8.015999e+03
1.924612e+03,8.007298e+03
1.927504e+03,7.985744e+03
1.930397e+03,7.957632e+03
1.933290e+03,7.930393e+03
1.936182e+03,7.923807e+03
1.939075e+03,7.926912e+03
1.941968e+03,7.929580e+03
1.944860e+03,7.835078e+03
1.947753e+03,7.850292e+03
1.950646e+03,7.845073e+03
1.953539e+03,7.853875e+03
1.956431e+03,7.841748e+03
1.959324e+03,7.791871e+03
1.962217e+03,7.825650e+03
1.965109e+03,7.760788e+03
1.968002e+03,7.778763e+03
1.970895e+03,7.768154e+03
1.973787e+03,7.740213e+03
1.976680e+03,7.703070e+03
1.979573e+03,7.707072e+03
1.982466e+03,7.713580e+03
1.985358e+03,7.657930e+03
1.988251e+03,7.662069e+03
1.991144e+03,7.642526e+03
1.994036e+03,7.605996e+03
1.996929e+03,7.589724e+03
1.999822e+03,7.588892e+03
2.002714e+03,7.573347e+03
2.005607e+03,7.551510e+03
2.008500e+03,7.535964e+03
2.011393e+03,7.504936e+03
2.014285e+03,7.523819e+03
2.017178e+03,7.502515e+03
2.020071e+03,7.461744e+03
2.022963e+03,7.366933e+03
2.025856e+03,7.535299e+03
2.028749e+03,7.440712e+03
2.031641e+03,7.394093e+03
2.034534e+03,7.383749e+03
2.037427e+03,7.322435e+03
2.040320e+03,7.258772e+03
2.043212e+03,7.298450e+03
2.046105e+03,7.292654e+03
2.048998e+03,7.281690e+03
2.051890e+03,7.217296e+03
2.054783e+03,7.218479e+03
2.057676e+03,7.213053e+03
2.060568e+03,7.209868e+03
2.063461e+03,7.198277e+03
2.066354e+03,7.174982e+03
2.069247e+03,7.128178e+03
2.072139e+03,7.099961e+03
2.075032e+03,7.084990e+03
2.077925e+03,7.076435e+03
2.080817e+03,7.063440e+03
2.083710e+03,7.028866e+03
2.086603e+03,6.981639e+03
2.089496e+03,7.003330e+03
2.092388e+03,7.003962e+03
2.095281e+03,6.973050e+03
2.098174e+03,6.983221e+03
2.101066e+03,6.964775e+03
2.103959e+03,6.913296e+03
2.106852e+03,6.907794e+03
2.109744e+03,6.916703e+03
2.112637e+03,6.907297e+03
2.115530e+03,6.859502e+03
2.118422e+03,6.794363e+03
2.121315e+03,6.806917e+03
2.124208e+03,6.815612e+03
2.127101e+03,6.792229e+03
2.129993e+03,6.772019e+03
2.132886e+03,6.739524e+03
2.135779e+03,6.760033e+03
2.138671e+03,6.744975e+03
2.141564e+03,6.713079e+03
2.144457e+03,6.667596e+03
2.147350e+03,6.645847e+03
2.150242e+03,6.632139e+03
2.153135e+03,6.657157e+03
2.156028e+03,6.641059e+03
2.158920e+03,6.581187e+03
2.161813e+03,6.538663e+03
2.164706e+03,6.539131e+03
2.167598e+03,6.521228e+03
2.170491e+03,6.581460e+03
2.173384e+03,6.501624e+03
2.176277e+03,6.471133e+03
2.179169e+03,6.449221e+03
2.182062e+03,6.450305e+03
2.184955e+03,6.419577e+03
2.187847e+03,6.443067e+03
2.190740e+03,6.397897e+03
2.193633e+03,6.389656e+03
2.196525e+03,6.331352e+03
2.199418e+03,6.329226e+03
2.202311e+03,6.356446e+03
2.205204e+03,6.317476e+03
2.208096e+03,6.243679e+03
2.210989e+03,6.272697e+03
2.213882e+03,6.226625e+03
2.216774e+03,6.276208e+03
2.219667e+03,6.206469e+03
2.222560e+03,6.174555e+03
2.225452e+03,6.165461e+03
2.228345e+03,6.117874e+03
2.231238e+03,6.146782e+03
2.234131e+03,6.135452e+03
2.237023e+03,6.097083e+03
2.239916e+03,6.081309e+03
2.242809e+03,6.013004e+03
2.245701e+03,6.037547e+03
2.248594e+03,6.034976e+03
2.251487e+03,6.008697e+03
2.254379e+03,6.002323e+03
2.257272e+03,5.930350e+03
2.260165e+03,5.920549e+03
2.263058e+03,5.970302e+03
2.265950e+03,5.885036e+03
2.268843e+03,5.891342e+03
2.271736e+03,5.832741e+03
2.274628e+03,5.840815e+03
2.277521e+03,5.859298e+03
2.280414e+03,5.831511e+03
2.283306e+03,5.849240e+03
2.286199e+03,5.803693e+03
2.289092e+03,5.757819e+03
2.291985e+03,5.730243e+03
2.294877e+03,5.733279e+03
2.297770e+03,5.758706e+03
2.300663e+03,5.727393e+03
2.303555e+03,5.696362e+03
2.306448e+03,5.641447e+03
2.309341e+03,5.670218e+03
2.312233e+03,5.704076e+03
2.315126e+03,5.641690e+03
2.318019e+03,5.617454e+03
2.320912e+03,5.582474e+03
2.323804e+03,5.618002e+03
2.326697e+03,5.588186e+03
2.329590e+03,5.584514e+03
2.332482e+03,5.546232e+03
2.335375e+03,5.498284e+03
2.338268e+03,5.500428e+03
2.341160e+03,5.502796e+03
2.344053e+03,5.505891e+03
2.346946e+03,5.469163e+03
2.349839e+03,5.455968e+03
2.352731e+03,5.435058e+03
2.355624e+03,5.403269e+03
2.358517e+03,5.413398e+03
2.361409e+03,5.422044e+03
2.364302e+03,5.336965e+03
2.367195e+03,5.357896e+03
2.370087e+03,5.360458e+03
2.372980e+03,5.338753e+03
2.375873e+03,5.298548e+03
2.378766e+03,5.285419e+03
2.381658e+03,5.272483e+03
2.384551e+03,5.240122e+03
2.387444e+03,5.269753e+03
2.390336e+03,5.229230e+03
2.393229e+03,5.241482e+03
2.396122e+03,5.189963e+03
2.399014e+03,5.196399e+03
2.401907e+03,5.169497e+03
2.404800e+03,5.132256e+03
2.407693e+03,5.133657e+03
2.410585e+03,5.111017e+03
2.413478e+03,5.082372e+03
2.416371e+03,5.101602e+03
2.419263e+03,5.059747e+03
2.422156e+03,5.086287e+03
2.425049e+03,5.067118e+03
2.427941e+03,5.022346e+03
2.430834e+03,5.023322e+03
2.433727e+03,4.986629e+03
2.436620e+03,5.011357e+03
2.439512e+03,4.989708e+03
2.442405e+03,4.975769e+03
2.445298e+03,4.989502e+03
2.448190e+03,4.961888e+03
2.451083e+03,4.940102e+03
2.453976e+03,4.903463e+03
2.456868e+03,4.898735e+03
2.459761e+03,4.893482e+03
2.462654e+03,4.855122e+03
2.465547e+03,4.816728e+03
2.468439e+03,4.825047e+03
2.471332e+03,4.814431e+03
2.474225e+03,4.821924e+03
2.477117e+03,4.779649e+03
2.480010e+03,4.773311e+03
2.482903e+03,4.755455e+03
2.485795e+03,4.784775e+03
2.488688e+03,4.747677e+03
2.491581e+03,4.745698e+03
2.494474e+03,4.719494e+03
2.497366e+03,4.748178e+03
2.500259e+03,4.704063e+03
2.503152e+03,4.695218e+03
2.506044e+03,4.674161e+03
2.508937e+03,4.647632e+03
2.511830e+03,4.663232e+03
2.514722e+03,4.633712e+03
2.517615e+03,4.647461e+03
2.520508e+03,4.623038e+03
2.523401e+03,4.554682e+03
2.526293e+03,4.592755e+03
2.529186e+03,4.592497e+03
2.532079e+03,4.584947e+03
2.534971e+03,4.585766e+03
2.537864e+03,4.519977e+03
2.540757e+03,4.544669e+03
2.543649e+03,4.510396e+03
2.546542e+03,4.478260e+03
2.549435e+03,4.467072e+03
2.552328e+03,4.475314e+03
2.555220e+03,4.449741e+03
2.558113e+03,4.456136e+03
2.561006e+03,4.452502e+03
2.563898e+03,4.417753e+03
2.566791e+03,4.411721e+03
2.569684e+03,4.402657e+03
2.572576e+03,4.366611e+03
2.575469e+03,4.374064e+03
2.578362e+03,4.337042e+03
2.581255e+03,4.343640e+03
2.584147e+03,4.351075e+03
2.587040e+03,4.335458e+03
2.589933e+03,4.327300e+03
2.592825e+03,4.253110e+03
2.595718e+03,4.275929e+03
2.598611e+03,4.260074e+03
2.601503e+03,4.254964e+03
2.604396e+03,4.250342e+03
2.607289e+03,4.240360e+03
2.610182e+03,4.209605e+03
2.613074e+03,4.225660e+03
2.615967e+03,4.183617e+03
2.618860e+03,4.192274e+03
2.621752e+03,4.176041e+03
2.624645e+03,4.184761e+03
2.627538e+03,4.168865e+03
2.630430e+03,4.155168e+03
2.633323e+03,4.141733e+03
2.636216e+03,4.107534e+03
2.639109e+03,4.135895e+03
2.642001e+03,4.097304e+03
2.644894e+03,4.081999e+03
2.647787e+03,4.067685e+03
2.650679e+03,4.083105e+03
2.653572e+03,4.073484e+03
2.656465e+03,4.072891e+03
2.659357e+03,4.060482e+03
2.662250e+03,4.052209e+03
2.665143e+03,4.025510e+03
2.668036e+03,4.041271e+03
2.670928e+03,4.008435e+03
2.673821e+03,3.991049e+03
2.676714e+03,3.990438e+03
2.679606e+03,3.961787e+03
2.682499e+03,3.965405e+03
2.685392e+03,3.988059e+03
2.688284e+03,3.934422e+03
2.691177e+03,3.942259e+03
2.694070e+03,3.924096e+03
2.696963e+03,3.930836e+03
2.699855e+03,3.910443e+03
2.702748e+03,3.931082e+03
2.705641e+03,3.901058e+03
2.708533e+03,3.913334e+03
2.711426e+03,3.884100e+03
2.714319e+03,3.859677e+03
2.717211e+03,3.850695e+03
2.720104e+03,3.879068e+03
2.722997e+03,3.866783e+03
2.725890e+03,3.840781e+03
2.728782e+03,3.817140e+03
2.731675e+03,3.840901e+03
2.734568e+03,3.807222e+03
2.737460e+03,3.795878e+03
2.740353e+03,3.787052e+03
2.743246e+03,3.761644e+03
2.746138e+03,3.801969e+03
2.749031e+03,3.755119e+03
2.751924e+03,3.777312e+03
2.754817e+03,3.759530e+03
2.757709e+03,3.733321e+03
2.760602e+03,3.752505e+03
2.763495e+03,3.744092e+03
2.766387e+03,3.696441e+03
2.769280e+03,3.669336e+03
2.772173e+03,3.704517e+03
2.775065e+03,3.703522e+03
2.777958e+03,3.639867e+03
2.780851e+03,3.651152e+03
2.783744e+03,3.660530e+03
2.786636e+03,3.654294e+03
2.789529e+03,3.616203e+03
2.792422e+03,3.655705e+03
2.795314e+03,3.614015e+03
2.798207e+03,3.570709e+03
2.801100e+03,3.598226e+03
2.803992e+03,3.578676e+03
2.806885e+03,3.612181e+03
2.809778e+03,3.591332e+03
2.812671e+03,3.606746e+03
2.815563e+03,3.514439e+03
2.818456e+03,3.558039e+03
2.821349e+03,3.522188e+03
2.824241e+03,3.546981e+03
2.827134e+03,3.529291e+03
2.830027e+03,3.554706e+03
2.832919e+03,3.518215e+03
2.835812e+03,3.541198e+03
2.838705e+03,3.508667e+03
2.841598e+03,3.535601e+03
2.844490e+03,3.478271e+03
2.847383e+03,3.545378e+03
2.850276e+03,3.497616e+03
2.853168e+03,3.479922e+03
2.856061e+03,3.487846e+03
2.858954e+03,3.431563e+03
2.861846e+03,3.468307e+03
2.864739e+03,3.440362e+03
2.867632e+03,3.483357e+03
2.870525e+03,3.479402e+03
2.873417e+03,3.424648e+03
2.876310e+03,3.437073e+03
2.879203e+03,3.463714e+03
2.882095e+03,3.415967e+03
2.884988e+03,3.449140e+03
2.887881e+03,3.472461e+03
2.890773e+03,3.447524e+03
2.893666e+03,3.483393e+03
2.896559e+03,3.389947e+03
2.899452e+03,3.400584e+03
2.902344e+03,3.374550e+03
2.905237e+03,3.366516e+03
2.908130e+03,3.392086e+03
2.911022e+03,3.386137e+03
2.913915e+03,3.372151e+03
2.916808e+03,3.349455e+03
2.919700e+03,3.379691e+03
2.922593e+03,3.294918e+03
2.925486e+03,3.372172e+03
2.928379e+03,3.304562e+03
2.931271e+03,3.324592e+03
2.934164e+03,3.334502e+03
2.937057e+03,3.261497e+03
2.939949e+03,3.240658e+03
2.942842e+03,3.295337e+03
2.945735e+03,3.315142e+03
2.948627e+03,3.246742e+03
2.951520e+03,3.258973e+03
2.954413e+03,3.229140e+03
2.957306e+03,3.254201e+03
2.960198e+03,3.289266e+03
2.963091e+03,3.252612e+03
2.965984e+03,3.203151e+03
2.968876e+03,3.224329e+03
2.971769e+03,3.191526e+03
2.974662e+03,3.199287e+03
2.977554e+03,3.195280e+03
2.980447e+03,3.189373e+03
2.983340e+03,3.180944e+03
2.986233e+03,3.160724e+03
2.989125e+03,3.133337e+03
2.992018e+03,3.181316e+03
2.994911e+03,3.113297e+03
2.997803e+03,3.205749e+03
3.000696e+03,3.130477e+03
3.003589e+03,3.106104e+03
3.006481e+03,3.124861e+03
3.009374e+03,3.166401e+03
3.012267e+03,3.171069e+03
3.015160e+03,3.112592e+03
3.018052e+03,3.108082e+03
3.020945e+03,3.090991e+03
3.023838e+03,3.085631e+03
3.026730e+03,3.091322e+03
3.029623e+03,3.091983e+03
3.032516e+03,3.023481e+03
3.035408e+03,3.040432e+03
3.038301e+03,3.059010e+03
3.041194e+03,3.098255e+03
3.044087e+03,3.067741e+03
3.046979e+03,3.034802e+03
3.049872e+03,3.059301e+03
3.052765e+03,3.055452e+03
3.055657e+03,3.008382e+03
3.058550e+03,3.024835e+03
3.061443e+03,3.020043e+03
3.064335e+03,3.023291e+03
3.067228e+03,3.003284e+03
3.070121e+03,3.014969e+03
3.073014e+03,3.032491e+03
3.075906e+03,2.998570e+03
3.078799e+03,3.019106e+03
3.081692e+03,2.989823e+03
3.084584e+03,3.027472e+03
3.087477e+03,3.027631e+03
3.090370e+03,2.955109e+03
3.093262e+03,3.011334e+03
3.096155e+03,2.959299e+03
3.099048e+03,2.977715e+03
3.101941e+03,2.974039e+03
3.104833e+03,2.974294e+03
3.107726e+03,2.949516e+03
3.110619e+03,3.016999e+03
3.113511e+03,2.954132e+03
3.116404e+03,2.966402e+03
3.119297e+03,2.991433e+03
3.122189e+03,2.991524e+03
3.125082e+03,2.962753e+03
3.127975e+03,2.954454e+03
3.130868e+03,3.056196e+03
3.133760e+03,2.977955e+03
3.136653e+03,2.999365e+03
3.139546e+03,2.923202e+03
3.142438e+03,2.878427e+03
3.145331e+03,2.837583e+03
3.148224e+03,2.925632e+03
3.151116e+03,2.976080e+03
3.154009e+03,2.953018e+03
3.156902e+03,2.931434e+03
3.159795e+03,2.892325e+03
3.162687e+03,2.886829e+03
3.165580e+03,2.930445e+03
3.168473e+03,2.992204e+03
3.171365e+03,2.930342e+03
3.174258e+03,2.999015e+03
3.177151e+03,2.939021e+03
3.180043e+03,2.901925e+03
3.182936e+03,2.893906e+03
3.185829e+03,2.923121e+03
3.188722e+03,2.935599e+03
3.191614e+03,2.926613e+03
3.194507e+03,2.929978e+03
3.197400e+03,2.953593e+03
3.200292e+03,2.932890e+03
3.203185e+03,0.000000e+00
3.206078e+03,0.000000e+00
3.208970e+03,0.000000e+00
3.211863e+03,0.000000e+00
3.214756e+03,0.000000e+00
3.217649e+03,0.000000e+00
3.220541e+03,0.000000e+00
3.223434e+03,0.000000e+00
3.226327e+03,0.000000e+00
3.229219e+03,0.000000e+00
3.232112e+03,0.000000e+00
3.235005e+03,0.000000e+00
3.237897e+03,0.000000e+00
3.240790e+03,0.000000e+00
3.243683e+03,0.000000e+00
3.246576e+03,0.000000e+00
3.249468e+03,0.000000e+00
3.252361e+03,0.000000e+00
3.255254e+03,0.000000e+00
3.258146e+03,0.000000e+00
3.261039e+03,0.000000e+00
3.263932e+03,0.000000e+00
3.266824e+03,0.000000e+00
3.269717e+03,0.000000e+00
3.272610e+03,0.000000e+00
3.275503e+03,0.000000e+00
3.278395e+03,0.000000e+00
3.281288e+03,0.000000e+00
3.284181e+03,0.000000e+00
3.287073e+03,0.000000e+00
3.289966e+03,0.000000e+00
3.292859e+03,0.000000e+00
3.295751e+03,0.000000e+00
3.298644e+03,0.000000e+00
3.301537e+03,0.000000e+00
3.304430e+03,0.000000e+00
3.307322e+03,0.000000e+00
3.310215e+03,0.000000e+00
3.313108e+03,0.000000e+00
3.316000e+03,0.000000e+00
3.318893e+03,0.000000e+00
3.321786e+03,0.000000e+00
3.324678e+03,0.000000e+00
3.327571e+03,0.000000e+00
3.330464e+03,0.000000e+00
3.333357e+03,0.000000e+00
3.336249e+03,0.000000e+00
3.339142e+03,0.000000e+00
3.342035e+03,0.000000e+00
3.344927e+03,0.000000e+00
3.347820e+03,0.000000e+00
3.350713e+03,0.000000e+00
3.353605e+03,0.000000e+00
3.356498e+03,0.000000e+00
3.359391e+03,0.000000e+00
3.362284e+03,0.000000e+00
3.365176e+03,0.000000e+00
3.368069e+03,0.000000e+00
3.370962e+03,0.000000e+00
3.373854e+03,0.000000e+00
3.376747e+03,0.000000e+00
3.379640e+03,0.000000e+00
3.382532e+03,0.000000e+00
3.385425e+03,0.000000e+00
3.388318e+03,0.000000e+00
3.391211e+03,0.000000e+00
3.394103e+03,0.000000e+00
3.396996e+03,0.000000e+00
3.399889e+03,0.000000e+00
3.402781e+03,0.000000e+00
3.405674e+03,0.000000e+00
3.408567e+03,0.000000e+00
3.411459e+03,0.000000e+00
3.414352e+03,0.000000e+00
3.417245e+03,0.000000e+00
3.420138e+03,0.000000e+00
3.423030e+03,0.000000e+00
3.425923e+03,0.000000e+00
3.428816e+03,0.000000e+00
3.431708e+03,0.000000e+00
3.434601e+03,0.000000e+00
3.437494e+03,0.000000e+00
3.440386e+03,0.000000e+00
3.443279e+03,0.000000e+00
3.446172e+03,0.000000e+00
3.449065e+03,0.000000e+00
3.451957e+03,0.000000e+00
3.454850e+03,0.000000e+00
3.457743e+03,0.000000e+00
3.460635e+03,0.000000e+00
3.463528e+03,0.000000e+00
3.466421e+03,0.000000e+00
3.469313e+03,0.000000e+00
3.472206e+03,0.000000e+00
3.475099e+03,0.000000e+00
3.477992e+03,0.000000e+00
3.480884e+03,0.000000e+00
3.483777e+03,0.000000e+00
3.486670e+03,0.000000e+00
3.489563e+03,0.000000e+00
3.492455e+03,0.000000e+00
3.495348e+03,0.000000e+00
3.498240e+03,0.000000e+00
3.500169e+03,0.000000e+00