File: RAMAN_data/20012023_r3/blue fibre3.CSV
9.931763e+01,0.000000e+00
1.022103e+02,0.000000e+00
1.051030e+02,0.000000e+00
1.079957e+02,0.000000e+00
1.108884e+02,0.000000e+00
1.137811e+02,0.000000e+00
1.166738e+02,0.000000e+00
1.195665e+02,0.000000e+00
1.224592e+02,0.000000e+00
1.253519e+02,0.000000e+00
1.282446e+02,0.000000e+00
1.311373e+02,0.000000e+00
1.340300e+02,0.000000e+00
1.369227e+02,0.000000e+00
1.398154e+02,0.000000e+00
1.427081e+02,0.000000e+00
1.456008e+02,0.000000e+00
1.484935e+02,0.000000e+00
1.513862e+02,0.000000e+00
1.542789e+02,0.000000e+00
1.571716e+02,0.000000e+00
1.600643e+02,0.000000e+00
1.629570e+02,0.000000e+00
1.658497e+02,0.000000e+00
1.687424e+02,0.000000e+00
1.716351e+02,0.000000e+00
1.745278e+02,0.000000e+00
1.774205e+02,0.000000e+00
1.803132e+02,0.000000e+00
1.832059e+02,0.000000e+00
1.860986e+02,0.000000e+00
1.889913e+02,0.000000e+00
1.918840e+02,0.000000e+00
1.947767e+02,0.000000e+00
1.976694e+02,0.000000e+00
2.005621e+02,3.899872e+03
2.034548e+02,3.914551e+03
2.063475e+02,3.926445e+03
2.092402e+02,3.926885e+03
2.121329e+02,3.924242e+03
2.150256e+02,3.928093e+03
2.179183e+02,3.938198e+03
2.208110e+02,3.919566e+03
2.237037e+02,3.945244e+03
2.265964e+02,3.929227e+03
2.294892e+02,3.935338e+03
2.323819e+02,3.960290e+03
2.352746e+02,3.936208e+03
2.381673e+02,3.938145e+03
2.410600e+02,3.935847e+03
2.439527e+02,3.930269e+03
2.468454e+02,3.967138e+03
2.497381e+02,3.958358e+03
2.526308e+02,3.971060e+03
2.555235e+02,3.958971e+03
2.584161e+02,3.944837e+03
2.613088e+02,3.968637e+03
2.642015e+02,3.965828e+03
2.670942e+02,3.969858e+03
2.699869e+02,3.987703e+03
2.728796e+02,3.965252e+03
2.757723e+02,3.967648e+03
2.786650e+02,3.979146e+03
2.815577e+02,3.989103e+03
2.844504e+02,3.985819e+03
2.873431e+02,3.982833e+03
2.902358e+02,3.967791e+03
2.931285e+02,3.973386e+03
2.960212e+02,3.985457e+03
2.989139e+02,3.986278e+03
3.018066e+02,3.981154e+03
3.046993e+02,3.993183e+03
3.075920e+02,3.958393e+03
3.104847e+02,3.974331e+03
3.133774e+02,3.984624e+03
3.162701e+02,3.964400e+03
3.191628e+02,3.959071e+03
3.220555e+02,3.959241e+03
3.249482e+02,3.987480e+03
3.278409e+02,3.989429e+03
3.307336e+02,3.983596e+03
3.336263e+02,3.976362e+03
3.365190e+02,3.979796e+03
3.394117e+02,3.978995e+03
3.423044e+02,3.986321e+03
3.451971e+02,3.965112e+03
3.480898e+02,3.965115e+03
3.509825e+02,3.965919e+03
3.538752e+02,3.981260e+03
3.567680e+02,3.983478e+03
3.596607e+02,3.978707e+03
3.625534e+02,3.996747e+03
3.654461e+02,3.969329e+03
3.683388e+02,3.950477e+03
3.712315e+02,3.976888e+03
3.741242e+02,3.989754e+03
3.770169e+02,3.995157e+03
3.799096e+02,4.000540e+03
3.828023e+02,3.973112e+03
3.856950e+02,3.981972e+03
3.885877e+02,3.970687e+03
3.914804e+02,3.927510e+03
3.943731e+02,3.939389e+03
3.972658e+02,3.951856e+03
4.001585e+02,3.959887e+03
4.030512e+02,3.928555e+03
4.059439e+02,3.929622e+03
4.088366e+02,3.954183e+03
4.117293e+02,3.935253e+03
4.146220e+02,3.932708e+03
4.175147e+02,3.948836e+03
4.204074e+02,3.928411e+03
4.233001e+02,3.923901e+03
4.261928e+02,3.941999e+03
4.290855e+02,3.940684e+03
4.319782e+02,3.934933e+03
4.348709e+02,3.915166e+03
4.377636e+02,3.911577e+03
4.406563e+02,3.918262e+03
4.435490e+02,3.900952e+03
4.464417e+02,3.931818e+03
4.493344e+02,3.927557e+03
4.522271e+02,3.912269e+03
4.551198e+02,3.920161e+03
4.580125e+02,3.899236e+03
4.609052e+02,3.890400e+03
4.637979e+02,3.887244e+03
4.666906e+02,3.894683e+03
4.695833e+02,3.878435e+03
4.724760e+02,3.885215e+03
4.753687e+02,3.877499e+03
4.782614e+02,3.873185e+03
4.811541e+02,3.881290e+03
4.840468e+02,3.862274e+03
4.869395e+02,3.852458e+03
4.898322e+02,3.857196e+03
4.927249e+02,3.867976e+03
4.956176e+02,3.850548e+03
4.985103e+02,3.858578e+03
5.014030e+02,3.860272e+03
5.042957e+02,3.860718e+03
5.071884e+02,3.841531e+03
5.100811e+02,3.835200e+03
5.129738e+02,3.849515e+03
5.158665e+02,3.838456e+03
5.187592e+02,3.829964e+03
5.216519e+02,3.814352e+03
5.245446e+02,3.812855e+03
5.274373e+02,3.820669e+03
5.303300e+02,3.813021e+03
5.332227e+02,3.803144e+03
5.361154e+02,3.785004e+03
5.390081e+02,3.803830e+03
5.419008e+02,3.805296e+03
5.447935e+02,3.788771e+03
5.476862e+02,3.806504e+03
5.505789e+02,3.792003e+03
5.534716e+02,3.752797e+03
5.563643e+02,3.765729e+03
5.592570e+02,3.774668e+03
5.621497e+02,3.784556e+03
5.650424e+02,3.776444e+03
5.679351e+02,3.755315e+03
5.708278e+02,3.749729e+03
5.737205e+02,3.764737e+03
5.766132e+02,3.754419e+03
5.795059e+02,3.752302e+03
5.823986e+02,3.733731e+03
5.852913e+02,3.720169e+03
5.881840e+02,3.731503e+03
5.910767e+02,3.744971e+03
5.939694e+02,3.728784e+03
5.968621e+02,3.712907e+03
5.997548e+02,3.693068e+03
6.026475e+02,3.718646e+03
6.055402e+02,3.710611e+03
6.084329e+02,3.708372e+03
6.113256e+02,3.692946e+03
6.142183e+02,3.694731e+03
6.171110e+02,3.685061e+03
6.200037e+02,3.689182e+03
6.228964e+02,3.689716e+03
6.257891e+02,3.680238e+03
6.286818e+02,3.683075e+03
6.315745e+02,3.678678e+03
6.344672e+02,3.656367e+03
6.373599e+02,3.654737e+03
6.402526e+02,3.678040e+03
6.431453e+02,3.635725e+03
6.460380e+02,3.629990e+03
6.489307e+02,3.637250e+03
6.518234e+02,3.653842e+03
6.547161e+02,3.640338e+03
6.576088e+02,3.620368e+03
6.605015e+02,3.618914e+03
6.633942e+02,3.589389e+03
6.662869e+02,3.604530e+03
6.691796e+02,3.589698e+03
6.720723e+02,3.591797e+03
6.749650e+02,3.596039e+03
6.778577e+02,3.585624e+03
6.807504e+02,3.583804e+03
6.836431e+02,3.577569e+03
6.865358e+02,3.554152e+03
6.894285e+02,3.560816e+03
6.923212e+02,3.549184e+03
6.952139e+02,3.547745e+03
6.981066e+02,3.574458e+03
7.009993e+02,3.558957e+03
7.038920e+02,3.561358e+03
7.067847e+02,3.544157e+03
7.096774e+02,3.528058e+03
7.125701e+02,3.508926e+03
7.154628e+02,3.510918e+03
7.183555e+02,3.520216e+03
7.212482e+02,3.519940e+03
7.241409e+02,3.529843e+03
7.270336e+02,3.504938e+03
7.299263e+02,3.493947e+03
7.328190e+02,3.493165e+03
7.357117e+02,3.476140e+03
7.386044e+02,3.501742e+03
7.414971e+02,3.493911e+03
7.443898e+02,3.468583e+03
7.472825e+02,3.478626e+03
7.501752e+02,3.455725e+03
7.530679e+02,3.454419e+03
7.559606e+02,3.458395e+03
7.588533e+02,3.447187e+03
7.617460e+02,3.424948e+03
7.646387e+02,3.428949e+03
7.675314e+02,3.442431e+03
7.704241e+02,3.428961e+03
7.733168e+02,3.431252e+03
7.762095e+02,3.423468e+03
7.791022e+02,3.395266e+03
7.819949e+02,3.429191e+03
7.848876e+02,3.393196e+03
7.877803e+02,3.391624e+03
7.906730e+02,3.398695e+03
7.935657e+02,3.409668e+03
7.964584e+02,3.378979e+03
7.993511e+02,3.376428e+03
8.022438e+02,3.368590e+03
8.051365e+02,3.359759e+03
8.080292e+02,3.359913e+03
8.109219e+02,3.362197e+03
8.138146e+02,3.363335e+03
8.167073e+02,3.346353e+03
8.196000e+02,3.357485e+03
8.224927e+02,3.347625e+03
8.253854e+02,3.326358e+03
8.282781e+02,3.324273e+03
8.311708e+02,3.327341e+03
8.340635e+02,3.313291e+03
8.369562e+02,3.322085e+03
8.398489e+02,3.307053e+03
8.427416e+02,3.331785e+03
8.456343e+02,3.310585e+03
8.485270e+02,3.287430e+03
8.514197e+02,3.313589e+03
8.543124e+02,3.301255e+03
8.572051e+02,3.296478e+03
8.600978e+02,3.299473e+03
8.629905e+02,3.271694e+03
8.658832e+02,3.271641e+03
8.687759e+02,3.261238e+03
8.716686e+02,3.269629e+03
8.745613e+02,3.247911e+03
8.774540e+02,3.240814e+03
8.803467e+02,3.261706e+03
8.832394e+02,3.265873e+03
8.861321e+02,3.236992e+03
8.890248e+02,3.251735e+03
8.919175e+02,3.236791e+03
8.948102e+02,3.217334e+03
8.977029e+02,3.214319e+03
9.005956e+02,3.209266e+03
9.034883e+02,3.198605e+03
9.063810e+02,3.194628e+03
9.092737e+02,3.189926e+03
9.121664e+02,3.177963e+03
9.150591e+02,3.189178e+03
9.179518e+02,3.196466e+03
9.208445e+02,3.160080e+03
9.237372e+02,3.159258e+03
9.266299e+02,3.148844e+03
9.295226e+02,3.161071e+03
9.324153e+02,3.141308e+03
9.353080e+02,3.147656e+03
9.382007e+02,3.142770e+03
9.410934e+02,3.139483e+03
9.439861e+02,3.129702e+03
9.468788e+02,3.124028e+03
9.497715e+02,3.125307e+03
9.526642e+02,3.125239e+03
9.555569e+02,3.106617e+03
9.584496e+02,3.094072e+03
9.613423e+02,3.088285e+03
9.642350e+02,3.096587e+03
9.671277e+02,3.086427e+03
9.700204e+02,3.094847e+03
9.729131e+02,3.085786e+03
9.758058e+02,3.076845e+03
9.786985e+02,3.090552e+03
9.815912e+02,3.096494e+03
9.844839e+02,3.054333e+03
9.873766e+02,3.051628e+03
9.902693e+02,3.051761e+03
9.931620e+02,3.046850e+03
9.960547e+02,3.066479e+03
9.989474e+02,3.048882e+03
1.001840e+03,3.032460e+03
1.004733e+03,3.024171e+03
1.007626e+03,3.023653e+03
1.010518e+03,3.018121e+03
1.013411e+03,3.025790e+03
1.016304e+03,3.008216e+03
1.019196e+03,3.016652e+03
1.022089e+03,3.010010e+03
1.024982e+03,3.011718e+03
1.027875e+03,3.013476e+03
1.030767e+03,2.998955e+03
1.033660e+03,2.981517e+03
1.036552e+03,3.009669e+03
1.039445e+03,2.990410e+03
1.042338e+03,2.979156e+03
1.045231e+03,2.981492e+03
1.048123e+03,2.991730e+03
1.051016e+03,2.952272e+03
1.053909e+03,3.006698e+03
1.056802e+03,2.991075e+03
1.059694e+03,2.977398e+03
1.062587e+03,2.978856e+03
1.065479e+03,2.959865e+03
1.068372e+03,2.974465e+03
1.071265e+03,2.974684e+03
1.074158e+03,2.967095e+03
1.077050e+03,2.951477e+03
1.079943e+03,2.965531e+03
1.082836e+03,2.970166e+03
1.085729e+03,2.966091e+03
1.088621e+03,2.957925e+03
1.091514e+03,2.978373e+03
1.094406e+03,2.983145e+03
1.097299e+03,2.962870e+03
1.100192e+03,2.960024e+03
1.103085e+03,2.954933e+03
1.105977e+03,2.937489e+03
1.108870e+03,2.921291e+03
1.111763e+03,2.937489e+03
1.114656e+03,2.929759e+03
1.117548e+03,2.944872e+03
1.120441e+03,2.933766e+03
1.123334e+03,2.917692e+03
1.126226e+03,2.912616e+03
1.129119e+03,2.902013e+03
1.132012e+03,2.895679e+03
1.134904e+03,2.904359e+03
1.137797e+03,2.888922e+03
1.140690e+03,2.905819e+03
1.143583e+03,2.900660e+03
1.146475e+03,2.894394e+03
1.149368e+03,2.898926e+03
1.152261e+03,2.884796e+03
1.155153e+03,2.883139e+03
1.158046e+03,2.897022e+03
1.160939e+03,2.902680e+03
1.163831e+03,2.883709e+03
1.166724e+03,2.880734e+03
1.169617e+03,2.882549e+03
1.172510e+03,2.853712e+03
1.175402e+03,2.852850e+03
1.178295e+03,2.853807e+03
1.181188e+03,2.842135e+03
1.184080e+03,2.841290e+03
1.186973e+03,2.828374e+03
1.189866e+03,2.826611e+03
1.192758e+03,2.829901e+03
1.195651e+03,2.825825e+03
1.198544e+03,2.827790e+03
1.201437e+03,2.819958e+03
1.204329e+03,2.821784e+03
1.207222e+03,2.800167e+03
1.210115e+03,2.807934e+03
1.213007e+03,2.819596e+03
1.215900e+03,2.799579e+03
1.218793e+03,2.797989e+03
1.221685e+03,2.790211e+03
1.224578e+03,2.792720e+03
1.227471e+03,2.796126e+03
1.230364e+03,2.788507e+03
1.233256e+03,2.779961e+03
1.236149e+03,2.765948e+03
1.239042e+03,2.772922e+03
1.241934e+03,2.778997e+03
1.244827e+03,2.780505e+03
1.247720e+03,2.773408e+03
1.250612e+03,2.764477e+03
1.253505e+03,2.761292e+03
1.256398e+03,2.765870e+03
1.259291e+03,2.761203e+03
1.262183e+03,2.756585e+03
1.265076e+03,2.752923e+03
1.267969e+03,2.749479e+03
1.270861e+03,2.761098e+03
1.273754e+03,2.776163e+03
1.276647e+03,2.758030e+03
1.279539e+03,2.761660e+03
1.282432e+03,2.753247e+03
1.285325e+03,2.764985e+03
1.288218e+03,2.774656e+03
1.291110e+03,2.772865e+03
1.294003e+03,2.766229e+03
1.296896e+03,2.763817e+03
1.299788e+03,2.748476e+03
1.302681e+03,2.749525e+03
1.305574e+03,2.759740e+03
1.308466e+03,2.760484e+03
1.311359e+03,2.750823e+03
1.314252e+03,2.749616e+03
1.317145e+03,2.746494e+03
1.320037e+03,2.762967e+03
1.322930e+03,2.760584e+03
1.325823e+03,2.754911e+03
1.328715e+03,2.747360e+03
1.331608e+03,2.744508e+03
1.334501e+03,2.742899e+03
1.337393e+03,2.740218e+03
1.340286e+03,2.747939e+03
1.343179e+03,2.720694e+03
1.346072e+03,2.719513e+03
1.348964e+03,2.702891e+03
1.351857e+03,2.705986e+03
1.354750e+03,2.697833e+03
1.357642e+03,2.687178e+03
1.360535e+03,2.685888e+03
1.363428e+03,2.685047e+03
1.366320e+03,2.682466e+03
1.369213e+03,2.692146e+03
1.372106e+03,2.661317e+03
1.374999e+03,2.671674e+03
1.377891e+03,2.662387e+03
1.380784e+03,2.676216e+03
1.383677e+03,2.664559e+03
1.386569e+03,2.657577e+03
1.389462e+03,2.632563e+03
1.392355e+03,2.635990e+03
1.395247e+03,2.643373e+03
1.398140e+03,2.630816e+03
1.401033e+03,2.627654e+03
1.403926e+03,2.625143e+03
1.406818e+03,2.610140e+03
1.409711e+03,2.607248e+03
1.412604e+03,2.627573e+03
1.415496e+03,2.605969e+03
1.418389e+03,2.619216e+03
1.421282e+03,2.594271e+03
1.424174e+03,2.596344e+03
1.427067e+03,2.598930e+03
1.429960e+03,2.582528e+03
1.432853e+03,2.588055e+03
1.435745e+03,2.560272e+03
1.438638e+03,2.564274e+03
1.441531e+03,2.580383e+03
1.444423e+03,2.578961e+03
1.447316e+03,2.578809e+03
1.450209e+03,2.556733e+03
1.453101e+03,2.569341e+03
1.455994e+03,2.577852e+03
1.458887e+03,2.564190e+03
1.461780e+03,2.557613e+03
1.464672e+03,2.561686e+03
1.467565e+03,2.544889e+03
1.470458e+03,2.538185e+03
1.473350e+03,2.534794e+03
1.476243e+03,2.549258e+03
1.479136e+03,2.534893e+03
1.482028e+03,2.523706e+03
1.484921e+03,2.529520e+03
1.487814e+03,2.524033e+03
1.490707e+03,2.502101e+03
1.493599e+03,2.518779e+03
1.496492e+03,2.509873e+03
1.499385e+03,2.503586e+03
1.502277e+03,2.501694e+03
1.505170e+03,2.499969e+03
1.508063e+03,2.501958e+03
1.510955e+03,2.493905e+03
1.513848e+03,2.489700e+03
1.516741e+03,2.491559e+03
1.519634e+03,2.484495e+03
1.522526e+03,2.491198e+03
1.525419e+03,2.466909e+03
1.528312e+03,2.471529e+03
1.531204e+03,2.486504e+03
1.534097e+03,2.459292e+03
1.536990e+03,2.459992e+03
1.539882e+03,2.454393e+03
1.542775e+03,2.473778e+03
1.545668e+03,2.470674e+03
1.548561e+03,2.462500e+03
1.551453e+03,2.462870e+03
1.554346e+03,2.472632e+03
1.557239e+03,2.468823e+03
1.560131e+03,2.456292e+03
1.563024e+03,2.460855e+03
1.565917e+03,2.460950e+03
1.568809e+03,2.466648e+03
1.571702e+03,2.468050e+03
1.574595e+03,2.478625e+03
1.577488e+03,2.460151e+03
1.580380e+03,2.453494e+03
1.583273e+03,2.465504e+03
1.586166e+03,2.451743e+03
1.589058e+03,2.436563e+03
1.591951e+03,2.431549e+03
1.594844e+03,2.448710e+03
1.597736e+03,2.428223e+03
1.600629e+03,2.447555e+03
1.603522e+03,2.444808e+03
1.606415e+03,2.444988e+03
1.609307e+03,2.434558e+03
1.612200e+03,2.479973e+03
1.615093e+03,2.460677e+03
1.617985e+03,2.432220e+03
1.620878e+03,2.425625e+03
1.623771e+03,2.385070e+03
1.626663e+03,2.382086e+03
1.629556e+03,2.374050e+03
1.632449e+03,2.354727e+03
1.635342e+03,2.349088e+03
1.638234e+03,2.362872e+03
1.641127e+03,2.353411e+03
1.644020e+03,2.346021e+03
1.646912e+03,2.350395e+03
1.649805e+03,2.323790e+03
1.652698e+03,2.342194e+03
1.655590e+03,2.326862e+03
1.658483e+03,2.317160e+03
1.661376e+03,2.324341e+03
1.664269e+03,2.307162e+03
1.667161e+03,2.310411e+03
1.670054e+03,2.305013e+03
1.672947e+03,2.304189e+03
1.675839e+03,2.304372e+03
1.678732e+03,2.292700e+03
1.681625e+03,2.266567e+03
1.684517e+03,2.281443e+03
1.687410e+03,2.281510e+03
1.690303e+03,2.283194e+03
1.693196e+03,2.257751e+03
1.696088e+03,2.266149e+03
1.698981e+03,2.271452e+03
1.701874e+03,2.279861e+03
1.704766e+03,2.264225e+03
1.707659e+03,2.241010e+03
1.710552e+03,2.254386e+03
1.713444e+03,2.251821e+03
1.716337e+03,2.257002e+03
1.719230e+03,2.253107e+03
1.722123e+03,2.235299e+03
1.725015e+03,2.256812e+03
1.727908e+03,2.268509e+03
1.730801e+03,2.249801e+03
1.733693e+03,2.245644e+03
1.736586e+03,2.240076e+03
1.739479e+03,2.217913e+03
1.742371e+03,2.212304e+03
1.745264e+03,2.182613e+03
1.748157e+03,2.186060e+03
1.751050e+03,2.192606e+03
1.753942e+03,2.190188e+03
1.756835e+03,2.186584e+03
1.759728e+03,2.190392e+03
1.762620e+03,2.174865e+03
1.765513e+03,2.173005e+03
1.768406e+03,2.179413e+03
1.771298e+03,2.168546e+03
1.774191e+03,2.178552e+03
1.777084e+03,2.167434e+03
1.779977e+03,2.152459e+03
1.782869e+03,2.149720e+03
1.785762e+03,2.129670e+03
1.788655e+03,2.127717e+03
1.791547e+03,2.163290e+03
1.794440e+03,2.127420e+03
1.797333e+03,2.125510e+03
1.800225e+03,2.137029e+03
1.803118e+03,2.132686e+03
1.806011e+03,2.107070e+03
1.808904e+03,2.118762e+03
1.811796e+03,2.119744e+03
1.814689e+03,2.104510e+03
1.817582e+03,2.099263e+03
1.820474e+03,2.095304e+03
1.823367e+03,2.086903e+03
1.826260e+03,2.084085e+03
1.829152e+03,2.077520e+03
1.832045e+03,2.089399e+03
1.834938e+03,2.063204e+03
1.837831e+03,2.056507e+03
1.840723e+03,2.060863e+03
1.843616e+03,2.050364e+03
1.846509e+03,2.070791e+03
1.849401e+03,2.038971e+03
1.852294e+03,2.044956e+03
1.855187e+03,2.050454e+03
1.858079e+03,2.042612e+03
1.860972e+03,2.021065e+03
1.863865e+03,2.032702e+03
1.866758e+03,2.020402e+03
1.869650e+03,2.023307e+03
1.872543e+03,2.004476e+03
1.875436e+03,2.012451e+03
1.878328e+03,2.005623e+03
1.881221e+03,1.998102e+03
1.884114e+03,2.005864e+03
1.887006e+03,1.988561e+03
1.889899e+03,1.990139e+03
1.892792e+03,1.984188e+03
1.895685e+03,1.992100e+03
1.898577e+03,1.960776e+03
1.901470e+03,1.967478e+03
1.904363e+03,1.971539e+03
1.907255e+03,1.976219e+03
1.910148e+03,1.960928e+03
1.913041e+03,1.961988e+03
1.915933e+03,1.966728e+03
1.918826e+03,1.940037e+03
1.921719e+03,1.937124e+03
1.924612e+03,1.951255e+03
1.927504e+03,1.929021e+03
1.930397e+03,1.936266e+03
1.933290e+03,1.924516e+03
1.936182e+03,1.931391e+03
1.939075e+03,1.916318e+03
1.941968e+03,1.910945e+03
1.944860e+03,1.916380e+03
1.947753e+03,1.913435e+03
1.950646e+03,1.900712e+03
1.953539e+03,1.895857e+03
1.956431e+03,1.891406e+03
1.959324e+03,1.885663e+03
1.962217e+03,1.871358e+03
1.965109e+03,1.885691e+03
1.968002e+03,1.880322e+03
1.970895e+03,1.871963e+03
1.973787e+03,1.875231e+03
1.976680e+03,1.860497e+03
1.979573e+03,1.852783e+03
1.982466e+03,1.849884e+03
1.985358e+03,1.853625e+03
1.988251e+03,1.840131e+03
1.991144e+03,1.825242e+03
1.994036e+03,1.840786e+03
1.996929e+03,1.832753e+03
1.999822e+03,1.843179e+03
2.002714e+03,1.827134e+03
2.005607e+03,1.819126e+03
2.008500e+03,1.818223e+03
2.011393e+03,1.806182e+03
2.014285e+03,1.799435e+03
2.017178e+03,1.814867e+03
2.020071e+03,1.785401e+03
2.022963e+03,1.783770e+03
2.025856e+03,1.785085e+03
2.028749e+03,1.799183e+03
2.031641e+03,1.793259e+03
2.034534e+03,1.761207e+03
2.037427e+03,1.777362e+03
2.040320e+03,1.774699e+03
2.043212e+03,1.755103e+03
2.046105e+03,1.762338e+03
2.048998e+03,1.745127e+03
2.051890e+03,1.753030e+03
2.054783e+03,1.739325e+03
2.057676e+03,1.748348e+03
2.060568e+03,1.735120e+03
2.063461e+03,1.749190e+03
2.066354e+03,1.712613e+03
2.069247e+03,1.715018e+03
2.072139e+03,1.717562e+03
2.075032e+03,1.709043e+03
2.077925e+03,1.722545e+03
2.080817e+03,1.713297e+03
2.083710e+03,1.715382e+03
2.086603e+03,1.696449e+03
2.089496e+03,1.707762e+03
2.092388e+03,1.680436e+03
2.095281e+03,1.681947e+03
2.098174e+03,1.693310e+03
2.101066e+03,1.676739e+03
2.103959e+03,1.673101e+03
2.106852e+03,1.682119e+03
2.109744e+03,1.672539e+03
2.112637e+03,1.652075e+03
2.115530e+03,1.632707e+03
2.118422e+03,1.626024e+03
2.121315e+03,1.659281e+03
2.124208e+03,1.652356e+03
2.127101e+03,1.631844e+03
2.129993e+03,1.644048e+03
2.132886e+03,1.618141e+03
2.135779e+03,1.627414e+03
2.138671e+03,1.639602e+03
2.141564e+03,1.609207e+03
2.144457e+03,1.614835e+03
2.147350e+03,1.627393e+03
2.150242e+03,1.595186e+03
2.153135e+03,1.618488e+03
2.156028e+03,1.610703e+03
2.158920e+03,1.600577e+03
2.161813e+03,1.584885e+03
2.164706e+03,1.580324e+03
2.167598e+03,1.587168e+03
2.170491e+03,1.582803e+03
2.173384e+03,1.568957e+03
2.176277e+03,1.583818e+03
2.179169e+03,1.566756e+03
2.182062e+03,1.559867e+03
2.184955e+03,1.565432e+03
2.187847e+03,1.549032e+03
2.190740e+03,1.540408e+03
2.193633e+03,1.528151e+03
2.196525e+03,1.539170e+03
2.199418e+03,1.524177e+03
2.202311e+03,1.532223e+03
2.205204e+03,1.526046e+03
2.208096e+03,1.530418e+03
2.210989e+03,1.509547e+03
2.213882e+03,1.513531e+03
2.216774e+03,1.490144e+03
2.219667e+03,1.502000e+03
2.222560e+03,1.493189e+03
2.225452e+03,1.488564e+03
2.228345e+03,1.473645e+03
2.231238e+03,1.495217e+03
2.234131e+03,1.463698e+03
2.237023e+03,1.486785e+03
2.239916e+03,1.485854e+03
2.242809e+03,1.470485e+03
2.245701e+03,1.471037e+03
2.248594e+03,1.459956e+03
2.251487e+03,1.457024e+03
2.254379e+03,1.454198e+03
2.257272e+03,1.444040e+03
2.260165e+03,1.440362e+03
2.263058e+03,1.444819e+03
2.265950e+03,1.443162e+03
2.268843e+03,1.430291e+03
2.271736e+03,1.414114e+03
2.274628e+03,1.425548e+03
2.277521e+03,1.417304e+03
2.280414e+03,1.420105e+03
2.283306e+03,1.422016e+03
2.286199e+03,1.406949e+03
2.289092e+03,1.417038e+03
2.291985e+03,1.388882e+03
2.294877e+03,1.414484e+03
2.297770e+03,1.395837e+03
2.300663e+03,1.398922e+03
2.303555e+03,1.391136e+03
2.306448e+03,1.381598e+03
2.309341e+03,1.377173e+03
2.312233e+03,1.373832e+03
2.315126e+03,1.370394e+03
2.318019e+03,1.387488e+03
2.320912e+03,1.360810e+03
2.323804e+03,1.368144e+03
2.326697e+03,1.366226e+03
2.329590e+03,1.361691e+03
2.332482e+03,1.348276e+03
2.335375e+03,1.358324e+03
2.338268e+03,1.349275e+03
2.341160e+03,1.342028e+03
2.344053e+03,1.352363e+03
2.346946e+03,1.341128e+03
2.349839e+03,1.342653e+03
2.352731e+03,1.325947e+03
2.355624e+03,1.331958e+03
2.358517e+03,1.320037e+03
2.361409e+03,1.326020e+03
2.364302e+03,1.314356e+03
2.367195e+03,1.321973e+03
2.370087e+03,1.316240e+03
2.372980e+03,1.297953e+03
2.375873e+03,1.314163e+03
2.378766e+03,1.298309e+03
2.381658e+03,1.281249e+03
2.384551e+03,1.300434e+03
2.387444e+03,1.289857e+03
2.390336e+03,1.295438e+03
2.393229e+03,1.276965e+03
2.396122e+03,1.282934e+03
2.399014e+03,1.269465e+03
2.401907e+03,1.281272e+03
2.404800e+03,1.275691e+03
2.407693e+03,1.279021e+03
2.410585e+03,1.280342e+03
2.413478e+03,1.248356e+03
2.416371e+03,1.261727e+03
2.419263e+03,1.249364e+03
2.422156e+03,1.254447e+03
2.425049e+03,1.253125e+03
2.427941e+03,1.260431e+03
2.430834e+03,1.240596e+03
2.433727e+03,1.249502e+03
2.436620e+03,1.238403e+03
2.439512e+03,1.248952e+03
2.442405e+03,1.230615e+03
2.445298e+03,1.222926e+03
2.448190e+03,1.231108e+03
2.451083e+03,1.224762e+03
2.453976e+03,1.213789e+03
2.456868e+03,1.228222e+03
2.459761e+03,1.212679e+03
2.462654e+03,1.204401e+03
2.465547e+03,1.207941e+03
2.468439e+03,1.201753e+03
2.471332e+03,1.205069e+03
2.474225e+03,1.197957e+03
2.477117e+03,1.200609e+03
2.480010e+03,1.195858e+03
2.482903e+03,1.201588e+03
2.485795e+03,1.207208e+03
2.488688e+03,1.202869e+03
2.491581e+03,1.181480e+03
2.494474e+03,1.173057e+03
2.497366e+03,1.189755e+03
2.500259e+03,1.166550e+03
2.503152e+03,1.168561e+03
2.506044e+03,1.178530e+03
2.508937e+03,1.171407e+03
2.511830e+03,1.166163e+03
2.514722e+03,1.164849e+03
2.517615e+03,1.161812e+03
2.520508e+03,1.135139e+03
2.523401e+03,1.162018e+03
2.526293e+03,1.160572e+03
2.529186e+03,1.143184e+03
2.532079e+03,1.149011e+03
2.534971e+03,1.156000e+03
2.537864e+03,1.133895e+03
2.540757e+03,1.138300e+03
2.543649e+03,1.151266e+03
2.546542e+03,1.134686e+03
2.549435e+03,1.137219e+03
2.552328e+03,1.123512e+03
2.555220e+03,1.154343e+03
2.558113e+03,1.124457e+03
2.561006e+03,1.139670e+03
2.563898e+03,1.130833e+03
2.566791e+03,1.117703e+03
2.569684e+03,1.118133e+03
2.572576e+03,1.127966e+03
2.575469e+03,1.109756e+03
2.578362e+03,1.091141e+03
2.581255e+03,1.102199e+03
2.584147e+03,1.106790e+03
2.587040e+03,1.092116e+03
2.589933e+03,1.103665e+03
2.592825e+03,1.101443e+03
2.595718e+03,1.098488e+03
2.598611e+03,1.093885e+03
2.601503e+03,1.103813e+03
2.604396e+03,1.092614e+03
2.607289e+03,1.077727e+03
2.610182e+03,1.088197e+03
2.613074e+03,1.053916e+03
2.615967e+03,1.084559e+03
2.618860e+03,1.086879e+03
2.621752e+03,1.063813e+03
2.624645e+03,1.080954e+03
2.627538e+03,1.068556e+03
2.630430e+03,1.081170e+03
2.633323e+03,1.056884e+03
2.636216e+03,1.065661e+03
2.639109e+03,1.064165e+03
2.642001e+03,1.046615e+03
2.644894e+03,1.061383e+03
2.647787e+03,1.054960e+03
2.650679e+03,1.056095e+03
2.653572e+03,1.050442e+03
2.656465e+03,1.045160e+03
2.659357e+03,1.053635e+03
2.662250e+03,1.060155e+03
2.665143e+03,1.029985e+03
2.668036e+03,1.034564e+03
2.670928e+03,1.037944e+03
2.673821e+03,1.035194e+03
2.676714e+03,1.032820e+03
2.679606e+03,1.042964e+03
2.682499e+03,1.051023e+03
2.685392e+03,1.034998e+03
2.688284e+03,1.027872e+03
2.691177e+03,1.029466e+03
2.694070e+03,1.014394e+03
2.696963e+03,1.021018e+03
2.699855e+03,1.033957e+03
2.702748e+03,1.020404e+03
2.705641e+03,1.000153e+03
2.708533e+03,1.009153e+03
2.711426e+03,1.013747e+03
2.714319e+03,1.003467e+03
2.717211e+03,1.010516e+03
2.720104e+03,1.010672e+03
2.722997e+03,1.024115e+03
2.725890e+03,9.887500e+02
2.728782e+03,1.013537e+03
2.731675e+03,1.002966e+03
2.734568e+03,9.990414e+02
2.737460e+03,9.839391e+02
2.740353e+03,1.018635e+03
2.743246e+03,9.887970e+02
2.746138e+03,1.007982e+03
2.749031e+03,9.685473e+02
2.751924e+03,9.752844e+02
2.754817e+03,9.965813e+02
2.757709e+03,9.584296e+02
2.760602e+03,9.923260e+02
2.763495e+03,9.732068e+02
2.766387e+03,1.000620e+03
2.769280e+03,9.718132e+02
2.772173e+03,9.791114e+02
2.775065e+03,9.568213e+02
2.777958e+03,9.981652e+02
2.780851e+03,9.738387e+02
2.783744e+03,9.667469e+02
2.786636e+03,9.630558e+02
2.789529e+03,9.617970e+02
2.792422e+03,9.516929e+02
2.795314e+03,9.589723e+02
2.798207e+03,9.641049e+02
2.801100e+03,9.667098e+02
2.803992e+03,9.825219e+02
2.806885e+03,9.470675e+02
2.809778e+03,9.510142e+02
2.812671e+03,9.619884e+02
2.815563e+03,9.522127e+02
2.818456e+03,9.555059e+02
2.821349e+03,9.463840e+02
2.824241e+03,9.442862e+02
2.827134e+03,9.553627e+02
2.830027e+03,9.518600e+02
2.832919e+03,9.358478e+02
2.835812e+03,9.502259e+02
2.838705e+03,9.303431e+02
2.841598e+03,9.589767e+02
2.844490e+03,9.400892e+02
2.847383e+03,9.542773e+02
2.850276e+03,9.349425e+02
2.853168e+03,9.241914e+02
2.856061e+03,9.467901e+02
2.858954e+03,9.527040e+02
2.861846e+03,9.592631e+02
2.864739e+03,9.181422e+02
2.867632e+03,9.618158e+02
2.870525e+03,9.273679e+02
2.873417e+03,9.421486e+02
2.876310e+03,9.152536e+02
2.879203e+03,9.565060e+02
2.882095e+03,9.334930e+02
2.884988e+03,9.593372e+02
2.887881e+03,9.638781e+02
2.890773e+03,9.445258e+02
2.893666e+03,9.509062e+02
2.896559e+03,9.560382e+02
2.899452e+03,9.538206e+02
2.902344e+03,9.201190e+02
2.905237e+03,9.498469e+02
2.908130e+03,9.243441e+02
2.911022e+03,9.234168e+02
2.913915e+03,9.299503e+02
2.916808e+03,9.179836e+02
2.919700e+03,9.192715e+02
2.922593e+03,9.102217e+02
2.925486e+03,9.308851e+02
2.928379e+03,8.837127e+02
2.931271e+03,9.042928e+02
2.934164e+03,9.285237e+02
2.937057e+03,9.137399e+02
2.939949e+03,8.983400e+02
2.942842e+03,8.900705e+02
2.945735e+03,9.128329e+02
2.948627e+03,8.922548e+02
2.951520e+03,9.230595e+02
2.954413e+03,9.012088e+02
2.957306e+03,9.514170e+02
2.960198e+03,9.035516e+02
2.963091e+03,8.986599e+02
2.965984e+03,8.864521e+02
2.968876e+03,9.264590e+02
2.971769e+03,8.815869e+02
2.974662e+03,8.810174e+02
2.977554e+03,8.607776e+02
2.980447e+03,8.927188e+02
2.983340e+03,8.801013e+02
2.986233e+03,8.801687e+02
2.989125e+03,8.589332e+02
2.992018e+03,8.618671e+02
2.994911e+03,8.478834e+02
2.997803e+03,8.987990e+02
3.000696e+03,8.665127e+02
3.003589e+03,8.700319e+02
3.006481e+03,8.769819e+02
3.009374e+03,8.538174e+02
3.012267e+03,8.568109e+02
3.015160e+03,8.361537e+02
3.018052e+03,8.441827e+02
3.020945e+03,8.419032e+02
3.023838e+03,8.505438e+02
3.026730e+03,8.435565e+02
3.029623e+03,8.411287e+02
3.032516e+03,8.421397e+02
3.035408e+03,8.175940e+02
3.038301e+03,8.173016e+02
3.041194e+03,8.477701e+02
3.044087e+03,8.424384e+02
3.046979e+03,8.443890e+02
3.049872e+03,8.450461e+02
3.052765e+03,8.464590e+02
3.055657e+03,8.409242e+02
3.058550e+03,8.373578e+02
3.061443e+03,8.371205e+02
3.064335e+03,8.443881e+02
3.067228e+03,8.346267e+02
3.070121e+03,8.480085e+02
3.073014e+03,8.004709e+02
3.075906e+03,8.303024e+02
3.078799e+03,8.385912e+02
3.081692e+03,8.474906e+02
3.084584e+03,8.157745e+02
3.087477e+03,8.067495e+02
3.090370e+03,8.533571e+02
3.093262e+03,8.105641e+02
3.096155e+03,8.218057e+02
3.099048e+03,8.059622e+02
3.101941e+03,8.202316e+02
3.104833e+03,8.435186e+02
3.107726e+03,8.096950e+02
3.110619e+03,8.390798e+02
3.113511e+03,8.093321e+02
3.116404e+03,8.115956e+02
3.119297e+03,8.319305e+02
3.122189e+03,8.313515e+02
3.125082e+03,8.558835e+02
3.127975e+03,8.018406e+02
3.130868e+03,8.311827e+02
3.133760e+03,8.615133e+02
3.136653e+03,7.875948e+02
3.139546e+03,8.308933e+02
3.142438e+03,8.232307e+02
3.145331e+03,7.802421e+02
3.148224e+03,8.347002e+02
3.151116e+03,7.888123e+02
3.154009e+03,8.479883e+02
3.156902e+03,8.334977e+02
3.159795e+03,7.772933e+02
3.162687e+03,7.957381e+02
3.165580e+03,8.270675e+02
3.168473e+03,8.303083e+02
3.171365e+03,7.916161e+02
3.174258e+03,8.218368e+02
3.177151e+03,8.480901e+02
3.180043e+03,8.347991e+02
3.182936e+03,8.013025e+02
3.185829e+03,8.288624e+02
3.188722e+03,8.007401e+02
3.191614e+03,8.338372e+02
3.194507e+03,8.127482e+02
3.197400e+03,7.463181e+02
3.200292e+03,8.352606e+02
3.203185e+03,0.000000e+00
3.206078e+03,0.000000e+00
3.208970e+03,0.000000e+00
3.211863e+03,0.000000e+00
3.214756e+03,0.000000e+00
3.217649e+03,0.000000e+00
3.220541e+03,0.000000e+00
3.223434e+03,0.000000e+00
3.226327e+03,0.000000e+00
3.229219e+03,0.000000e+00
3.232112e+03,0.000000e+00
3.235005e+03,0.000000e+00
3.237897e+03,0.000000e+00
3.240790e+03,0.000000e+00
3.243683e+03,0.000000e+00
3.246576e+03,0.000000e+00
3.249468e+03,0.000000e+00
3.252361e+03,0.000000e+00
3.255254e+03,0.000000e+00
3.258146e+03,0.000000e+00
3.261039e+03,0.000000e+00
3.263932e+03,0.000000e+00
3.266824e+03,0.000000e+00
3.269717e+03,0.000000e+00
3.272610e+03,0.000000e+00
3.275503e+03,0.000000e+00
3.278395e+03,0.000000e+00
3.281288e+03,0.000000e+00
3.284181e+03,0.000000e+00
3.287073e+03,0.000000e+00
3.289966e+03,0.000000e+00
3.292859e+03,0.000000e+00
3.295751e+03,0.000000e+00
3.298644e+03,0.000000e+00
3.301537e+03,0.000000e+00
3.304430e+03,0.000000e+00
3.307322e+03,0.000000e+00
3.310215e+03,0.000000e+00
3.313108e+03,0.000000e+00
3.316000e+03,0.000000e+00
3.318893e+03,0.000000e+00
3.321786e+03,0.000000e+00
3.324678e+03,0.000000e+00
3.327571e+03,0.000000e+00
3.330464e+03,0.000000e+00
3.333357e+03,0.000000e+00
3.336249e+03,0.000000e+00
3.339142e+03,0.000000e+00
3.342035e+03,0.000000e+00
3.344927e+03,0.000000e+00
3.347820e+03,0.000000e+00
3.350713e+03,0.000000e+00
3.353605e+03,0.000000e+00
3.356498e+03,0.000000e+00
3.359391e+03,0.000000e+00
3.362284e+03,0.000000e+00
3.365176e+03,0.000000e+00
3.368069e+03,0.000000e+00
3.370962e+03,0.000000e+00
3.373854e+03,0.000000e+00
3.376747e+03,0.000000e+00
3.379640e+03,0.000000e+00
3.382532e+03,0.000000e+00
3.385425e+03,0.000000e+00
3.388318e+03,0.000000e+00
3.391211e+03,0.000000e+00
3.394103e+03,0.000000e+00
3.396996e+03,0.000000e+00
3.399889e+03,0.000000e+00
3.402781e+03,0.000000e+00
3.405674e+03,0.000000e+00
3.408567e+03,0.000000e+00
3.411459e+03,0.000000e+00
3.414352e+03,0.000000e+00
3.417245e+03,0.000000e+00
3.420138e+03,0.000000e+00
3.423030e+03,0.000000e+00
3.425923e+03,0.000000e+00
3.428816e+03,0.000000e+00
3.431708e+03,0.000000e+00
3.434601e+03,0.000000e+00
3.437494e+03,0.000000e+00
3.440386e+03,0.000000e+00
3.443279e+03,0.000000e+00
3.446172e+03,0.000000e+00
3.449065e+03,0.000000e+00
3.451957e+03,0.000000e+00
3.454850e+03,0.000000e+00
3.457743e+03,0.000000e+00
3.460635e+03,0.000000e+00
3.463528e+03,0.000000e+00
3.466421e+03,0.000000e+00
3.469313e+03,0.000000e+00
3.472206e+03,0.000000e+00
3.475099e+03,0.000000e+00
3.477992e+03,0.000000e+00
3.480884e+03,0.000000e+00
3.483777e+03,0.000000e+00
3.486670e+03,0.000000e+00
3.489563e+03,0.000000e+00
3.492455e+03,0.000000e+00
3.495348e+03,0.000000e+00
3.498240e+03,0.000000e+00
3.500169e+03,0.000000e+00