File: RAMAN_data/20012023_r3/blue fibre6.CSV
9.931763e+01,0.000000e+00
1.022103e+02,0.000000e+00
1.051030e+02,0.000000e+00
1.079957e+02,0.000000e+00
1.108884e+02,0.000000e+00
1.137811e+02,0.000000e+00
1.166738e+02,0.000000e+00
1.195665e+02,0.000000e+00
1.224592e+02,0.000000e+00
1.253519e+02,0.000000e+00
1.282446e+02,0.000000e+00
1.311373e+02,0.000000e+00
1.340300e+02,0.000000e+00
1.369227e+02,0.000000e+00
1.398154e+02,0.000000e+00
1.427081e+02,0.000000e+00
1.456008e+02,0.000000e+00
1.484935e+02,0.000000e+00
1.513862e+02,0.000000e+00
1.542789e+02,0.000000e+00
1.571716e+02,0.000000e+00
1.600643e+02,0.000000e+00
1.629570e+02,0.000000e+00
1.658497e+02,0.000000e+00
1.687424e+02,0.000000e+00
1.716351e+02,0.000000e+00
1.745278e+02,0.000000e+00
1.774205e+02,0.000000e+00
1.803132e+02,0.000000e+00
1.832059e+02,0.000000e+00
1.860986e+02,0.000000e+00
1.889913e+02,0.000000e+00
1.918840e+02,0.000000e+00
1.947767e+02,0.000000e+00
1.976694e+02,0.000000e+00
2.005621e+02,4.847529e+03
2.034548e+02,4.866587e+03
2.063475e+02,4.889657e+03
2.092402e+02,4.886097e+03
2.121329e+02,4.871397e+03
2.150256e+02,4.914234e+03
2.179183e+02,4.899935e+03
2.208110e+02,4.912255e+03
2.237037e+02,4.926183e+03
2.265964e+02,4.912279e+03
2.294892e+02,4.930197e+03
2.323819e+02,4.950288e+03
2.352746e+02,4.963893e+03
2.381673e+02,4.984366e+03
2.410600e+02,4.964375e+03
2.439527e+02,4.970540e+03
2.468454e+02,5.003101e+03
2.497381e+02,5.018170e+03
2.526308e+02,5.035150e+03
2.555235e+02,5.011773e+03
2.584161e+02,5.012844e+03
2.613088e+02,5.031628e+03
2.642015e+02,5.049266e+03
2.670942e+02,5.056482e+03
2.699869e+02,5.082976e+03
2.728796e+02,5.063461e+03
2.757723e+02,5.093650e+03
2.786650e+02,5.107828e+03
2.815577e+02,5.116881e+03
2.844504e+02,5.136875e+03
2.873431e+02,5.126209e+03
2.902358e+02,5.119189e+03
2.931285e+02,5.123369e+03
2.960212e+02,5.119263e+03
2.989139e+02,5.134494e+03
3.018066e+02,5.148032e+03
3.046993e+02,5.152417e+03
3.075920e+02,5.145840e+03
3.104847e+02,5.165786e+03
3.133774e+02,5.162784e+03
3.162701e+02,5.200341e+03
3.191628e+02,5.162200e+03
3.220555e+02,5.167901e+03
3.249482e+02,5.192611e+03
3.278409e+02,5.197041e+03
3.307336e+02,5.201726e+03
3.336263e+02,5.205462e+03
3.365190e+02,5.209026e+03
3.394117e+02,5.220655e+03
3.423044e+02,5.215358e+03
3.451971e+02,5.251417e+03
3.480898e+02,5.236957e+03
3.509825e+02,5.226441e+03
3.538752e+02,5.239497e+03
3.567680e+02,5.242442e+03
3.596607e+02,5.232159e+03
3.625534e+02,5.227376e+03
3.654461e+02,5.258560e+03
3.683388e+02,5.251627e+03
3.712315e+02,5.262803e+03
3.741242e+02,5.277041e+03
3.770169e+02,5.282067e+03
3.799096e+02,5.292840e+03
3.828023e+02,5.278377e+03
3.856950e+02,5.257858e+03
3.885877e+02,5.277937e+03
3.914804e+02,5.277239e+03
3.943731e+02,5.254213e+03
3.972658e+02,5.274044e+03
4.001585e+02,5.250708e+03
4.030512e+02,5.259182e+03
4.059439e+02,5.266077e+03
4.088366e+02,5.284237e+03
4.117293e+02,5.273745e+03
4.146220e+02,5.284666e+03
4.175147e+02,5.267953e+03
4.204074e+02,5.285835e+03
4.233001e+02,5.288696e+03
4.261928e+02,5.276340e+03
4.290855e+02,5.287778e+03
4.319782e+02,5.310110e+03
4.348709e+02,5.301449e+03
4.377636e+02,5.317742e+03
4.406563e+02,5.291856e+03
4.435490e+02,5.290041e+03
4.464417e+02,5.289833e+03
4.493344e+02,5.314393e+03
4.522271e+02,5.295028e+03
4.551198e+02,5.313979e+03
4.580125e+02,5.314613e+03
4.609052e+02,5.296584e+03
4.637979e+02,5.299140e+03
4.666906e+02,5.290411e+03
4.695833e+02,5.295420e+03
4.724760e+02,5.286427e+03
4.753687e+02,5.285520e+03
4.782614e+02,5.268705e+03
4.811541e+02,5.277655e+03
4.840468e+02,5.282413e+03
4.869395e+02,5.280417e+03
4.898322e+02,5.294479e+03
4.927249e+02,5.261767e+03
4.956176e+02,5.262191e+03
4.985103e+02,5.289904e+03
5.014030e+02,5.306839e+03
5.042957e+02,5.276885e+03
5.071884e+02,5.297738e+03
5.100811e+02,5.290934e+03
5.129738e+02,5.282845e+03
5.158665e+02,5.305935e+03
5.187592e+02,5.283838e+03
5.216519e+02,5.271962e+03
5.245446e+02,5.282772e+03
5.274373e+02,5.272604e+03
5.303300e+02,5.271070e+03
5.332227e+02,5.262951e+03
5.361154e+02,5.271916e+03
5.390081e+02,5.287040e+03
5.419008e+02,5.290524e+03
5.447935e+02,5.278358e+03
5.476862e+02,5.278655e+03
5.505789e+02,5.280759e+03
5.534716e+02,5.271905e+03
5.563643e+02,5.281182e+03
5.592570e+02,5.296375e+03
5.621497e+02,5.316265e+03
5.650424e+02,5.277028e+03
5.679351e+02,5.242023e+03
5.708278e+02,5.224896e+03
5.737205e+02,5.238693e+03
5.766132e+02,5.241691e+03
5.795059e+02,5.224233e+03
5.823986e+02,5.251823e+03
5.852913e+02,5.200214e+03
5.881840e+02,5.209417e+03
5.910767e+02,5.216921e+03
5.939694e+02,5.237129e+03
5.968621e+02,5.221464e+03
5.997548e+02,5.219810e+03
6.026475e+02,5.210472e+03
6.055402e+02,5.215171e+03
6.084329e+02,5.235311e+03
6.113256e+02,5.236410e+03
6.142183e+02,5.214648e+03
6.171110e+02,5.174013e+03
6.200037e+02,5.213965e+03
6.228964e+02,5.179361e+03
6.257891e+02,5.188685e+03
6.286818e+02,5.170945e+03
6.315745e+02,5.182038e+03
6.344672e+02,5.192450e+03
6.373599e+02,5.177244e+03
6.402526e+02,5.163782e+03
6.431453e+02,5.144972e+03
6.460380e+02,5.141962e+03
6.489307e+02,5.135379e+03
6.518234e+02,5.150706e+03
6.547161e+02,5.124373e+03
6.576088e+02,5.135820e+03
6.605015e+02,5.127136e+03
6.633942e+02,5.121594e+03
6.662869e+02,5.115643e+03
6.691796e+02,5.124686e+03
6.720723e+02,5.108595e+03
6.749650e+02,5.099147e+03
6.778577e+02,5.098473e+03
6.807504e+02,5.078173e+03
6.836431e+02,5.080865e+03
6.865358e+02,5.061453e+03
6.894285e+02,5.070593e+03
6.923212e+02,5.071879e+03
6.952139e+02,5.039689e+03
6.981066e+02,5.068984e+03
7.009993e+02,5.070223e+03
7.038920e+02,5.054491e+03
7.067847e+02,5.037954e+03
7.096774e+02,5.038870e+03
7.125701e+02,5.023938e+03
7.154628e+02,5.020747e+03
7.183555e+02,5.015265e+03
7.212482e+02,5.013323e+03
7.241409e+02,5.020926e+03
7.270336e+02,5.028920e+03
7.299263e+02,5.015274e+03
7.328190e+02,4.982924e+03
7.357117e+02,4.998453e+03
7.386044e+02,4.961671e+03
7.414971e+02,4.953372e+03
7.443898e+02,4.956756e+03
7.472825e+02,4.988417e+03
7.501752e+02,4.975106e+03
7.530679e+02,4.951765e+03
7.559606e+02,4.943279e+03
7.588533e+02,4.948293e+03
7.617460e+02,4.949655e+03
7.646387e+02,4.929900e+03
7.675314e+02,4.925232e+03
7.704241e+02,4.882189e+03
7.733168e+02,4.898446e+03
7.762095e+02,4.891426e+03
7.791022e+02,4.910847e+03
7.819949e+02,4.913314e+03
7.848876e+02,4.894502e+03
7.877803e+02,4.882766e+03
7.906730e+02,4.878326e+03
7.935657e+02,4.878087e+03
7.964584e+02,4.854217e+03
7.993511e+02,4.854587e+03
8.022438e+02,4.837774e+03
8.051365e+02,4.829513e+03
8.080292e+02,4.841888e+03
8.109219e+02,4.822546e+03
8.138146e+02,4.816370e+03
8.167073e+02,4.795241e+03
8.196000e+02,4.817330e+03
8.224927e+02,4.812799e+03
8.253854e+02,4.782704e+03
8.282781e+02,4.779866e+03
8.311708e+02,4.783130e+03
8.340635e+02,4.774976e+03
8.369562e+02,4.770753e+03
8.398489e+02,4.770306e+03
8.427416e+02,4.761130e+03
8.456343e+02,4.763807e+03
8.485270e+02,4.737307e+03
8.514197e+02,4.726250e+03
8.543124e+02,4.742510e+03
8.572051e+02,4.721848e+03
8.600978e+02,4.715660e+03
8.629905e+02,4.704643e+03
8.658832e+02,4.700717e+03
8.687759e+02,4.708370e+03
8.716686e+02,4.697830e+03
8.745613e+02,4.674570e+03
8.774540e+02,4.675781e+03
8.803467e+02,4.675706e+03
8.832394e+02,4.661466e+03
8.861321e+02,4.669521e+03
8.890248e+02,4.655972e+03
8.919175e+02,4.655215e+03
8.948102e+02,4.642596e+03
8.977029e+02,4.639256e+03
9.005956e+02,4.626958e+03
9.034883e+02,4.623708e+03
9.063810e+02,4.606603e+03
9.092737e+02,4.584670e+03
9.121664e+02,4.596072e+03
9.150591e+02,4.599647e+03
9.179518e+02,4.583151e+03
9.208445e+02,4.540948e+03
9.237372e+02,4.540819e+03
9.266299e+02,4.541554e+03
9.295226e+02,4.538734e+03
9.324153e+02,4.538814e+03
9.353080e+02,4.522489e+03
9.382007e+02,4.526414e+03
9.410934e+02,4.510330e+03
9.439861e+02,4.503010e+03
9.468788e+02,4.499662e+03
9.497715e+02,4.498182e+03
9.526642e+02,4.479279e+03
9.555569e+02,4.464226e+03
9.584496e+02,4.450238e+03
9.613423e+02,4.474958e+03
9.642350e+02,4.470351e+03
9.671277e+02,4.464086e+03
9.700204e+02,4.434527e+03
9.729131e+02,4.427455e+03
9.758058e+02,4.421093e+03
9.786985e+02,4.400582e+03
9.815912e+02,4.401619e+03
9.844839e+02,4.412232e+03
9.873766e+02,4.387983e+03
9.902693e+02,4.377963e+03
9.931620e+02,4.372461e+03
9.960547e+02,4.368936e+03
9.989474e+02,4.357593e+03
1.001840e+03,4.342129e+03
1.004733e+03,4.332653e+03
1.007626e+03,4.335609e+03
1.010518e+03,4.341862e+03
1.013411e+03,4.305743e+03
1.016304e+03,4.297520e+03
1.019196e+03,4.309112e+03
1.022089e+03,4.295310e+03
1.024982e+03,4.288781e+03
1.027875e+03,4.291569e+03
1.030767e+03,4.281817e+03
1.033660e+03,4.276238e+03
1.036552e+03,4.276548e+03
1.039445e+03,4.265646e+03
1.042338e+03,4.262616e+03
1.045231e+03,4.263718e+03
1.048123e+03,4.244137e+03
1.051016e+03,4.236629e+03
1.053909e+03,4.252960e+03
1.056802e+03,4.243864e+03
1.059694e+03,4.227795e+03
1.062587e+03,4.216396e+03
1.065479e+03,4.206268e+03
1.068372e+03,4.210701e+03
1.071265e+03,4.213521e+03
1.074158e+03,4.193704e+03
1.077050e+03,4.181872e+03
1.079943e+03,4.179705e+03
1.082836e+03,4.192817e+03
1.085729e+03,4.209255e+03
1.088621e+03,4.228607e+03
1.091514e+03,4.215534e+03
1.094406e+03,4.186481e+03
1.097299e+03,4.199552e+03
1.100192e+03,4.163778e+03
1.103085e+03,4.134482e+03
1.105977e+03,4.141542e+03
1.108870e+03,4.127026e+03
1.111763e+03,4.131615e+03
1.114656e+03,4.105302e+03
1.117548e+03,4.127273e+03
1.120441e+03,4.133798e+03
1.123334e+03,4.096228e+03
1.126226e+03,4.072325e+03
1.129119e+03,4.079284e+03
1.132012e+03,4.056197e+03
1.134904e+03,4.065433e+03
1.137797e+03,4.021359e+03
1.140690e+03,4.033227e+03
1.143583e+03,4.031658e+03
1.146475e+03,4.017087e+03
1.149368e+03,4.053026e+03
1.152261e+03,4.031772e+03
1.155153e+03,4.006595e+03
1.158046e+03,3.992306e+03
1.160939e+03,3.994445e+03
1.163831e+03,4.000823e+03
1.166724e+03,3.973594e+03
1.169617e+03,3.945372e+03
1.172510e+03,3.939901e+03
1.175402e+03,3.944619e+03
1.178295e+03,3.945826e+03
1.181188e+03,3.936587e+03
1.184080e+03,3.937825e+03
1.186973e+03,3.906560e+03
1.189866e+03,3.917214e+03
1.192758e+03,3.898340e+03
1.195651e+03,3.919582e+03
1.198544e+03,3.910000e+03
1.201437e+03,3.898990e+03
1.204329e+03,3.876524e+03
1.207222e+03,3.865096e+03
1.210115e+03,3.872917e+03
1.213007e+03,3.861165e+03
1.215900e+03,3.856403e+03
1.218793e+03,3.843897e+03
1.221685e+03,3.860365e+03
1.224578e+03,3.836578e+03
1.227471e+03,3.850836e+03
1.230364e+03,3.830210e+03
1.233256e+03,3.821215e+03
1.236149e+03,3.821297e+03
1.239042e+03,3.805646e+03
1.241934e+03,3.810657e+03
1.244827e+03,3.798285e+03
1.247720e+03,3.805502e+03
1.250612e+03,3.776930e+03
1.253505e+03,3.786079e+03
1.256398e+03,3.785323e+03
1.259291e+03,3.768702e+03
1.262183e+03,3.759513e+03
1.265076e+03,3.761560e+03
1.267969e+03,3.766954e+03
1.270861e+03,3.760312e+03
1.273754e+03,3.759099e+03
1.276647e+03,3.771247e+03
1.279539e+03,3.733110e+03
1.282432e+03,3.727736e+03
1.285325e+03,3.710117e+03
1.288218e+03,3.728398e+03
1.291110e+03,3.707050e+03
1.294003e+03,3.706702e+03
1.296896e+03,3.698386e+03
1.299788e+03,3.717235e+03
1.302681e+03,3.688500e+03
1.305574e+03,3.689091e+03
1.308466e+03,3.685868e+03
1.311359e+03,3.671582e+03
1.314252e+03,3.677676e+03
1.317145e+03,3.668532e+03
1.320037e+03,3.685521e+03
1.322930e+03,3.661509e+03
1.325823e+03,3.655154e+03
1.328715e+03,3.643188e+03
1.331608e+03,3.641457e+03
1.334501e+03,3.649304e+03
1.337393e+03,3.644864e+03
1.340286e+03,3.634965e+03
1.343179e+03,3.622899e+03
1.346072e+03,3.619741e+03
1.348964e+03,3.633893e+03
1.351857e+03,3.609647e+03
1.354750e+03,3.605817e+03
1.357642e+03,3.607330e+03
1.360535e+03,3.589117e+03
1.363428e+03,3.598913e+03
1.366320e+03,3.609332e+03
1.369213e+03,3.597486e+03
1.372106e+03,3.596289e+03
1.374999e+03,3.580571e+03
1.377891e+03,3.561186e+03
1.380784e+03,3.576967e+03
1.383677e+03,3.568148e+03
1.386569e+03,3.546203e+03
1.389462e+03,3.518943e+03
1.392355e+03,3.533192e+03
1.395247e+03,3.522536e+03
1.398140e+03,3.515483e+03
1.401033e+03,3.503877e+03
1.403926e+03,3.510514e+03
1.406818e+03,3.495601e+03
1.409711e+03,3.496320e+03
1.412604e+03,3.501052e+03
1.415496e+03,3.483260e+03
1.418389e+03,3.486858e+03
1.421282e+03,3.459164e+03
1.424174e+03,3.475402e+03
1.427067e+03,3.477710e+03
1.429960e+03,3.465022e+03
1.432853e+03,3.451788e+03
1.435745e+03,3.444350e+03
1.438638e+03,3.420775e+03
1.441531e+03,3.434223e+03
1.444423e+03,3.432614e+03
1.447316e+03,3.424455e+03
1.450209e+03,3.429036e+03
1.453101e+03,3.424035e+03
1.455994e+03,3.403660e+03
1.458887e+03,3.408700e+03
1.461780e+03,3.408240e+03
1.464672e+03,3.423447e+03
1.467565e+03,3.403493e+03
1.470458e+03,3.400772e+03
1.473350e+03,3.385281e+03
1.476243e+03,3.397574e+03
1.479136e+03,3.374915e+03
1.482028e+03,3.370754e+03
1.484921e+03,3.357988e+03
1.487814e+03,3.367676e+03
1.490707e+03,3.346950e+03
1.493599e+03,3.354023e+03
1.496492e+03,3.340546e+03
1.499385e+03,3.328472e+03
1.502277e+03,3.337817e+03
1.505170e+03,3.320300e+03
1.508063e+03,3.335672e+03
1.510955e+03,3.335165e+03
1.513848e+03,3.307923e+03
1.516741e+03,3.309559e+03
1.519634e+03,3.311705e+03
1.522526e+03,3.302350e+03
1.525419e+03,3.293283e+03
1.528312e+03,3.277382e+03
1.531204e+03,3.268328e+03
1.534097e+03,3.271292e+03
1.536990e+03,3.278316e+03
1.539882e+03,3.269372e+03
1.542775e+03,3.252341e+03
1.545668e+03,3.264204e+03
1.548561e+03,3.253526e+03
1.551453e+03,3.250402e+03
1.554346e+03,3.256497e+03
1.557239e+03,3.253460e+03
1.560131e+03,3.231729e+03
1.563024e+03,3.238940e+03
1.565917e+03,3.260126e+03
1.568809e+03,3.260610e+03
1.571702e+03,3.256963e+03
1.574595e+03,3.262078e+03
1.577488e+03,3.242666e+03
1.580380e+03,3.225140e+03
1.583273e+03,3.222258e+03
1.586166e+03,3.241558e+03
1.589058e+03,3.214918e+03
1.591951e+03,3.213350e+03
1.594844e+03,3.177760e+03
1.597736e+03,3.200849e+03
1.600629e+03,3.174388e+03
1.603522e+03,3.195434e+03
1.606415e+03,3.165476e+03
1.609307e+03,3.160356e+03
1.612200e+03,3.175083e+03
1.615093e+03,3.163901e+03
1.617985e+03,3.160784e+03
1.620878e+03,3.145980e+03
1.623771e+03,3.147432e+03
1.626663e+03,3.135758e+03
1.629556e+03,3.121900e+03
1.632449e+03,3.150435e+03
1.635342e+03,3.132728e+03
1.638234e+03,3.124061e+03
1.641127e+03,3.093388e+03
1.644020e+03,3.097024e+03
1.646912e+03,3.088257e+03
1.649805e+03,3.096404e+03
1.652698e+03,3.088981e+03
1.655590e+03,3.075786e+03
1.658483e+03,3.062305e+03
1.661376e+03,3.076609e+03
1.664269e+03,3.047987e+03
1.667161e+03,3.042350e+03
1.670054e+03,3.059539e+03
1.672947e+03,3.049241e+03
1.675839e+03,3.050042e+03
1.678732e+03,3.038560e+03
1.681625e+03,3.038479e+03
1.684517e+03,3.011267e+03
1.687410e+03,3.013760e+03
1.690303e+03,3.030273e+03
1.693196e+03,3.012483e+03
1.696088e+03,3.011540e+03
1.698981e+03,3.015685e+03
1.701874e+03,2.998018e+03
1.704766e+03,2.985764e+03
1.707659e+03,2.996255e+03
1.710552e+03,2.987484e+03
1.713444e+03,2.970384e+03
1.716337e+03,2.975864e+03
1.719230e+03,2.959296e+03
1.722123e+03,2.961980e+03
1.725015e+03,2.951512e+03
1.727908e+03,2.937769e+03
1.730801e+03,2.941359e+03
1.733693e+03,2.930818e+03
1.736586e+03,2.961749e+03
1.739479e+03,2.926264e+03
1.742371e+03,2.926993e+03
1.745264e+03,2.937748e+03
1.748157e+03,2.920258e+03
1.751050e+03,2.909185e+03
1.753942e+03,2.908790e+03
1.756835e+03,2.897705e+03
1.759728e+03,2.876547e+03
1.762620e+03,2.902004e+03
1.765513e+03,2.905138e+03
1.768406e+03,2.894625e+03
1.771298e+03,2.879603e+03
1.774191e+03,2.885020e+03
1.777084e+03,2.866281e+03
1.779977e+03,2.875579e+03
1.782869e+03,2.858651e+03
1.785762e+03,2.844496e+03
1.788655e+03,2.853564e+03
1.791547e+03,2.831564e+03
1.794440e+03,2.829616e+03
1.797333e+03,2.807678e+03
1.800225e+03,2.797352e+03
1.803118e+03,2.813170e+03
1.806011e+03,2.793532e+03
1.808904e+03,2.803886e+03
1.811796e+03,2.792942e+03
1.814689e+03,2.804329e+03
1.817582e+03,2.785609e+03
1.820474e+03,2.793971e+03
1.823367e+03,2.796167e+03
1.826260e+03,2.787560e+03
1.829152e+03,2.785059e+03
1.832045e+03,2.779975e+03
1.834938e+03,2.776502e+03
1.837831e+03,2.773421e+03
1.840723e+03,2.761797e+03
1.843616e+03,2.767441e+03
1.846509e+03,2.745754e+03
1.849401e+03,2.733047e+03
1.852294e+03,2.699677e+03
1.855187e+03,2.713945e+03
1.858079e+03,2.719970e+03
1.860972e+03,2.685777e+03
1.863865e+03,2.718636e+03
1.866758e+03,2.687816e+03
1.869650e+03,2.697135e+03
1.872543e+03,2.691696e+03
1.875436e+03,2.693844e+03
1.878328e+03,2.683855e+03
1.881221e+03,2.676422e+03
1.884114e+03,2.678808e+03
1.887006e+03,2.633680e+03
1.889899e+03,2.671896e+03
1.892792e+03,2.647516e+03
1.895685e+03,2.640723e+03
1.898577e+03,2.625001e+03
1.901470e+03,2.631264e+03
1.904363e+03,2.634132e+03
1.907255e+03,2.625037e+03
1.910148e+03,2.631808e+03
1.913041e+03,2.609851e+03
1.915933e+03,2.611683e+03
1.918826e+03,2.610454e+03
1.921719e+03,2.588569e+03
1.924612e+03,2.574058e+03
1.927504e+03,2.583928e+03
1.930397e+03,2.595287e+03
1.933290e+03,2.556835e+03
1.936182e+03,2.585873e+03
1.939075e+03,2.535924e+03
1.941968e+03,2.554842e+03
1.944860e+03,2.550295e+03
1.947753e+03,2.537033e+03
1.950646e+03,2.539884e+03
1.953539e+03,2.526483e+03
1.956431e+03,2.527519e+03
1.959324e+03,2.522418e+03
1.962217e+03,2.526220e+03
1.965109e+03,2.491057e+03
1.968002e+03,2.499118e+03
1.970895e+03,2.490131e+03
1.973787e+03,2.498126e+03
1.976680e+03,2.491634e+03
1.979573e+03,2.471007e+03
1.982466e+03,2.481336e+03
1.985358e+03,2.467040e+03
1.988251e+03,2.448696e+03
1.991144e+03,2.460599e+03
1.994036e+03,2.445881e+03
1.996929e+03,2.465191e+03
1.999822e+03,2.449482e+03
2.002714e+03,2.448909e+03
2.005607e+03,2.411129e+03
2.008500e+03,2.413217e+03
2.011393e+03,2.394448e+03
2.014285e+03,2.416468e+03
2.017178e+03,2.409204e+03
2.020071e+03,2.407197e+03
2.022963e+03,2.393210e+03
2.025856e+03,2.374544e+03
2.028749e+03,2.389070e+03
2.031641e+03,2.391290e+03
2.034534e+03,2.390262e+03
2.037427e+03,2.358311e+03
2.040320e+03,2.349710e+03
2.043212e+03,2.344331e+03
2.046105e+03,2.359562e+03
2.048998e+03,2.355699e+03
2.051890e+03,2.332780e+03
2.054783e+03,2.330743e+03
2.057676e+03,2.297402e+03
2.060568e+03,2.331857e+03
2.063461e+03,2.308792e+03
2.066354e+03,2.309886e+03
2.069247e+03,2.296668e+03
2.072139e+03,2.279599e+03
2.075032e+03,2.285933e+03
2.077925e+03,2.285101e+03
2.080817e+03,2.288029e+03
2.083710e+03,2.266828e+03
2.086603e+03,2.267028e+03
2.089496e+03,2.249862e+03
2.092388e+03,2.246736e+03
2.095281e+03,2.260713e+03
2.098174e+03,2.246068e+03
2.101066e+03,2.241319e+03
2.103959e+03,2.216622e+03
2.106852e+03,2.214015e+03
2.109744e+03,2.236133e+03
2.112637e+03,2.211614e+03
2.115530e+03,2.203030e+03
2.118422e+03,2.189359e+03
2.121315e+03,2.206761e+03
2.124208e+03,2.203351e+03
2.127101e+03,2.193117e+03
2.129993e+03,2.160100e+03
2.132886e+03,2.172202e+03
2.135779e+03,2.144510e+03
2.138671e+03,2.172480e+03
2.141564e+03,2.162352e+03
2.144457e+03,2.144577e+03
2.147350e+03,2.113898e+03
2.150242e+03,2.132757e+03
2.153135e+03,2.133951e+03
2.156028e+03,2.121599e+03
2.158920e+03,2.117584e+03
2.161813e+03,2.118391e+03
2.164706e+03,2.111026e+03
2.167598e+03,2.094044e+03
2.170491e+03,2.098752e+03
2.173384e+03,2.111856e+03
2.176277e+03,2.081716e+03
2.179169e+03,2.073167e+03
2.182062e+03,2.074708e+03
2.184955e+03,2.086002e+03
2.187847e+03,2.068513e+03
2.190740e+03,2.044573e+03
2.193633e+03,2.055799e+03
2.196525e+03,2.045180e+03
2.199418e+03,2.039377e+03
2.202311e+03,2.048005e+03
2.205204e+03,2.042761e+03
2.208096e+03,2.030089e+03
2.210989e+03,2.017200e+03
2.213882e+03,2.004100e+03
2.216774e+03,2.018820e+03
2.219667e+03,2.007958e+03
2.222560e+03,2.007143e+03
2.225452e+03,1.959044e+03
2.228345e+03,1.968985e+03
2.231238e+03,1.984872e+03
2.234131e+03,1.958335e+03
2.237023e+03,1.995786e+03
2.239916e+03,1.971032e+03
2.242809e+03,1.968151e+03
2.245701e+03,1.965586e+03
2.248594e+03,1.948289e+03
2.251487e+03,1.945632e+03
2.254379e+03,1.927012e+03
2.257272e+03,1.914328e+03
2.260165e+03,1.920640e+03
2.263058e+03,1.923817e+03
2.265950e+03,1.914250e+03
2.268843e+03,1.904267e+03
2.271736e+03,1.904892e+03
2.274628e+03,1.891592e+03
2.277521e+03,1.906119e+03
2.280414e+03,1.899285e+03
2.283306e+03,1.893921e+03
2.286199e+03,1.884716e+03
2.289092e+03,1.877531e+03
2.291985e+03,1.877332e+03
2.294877e+03,1.870156e+03
2.297770e+03,1.848328e+03
2.300663e+03,1.847667e+03
2.303555e+03,1.857479e+03
2.306448e+03,1.831009e+03
2.309341e+03,1.833203e+03
2.312233e+03,1.856451e+03
2.315126e+03,1.810578e+03
2.318019e+03,1.824662e+03
2.320912e+03,1.815667e+03
2.323804e+03,1.799757e+03
2.326697e+03,1.790349e+03
2.329590e+03,1.820681e+03
2.332482e+03,1.816410e+03
2.335375e+03,1.791359e+03
2.338268e+03,1.798726e+03
2.341160e+03,1.776030e+03
2.344053e+03,1.774780e+03
2.346946e+03,1.780118e+03
2.349839e+03,1.778661e+03
2.352731e+03,1.768122e+03
2.355624e+03,1.774718e+03
2.358517e+03,1.761922e+03
2.361409e+03,1.773344e+03
2.364302e+03,1.742334e+03
2.367195e+03,1.729029e+03
2.370087e+03,1.738470e+03
2.372980e+03,1.736894e+03
2.375873e+03,1.729579e+03
2.378766e+03,1.734373e+03
2.381658e+03,1.714163e+03
2.384551e+03,1.706175e+03
2.387444e+03,1.712162e+03
2.390336e+03,1.702615e+03
2.393229e+03,1.696708e+03
2.396122e+03,1.696499e+03
2.399014e+03,1.673912e+03
2.401907e+03,1.687047e+03
2.404800e+03,1.689695e+03
2.407693e+03,1.695149e+03
2.410585e+03,1.658808e+03
2.413478e+03,1.657412e+03
2.416371e+03,1.665337e+03
2.419263e+03,1.665414e+03
2.422156e+03,1.664057e+03
2.425049e+03,1.662161e+03
2.427941e+03,1.647280e+03
2.430834e+03,1.635959e+03
2.433727e+03,1.651171e+03
2.436620e+03,1.633607e+03
2.439512e+03,1.635209e+03
2.442405e+03,1.643474e+03
2.445298e+03,1.615022e+03
2.448190e+03,1.615416e+03
2.451083e+03,1.628024e+03
2.453976e+03,1.610154e+03
2.456868e+03,1.594143e+03
2.459761e+03,1.590655e+03
2.462654e+03,1.581665e+03
2.465547e+03,1.617130e+03
2.468439e+03,1.588856e+03
2.471332e+03,1.587622e+03
2.474225e+03,1.576004e+03
2.477117e+03,1.585390e+03
2.480010e+03,1.585981e+03
2.482903e+03,1.575270e+03
2.485795e+03,1.567176e+03
2.488688e+03,1.549264e+03
2.491581e+03,1.553508e+03
2.494474e+03,1.524663e+03
2.497366e+03,1.567211e+03
2.500259e+03,1.537981e+03
2.503152e+03,1.543646e+03
2.506044e+03,1.544281e+03
2.508937e+03,1.538494e+03
2.511830e+03,1.525117e+03
2.514722e+03,1.520920e+03
2.517615e+03,1.511483e+03
2.520508e+03,1.513967e+03
2.523401e+03,1.517946e+03
2.526293e+03,1.494396e+03
2.529186e+03,1.518591e+03
2.532079e+03,1.508219e+03
2.534971e+03,1.508118e+03
2.537864e+03,1.492914e+03
2.540757e+03,1.493250e+03
2.543649e+03,1.484189e+03
2.546542e+03,1.489712e+03
2.549435e+03,1.492781e+03
2.552328e+03,1.478563e+03
2.555220e+03,1.499718e+03
2.558113e+03,1.484559e+03
2.561006e+03,1.484977e+03
2.563898e+03,1.465149e+03
2.566791e+03,1.478813e+03
2.569684e+03,1.448736e+03
2.572576e+03,1.468039e+03
2.575469e+03,1.483295e+03
2.578362e+03,1.450187e+03
2.581255e+03,1.458836e+03
2.584147e+03,1.432582e+03
2.587040e+03,1.448031e+03
2.589933e+03,1.439633e+03
2.592825e+03,1.434215e+03
2.595718e+03,1.422949e+03
2.598611e+03,1.424537e+03
2.601503e+03,1.428684e+03
2.604396e+03,1.430722e+03
2.607289e+03,1.441940e+03
2.610182e+03,1.418692e+03
2.613074e+03,1.418620e+03
2.615967e+03,1.409842e+03
2.618860e+03,1.407726e+03
2.621752e+03,1.407595e+03
2.624645e+03,1.409029e+03
2.627538e+03,1.407624e+03
2.630430e+03,1.382376e+03
2.633323e+03,1.375411e+03
2.636216e+03,1.394472e+03
2.639109e+03,1.382652e+03
2.642001e+03,1.374765e+03
2.644894e+03,1.389562e+03
2.647787e+03,1.363606e+03
2.650679e+03,1.374309e+03
2.653572e+03,1.381678e+03
2.656465e+03,1.371442e+03
2.659357e+03,1.360502e+03
2.662250e+03,1.367548e+03
2.665143e+03,1.370959e+03
2.668036e+03,1.352612e+03
2.670928e+03,1.356154e+03
2.673821e+03,1.357804e+03
2.676714e+03,1.326700e+03
2.679606e+03,1.345866e+03
2.682499e+03,1.338994e+03
2.685392e+03,1.348880e+03
2.688284e+03,1.331483e+03
2.691177e+03,1.343007e+03
2.694070e+03,1.335595e+03
2.696963e+03,1.339530e+03
2.699855e+03,1.334490e+03
2.702748e+03,1.315388e+03
2.705641e+03,1.321297e+03
2.708533e+03,1.297522e+03
2.711426e+03,1.308974e+03
2.714319e+03,1.317344e+03
2.717211e+03,1.320118e+03
2.720104e+03,1.306469e+03
2.722997e+03,1.300907e+03
2.725890e+03,1.282704e+03
2.728782e+03,1.304574e+03
2.731675e+03,1.297645e+03
2.734568e+03,1.312656e+03
2.737460e+03,1.282498e+03
2.740353e+03,1.299096e+03
2.743246e+03,1.277326e+03
2.746138e+03,1.281949e+03
2.749031e+03,1.292236e+03
2.751924e+03,1.281723e+03
2.754817e+03,1.260279e+03
2.757709e+03,1.273005e+03
2.760602e+03,1.253611e+03
2.763495e+03,1.264666e+03
2.766387e+03,1.277270e+03
2.769280e+03,1.277924e+03
2.772173e+03,1.270817e+03
2.775065e+03,1.237378e+03
2.777958e+03,1.249158e+03
2.780851e+03,1.244618e+03
2.783744e+03,1.244599e+03
2.786636e+03,1.241567e+03
2.789529e+03,1.264842e+03
2.792422e+03,1.244321e+03
2.795314e+03,1.221189e+03
2.798207e+03,1.232017e+03
2.801100e+03,1.228813e+03
2.803992e+03,1.244686e+03
2.806885e+03,1.236565e+03
2.809778e+03,1.221472e+03
2.812671e+03,1.230965e+03
2.815563e+03,1.237963e+03
2.818456e+03,1.228097e+03
2.821349e+03,1.182588e+03
2.824241e+03,1.229370e+03
2.827134e+03,1.208386e+03
2.830027e+03,1.230037e+03
2.832919e+03,1.215815e+03
2.835812e+03,1.218297e+03
2.838705e+03,1.222114e+03
2.841598e+03,1.196134e+03
2.844490e+03,1.221063e+03
2.847383e+03,1.202981e+03
2.850276e+03,1.234188e+03
2.853168e+03,1.209695e+03
2.856061e+03,1.211380e+03
2.858954e+03,1.206527e+03
2.861846e+03,1.191322e+03
2.864739e+03,1.208114e+03
2.867632e+03,1.206182e+03
2.870525e+03,1.205658e+03
2.873417e+03,1.223892e+03
2.876310e+03,1.183601e+03
2.879203e+03,1.224935e+03
2.882095e+03,1.183789e+03
2.884988e+03,1.232401e+03
2.887881e+03,1.198744e+03
2.890773e+03,1.235414e+03
2.893666e+03,1.222251e+03
2.896559e+03,1.207727e+03
2.899452e+03,1.220181e+03
2.902344e+03,1.200245e+03
2.905237e+03,1.200412e+03
2.908130e+03,1.223153e+03
2.911022e+03,1.206981e+03
2.913915e+03,1.178479e+03
2.916808e+03,1.186555e+03
2.919700e+03,1.183630e+03
2.922593e+03,1.178976e+03
2.925486e+03,1.215979e+03
2.928379e+03,1.145892e+03
2.931271e+03,1.158303e+03
2.934164e+03,1.159162e+03
2.937057e+03,1.134629e+03
2.939949e+03,1.154746e+03
2.942842e+03,1.144619e+03
2.945735e+03,1.167991e+03
2.948627e+03,1.146631e+03
2.951520e+03,1.135086e+03
2.954413e+03,1.119351e+03
2.957306e+03,1.168040e+03
2.960198e+03,1.157666e+03
2.963091e+03,1.151352e+03
2.965984e+03,1.165541e+03
2.968876e+03,1.131921e+03
2.971769e+03,1.101609e+03
2.974662e+03,1.146198e+03
2.977554e+03,1.111972e+03
2.980447e+03,1.122820e+03
2.983340e+03,1.120903e+03
2.986233e+03,1.101725e+03
2.989125e+03,1.086955e+03
2.992018e+03,1.092625e+03
2.994911e+03,1.059014e+03
2.997803e+03,1.106030e+03
3.000696e+03,1.086338e+03
3.003589e+03,1.096531e+03
3.006481e+03,1.076753e+03
3.009374e+03,1.078734e+03
3.012267e+03,1.084013e+03
3.015160e+03,1.088376e+03
3.018052e+03,1.028115e+03
3.020945e+03,1.080454e+03
3.023838e+03,1.061665e+03
3.026730e+03,1.092066e+03
3.029623e+03,1.050198e+03
3.032516e+03,1.071772e+03
3.035408e+03,1.056656e+03
3.038301e+03,1.080359e+03
3.041194e+03,1.053592e+03
3.044087e+03,1.068704e+03
3.046979e+03,1.092545e+03
3.049872e+03,1.050518e+03
3.052765e+03,1.048648e+03
3.055657e+03,1.057682e+03
3.058550e+03,1.059008e+03
3.061443e+03,1.072649e+03
3.064335e+03,1.058761e+03
3.067228e+03,1.055134e+03
3.070121e+03,1.043208e+03
3.073014e+03,1.030866e+03
3.075906e+03,1.025255e+03
3.078799e+03,1.043725e+03
3.081692e+03,1.052330e+03
3.084584e+03,1.043527e+03
3.087477e+03,1.054445e+03
3.090370e+03,1.057892e+03
3.093262e+03,1.082996e+03
3.096155e+03,1.061576e+03
3.099048e+03,1.054684e+03
3.101941e+03,1.054598e+03
3.104833e+03,1.030170e+03
3.107726e+03,1.031901e+03
3.110619e+03,1.020323e+03
3.113511e+03,1.029881e+03
3.116404e+03,1.023741e+03
3.119297e+03,1.057061e+03
3.122189e+03,1.046679e+03
3.125082e+03,1.067121e+03
3.127975e+03,1.014900e+03
3.130868e+03,1.012906e+03
3.133760e+03,1.067689e+03
3.136653e+03,1.003615e+03
3.139546e+03,1.038501e+03
3.142438e+03,1.044935e+03
3.145331e+03,1.024672e+03
3.148224e+03,1.029858e+03
3.151116e+03,1.038700e+03
3.154009e+03,1.034587e+03
3.156902e+03,1.030962e+03
3.159795e+03,1.011082e+03
3.162687e+03,1.047027e+03
3.165580e+03,1.024367e+03
3.168473e+03,1.073984e+03
3.171365e+03,1.018863e+03
3.174258e+03,1.040684e+03
3.177151e+03,1.018735e+03
3.180043e+03,1.030443e+03
3.182936e+03,1.037903e+03
3.185829e+03,1.069703e+03
3.188722e+03,9.876568e+02
3.191614e+03,1.064836e+03
3.194507e+03,1.034274e+03
3.197400e+03,1.000895e+03
3.200292e+03,1.032882e+03
3.203185e+03,0.000000e+00
3.206078e+03,0.000000e+00
3.208970e+03,0.000000e+00
3.211863e+03,0.000000e+00
3.214756e+03,0.000000e+00
3.217649e+03,0.000000e+00
3.220541e+03,0.000000e+00
3.223434e+03,0.000000e+00
3.226327e+03,0.000000e+00
3.229219e+03,0.000000e+00
3.232112e+03,0.000000e+00
3.235005e+03,0.000000e+00
3.237897e+03,0.000000e+00
3.240790e+03,0.000000e+00
3.243683e+03,0.000000e+00
3.246576e+03,0.000000e+00
3.249468e+03,0.000000e+00
3.252361e+03,0.000000e+00
3.255254e+03,0.000000e+00
3.258146e+03,0.000000e+00
3.261039e+03,0.000000e+00
3.263932e+03,0.000000e+00
3.266824e+03,0.000000e+00
3.269717e+03,0.000000e+00
3.272610e+03,0.000000e+00
3.275503e+03,0.000000e+00
3.278395e+03,0.000000e+00
3.281288e+03,0.000000e+00
3.284181e+03,0.000000e+00
3.287073e+03,0.000000e+00
3.289966e+03,0.000000e+00
3.292859e+03,0.000000e+00
3.295751e+03,0.000000e+00
3.298644e+03,0.000000e+00
3.301537e+03,0.000000e+00
3.304430e+03,0.000000e+00
3.307322e+03,0.000000e+00
3.310215e+03,0.000000e+00
3.313108e+03,0.000000e+00
3.316000e+03,0.000000e+00
3.318893e+03,0.000000e+00
3.321786e+03,0.000000e+00
3.324678e+03,0.000000e+00
3.327571e+03,0.000000e+00
3.330464e+03,0.000000e+00
3.333357e+03,0.000000e+00
3.336249e+03,0.000000e+00
3.339142e+03,0.000000e+00
3.342035e+03,0.000000e+00
3.344927e+03,0.000000e+00
3.347820e+03,0.000000e+00
3.350713e+03,0.000000e+00
3.353605e+03,0.000000e+00
3.356498e+03,0.000000e+00
3.359391e+03,0.000000e+00
3.362284e+03,0.000000e+00
3.365176e+03,0.000000e+00
3.368069e+03,0.000000e+00
3.370962e+03,0.000000e+00
3.373854e+03,0.000000e+00
3.376747e+03,0.000000e+00
3.379640e+03,0.000000e+00
3.382532e+03,0.000000e+00
3.385425e+03,0.000000e+00
3.388318e+03,0.000000e+00
3.391211e+03,0.000000e+00
3.394103e+03,0.000000e+00
3.396996e+03,0.000000e+00
3.399889e+03,0.000000e+00
3.402781e+03,0.000000e+00
3.405674e+03,0.000000e+00
3.408567e+03,0.000000e+00
3.411459e+03,0.000000e+00
3.414352e+03,0.000000e+00
3.417245e+03,0.000000e+00
3.420138e+03,0.000000e+00
3.423030e+03,0.000000e+00
3.425923e+03,0.000000e+00
3.428816e+03,0.000000e+00
3.431708e+03,0.000000e+00
3.434601e+03,0.000000e+00
3.437494e+03,0.000000e+00
3.440386e+03,0.000000e+00
3.443279e+03,0.000000e+00
3.446172e+03,0.000000e+00
3.449065e+03,0.000000e+00
3.451957e+03,0.000000e+00
3.454850e+03,0.000000e+00
3.457743e+03,0.000000e+00
3.460635e+03,0.000000e+00
3.463528e+03,0.000000e+00
3.466421e+03,0.000000e+00
3.469313e+03,0.000000e+00
3.472206e+03,0.000000e+00
3.475099e+03,0.000000e+00
3.477992e+03,0.000000e+00
3.480884e+03,0.000000e+00
3.483777e+03,0.000000e+00
3.486670e+03,0.000000e+00
3.489563e+03,0.000000e+00
3.492455e+03,0.000000e+00
3.495348e+03,0.000000e+00
3.498240e+03,0.000000e+00
3.500169e+03,0.000000e+00