File: RAMAN_data/20012023_r3/blue fibre8.CSV
9.931763e+01,0.000000e+00
1.022103e+02,0.000000e+00
1.051030e+02,0.000000e+00
1.079957e+02,0.000000e+00
1.108884e+02,0.000000e+00
1.137811e+02,0.000000e+00
1.166738e+02,0.000000e+00
1.195665e+02,0.000000e+00
1.224592e+02,0.000000e+00
1.253519e+02,0.000000e+00
1.282446e+02,0.000000e+00
1.311373e+02,0.000000e+00
1.340300e+02,0.000000e+00
1.369227e+02,0.000000e+00
1.398154e+02,0.000000e+00
1.427081e+02,0.000000e+00
1.456008e+02,0.000000e+00
1.484935e+02,0.000000e+00
1.513862e+02,0.000000e+00
1.542789e+02,0.000000e+00
1.571716e+02,0.000000e+00
1.600643e+02,0.000000e+00
1.629570e+02,0.000000e+00
1.658497e+02,0.000000e+00
1.687424e+02,0.000000e+00
1.716351e+02,0.000000e+00
1.745278e+02,0.000000e+00
1.774205e+02,0.000000e+00
1.803132e+02,0.000000e+00
1.832059e+02,0.000000e+00
1.860986e+02,0.000000e+00
1.889913e+02,0.000000e+00
1.918840e+02,0.000000e+00
1.947767e+02,0.000000e+00
1.976694e+02,0.000000e+00
2.005621e+02,1.047899e+04
2.034548e+02,1.051899e+04
2.063475e+02,1.054891e+04
2.092402e+02,1.054938e+04
2.121329e+02,1.055037e+04
2.150256e+02,1.057905e+04
2.179183e+02,1.060927e+04
2.208110e+02,1.066068e+04
2.237037e+02,1.067604e+04
2.265964e+02,1.068651e+04
2.294892e+02,1.071479e+04
2.323819e+02,1.076347e+04
2.352746e+02,1.080069e+04
2.381673e+02,1.083713e+04
2.410600e+02,1.083247e+04
2.439527e+02,1.084990e+04
2.468454e+02,1.088676e+04
2.497381e+02,1.092278e+04
2.526308e+02,1.095922e+04
2.555235e+02,1.097428e+04
2.584161e+02,1.097618e+04
2.613088e+02,1.101875e+04
2.642015e+02,1.107090e+04
2.670942e+02,1.109680e+04
2.699869e+02,1.113129e+04
2.728796e+02,1.114345e+04
2.757723e+02,1.118588e+04
2.786650e+02,1.122837e+04
2.815577e+02,1.125757e+04
2.844504e+02,1.128443e+04
2.873431e+02,1.128894e+04
2.902358e+02,1.131662e+04
2.931285e+02,1.134527e+04
2.960212e+02,1.138987e+04
2.989139e+02,1.141438e+04
3.018066e+02,1.143403e+04
3.046993e+02,1.146588e+04
3.075920e+02,1.148845e+04
3.104847e+02,1.152735e+04
3.133774e+02,1.157835e+04
3.162701e+02,1.159458e+04
3.191628e+02,1.160775e+04
3.220555e+02,1.163998e+04
3.249482e+02,1.168473e+04
3.278409e+02,1.172350e+04
3.307336e+02,1.175910e+04
3.336263e+02,1.178434e+04
3.365190e+02,1.179563e+04
3.394117e+02,1.184454e+04
3.423044e+02,1.188976e+04
3.451971e+02,1.195046e+04
3.480898e+02,1.197444e+04
3.509825e+02,1.198815e+04
3.538752e+02,1.203829e+04
3.567680e+02,1.208699e+04
3.596607e+02,1.212620e+04
3.625534e+02,1.216527e+04
3.654461e+02,1.215099e+04
3.683388e+02,1.217619e+04
3.712315e+02,1.223918e+04
3.741242e+02,1.227458e+04
3.770169e+02,1.231110e+04
3.799096e+02,1.235298e+04
3.828023e+02,1.236815e+04
3.856950e+02,1.240989e+04
3.885877e+02,1.246675e+04
3.914804e+02,1.251700e+04
3.943731e+02,1.254452e+04
3.972658e+02,1.257093e+04
4.001585e+02,1.259455e+04
4.030512e+02,1.265127e+04
4.059439e+02,1.268371e+04
4.088366e+02,1.272614e+04
4.117293e+02,1.274362e+04
4.146220e+02,1.277177e+04
4.175147e+02,1.281287e+04
4.204074e+02,1.285215e+04
4.233001e+02,1.288550e+04
4.261928e+02,1.290769e+04
4.290855e+02,1.294545e+04
4.319782e+02,1.298619e+04
4.348709e+02,1.304495e+04
4.377636e+02,1.309429e+04
4.406563e+02,1.313490e+04
4.435490e+02,1.317557e+04
4.464417e+02,1.321596e+04
4.493344e+02,1.326363e+04
4.522271e+02,1.329423e+04
4.551198e+02,1.332356e+04
4.580125e+02,1.333318e+04
4.609052e+02,1.337746e+04
4.637979e+02,1.340270e+04
4.666906e+02,1.342675e+04
4.695833e+02,1.347341e+04
4.724760e+02,1.351124e+04
4.753687e+02,1.353445e+04
4.782614e+02,1.356081e+04
4.811541e+02,1.360224e+04
4.840468e+02,1.364769e+04
4.869395e+02,1.368037e+04
4.898322e+02,1.370541e+04
4.927249e+02,1.374474e+04
4.956176e+02,1.378795e+04
4.985103e+02,1.383418e+04
5.014030e+02,1.385629e+04
5.042957e+02,1.387491e+04
5.071884e+02,1.389021e+04
5.100811e+02,1.391298e+04
5.129738e+02,1.394550e+04
5.158665e+02,1.399692e+04
5.187592e+02,1.401215e+04
5.216519e+02,1.400737e+04
5.245446e+02,1.405473e+04
5.274373e+02,1.410203e+04
5.303300e+02,1.412631e+04
5.332227e+02,1.412495e+04
5.361154e+02,1.414645e+04
5.390081e+02,1.416972e+04
5.419008e+02,1.421837e+04
5.447935e+02,1.426084e+04
5.476862e+02,1.428283e+04
5.505789e+02,1.428556e+04
5.534716e+02,1.427678e+04
5.563643e+02,1.431946e+04
5.592570e+02,1.435454e+04
5.621497e+02,1.439837e+04
5.650424e+02,1.440425e+04
5.679351e+02,1.440188e+04
5.708278e+02,1.441501e+04
5.737205e+02,1.446632e+04
5.766132e+02,1.451403e+04
5.795059e+02,1.453861e+04
5.823986e+02,1.455699e+04
5.852913e+02,1.457575e+04
5.881840e+02,1.461467e+04
5.910767e+02,1.465716e+04
5.939694e+02,1.469887e+04
5.968621e+02,1.471280e+04
5.997548e+02,1.472232e+04
6.026475e+02,1.474915e+04
6.055402e+02,1.479449e+04
6.084329e+02,1.480358e+04
6.113256e+02,1.479925e+04
6.142183e+02,1.479783e+04
6.171110e+02,1.480373e+04
6.200037e+02,1.484330e+04
6.228964e+02,1.487319e+04
6.257891e+02,1.490916e+04
6.286818e+02,1.490022e+04
6.315745e+02,1.490827e+04
6.344672e+02,1.494896e+04
6.373599e+02,1.498388e+04
6.402526e+02,1.499741e+04
6.431453e+02,1.500741e+04
6.460380e+02,1.501156e+04
6.489307e+02,1.505279e+04
6.518234e+02,1.509670e+04
6.547161e+02,1.510578e+04
6.576088e+02,1.509450e+04
6.605015e+02,1.509527e+04
6.633942e+02,1.510781e+04
6.662869e+02,1.514584e+04
6.691796e+02,1.518046e+04
6.720723e+02,1.518342e+04
6.749650e+02,1.516799e+04
6.778577e+02,1.514799e+04
6.807504e+02,1.516651e+04
6.836431e+02,1.520496e+04
6.865358e+02,1.520200e+04
6.894285e+02,1.519395e+04
6.923212e+02,1.520169e+04
6.952139e+02,1.521573e+04
6.981066e+02,1.526848e+04
7.009993e+02,1.527256e+04
7.038920e+02,1.526983e+04
7.067847e+02,1.525350e+04
7.096774e+02,1.525943e+04
7.125701e+02,1.527661e+04
7.154628e+02,1.528766e+04
7.183555e+02,1.528962e+04
7.212482e+02,1.527218e+04
7.241409e+02,1.527022e+04
7.270336e+02,1.526573e+04
7.299263e+02,1.527459e+04
7.328190e+02,1.527758e+04
7.357117e+02,1.526974e+04
7.386044e+02,1.526134e+04
7.414971e+02,1.526304e+04
7.443898e+02,1.526429e+04
7.472825e+02,1.529838e+04
7.501752e+02,1.526561e+04
7.530679e+02,1.525480e+04
7.559606e+02,1.524167e+04
7.588533e+02,1.525349e+04
7.617460e+02,1.528168e+04
7.646387e+02,1.524539e+04
7.675314e+02,1.525528e+04
7.704241e+02,1.520913e+04
7.733168e+02,1.518211e+04
7.762095e+02,1.522906e+04
7.791022e+02,1.524386e+04
7.819949e+02,1.520059e+04
7.848876e+02,1.517197e+04
7.877803e+02,1.515915e+04
7.906730e+02,1.514186e+04
7.935657e+02,1.517592e+04
7.964584e+02,1.512679e+04
7.993511e+02,1.512022e+04
8.022438e+02,1.510676e+04
8.051365e+02,1.511077e+04
8.080292e+02,1.512238e+04
8.109219e+02,1.510789e+04
8.138146e+02,1.510323e+04
8.167073e+02,1.508295e+04
8.196000e+02,1.507191e+04
8.224927e+02,1.507937e+04
8.253854e+02,1.507339e+04
8.282781e+02,1.504160e+04
8.311708e+02,1.500352e+04
8.340635e+02,1.500693e+04
8.369562e+02,1.499833e+04
8.398489e+02,1.497732e+04
8.427416e+02,1.495447e+04
8.456343e+02,1.491304e+04
8.485270e+02,1.488165e+04
8.514197e+02,1.485258e+04
8.543124e+02,1.485084e+04
8.572051e+02,1.483557e+04
8.600978e+02,1.479902e+04
8.629905e+02,1.478478e+04
8.658832e+02,1.475820e+04
8.687759e+02,1.476748e+04
8.716686e+02,1.475810e+04
8.745613e+02,1.470254e+04
8.774540e+02,1.467971e+04
8.803467e+02,1.467756e+04
8.832394e+02,1.466605e+04
8.861321e+02,1.467136e+04
8.890248e+02,1.463373e+04
8.919175e+02,1.458521e+04
8.948102e+02,1.457301e+04
8.977029e+02,1.454933e+04
9.005956e+02,1.451807e+04
9.034883e+02,1.452813e+04
9.063810e+02,1.448119e+04
9.092737e+02,1.445538e+04
9.121664e+02,1.443234e+04
9.150591e+02,1.441818e+04
9.179518e+02,1.442170e+04
9.208445e+02,1.435555e+04
9.237372e+02,1.432419e+04
9.266299e+02,1.431949e+04
9.295226e+02,1.431703e+04
9.324153e+02,1.430228e+04
9.353080e+02,1.429442e+04
9.382007e+02,1.424799e+04
9.410934e+02,1.422677e+04
9.439861e+02,1.419758e+04
9.468788e+02,1.418892e+04
9.497715e+02,1.417117e+04
9.526642e+02,1.410833e+04
9.555569e+02,1.405309e+04
9.584496e+02,1.401675e+04
9.613423e+02,1.400245e+04
9.642350e+02,1.396611e+04
9.671277e+02,1.394241e+04
9.700204e+02,1.389674e+04
9.729131e+02,1.383819e+04
9.758058e+02,1.383006e+04
9.786985e+02,1.383075e+04
9.815912e+02,1.379767e+04
9.844839e+02,1.373209e+04
9.873766e+02,1.369642e+04
9.902693e+02,1.367490e+04
9.931620e+02,1.368169e+04
9.960547e+02,1.365736e+04
9.989474e+02,1.360553e+04
1.001840e+03,1.353509e+04
1.004733e+03,1.352063e+04
1.007626e+03,1.352195e+04
1.010518e+03,1.352315e+04
1.013411e+03,1.346450e+04
1.016304e+03,1.341521e+04
1.019196e+03,1.339259e+04
1.022089e+03,1.337200e+04
1.024982e+03,1.337917e+04
1.027875e+03,1.333640e+04
1.030767e+03,1.328678e+04
1.033660e+03,1.325537e+04
1.036552e+03,1.323313e+04
1.039445e+03,1.322859e+04
1.042338e+03,1.319648e+04
1.045231e+03,1.316415e+04
1.048123e+03,1.311727e+04
1.051016e+03,1.309154e+04
1.053909e+03,1.310688e+04
1.056802e+03,1.308644e+04
1.059694e+03,1.305441e+04
1.062587e+03,1.301874e+04
1.065479e+03,1.300166e+04
1.068372e+03,1.299629e+04
1.071265e+03,1.300379e+04
1.074158e+03,1.298102e+04
1.077050e+03,1.292546e+04
1.079943e+03,1.289797e+04
1.082836e+03,1.290117e+04
1.085729e+03,1.288339e+04
1.088621e+03,1.286494e+04
1.091514e+03,1.279978e+04
1.094406e+03,1.274686e+04
1.097299e+03,1.273169e+04
1.100192e+03,1.273034e+04
1.103085e+03,1.271158e+04
1.105977e+03,1.268010e+04
1.108870e+03,1.264655e+04
1.111763e+03,1.262012e+04
1.114656e+03,1.261370e+04
1.117548e+03,1.262516e+04
1.120441e+03,1.259989e+04
1.123334e+03,1.255476e+04
1.126226e+03,1.251250e+04
1.129119e+03,1.251101e+04
1.132012e+03,1.251856e+04
1.134904e+03,1.249088e+04
1.137797e+03,1.244471e+04
1.140690e+03,1.242159e+04
1.143583e+03,1.240856e+04
1.146475e+03,1.239991e+04
1.149368e+03,1.239142e+04
1.152261e+03,1.239111e+04
1.155153e+03,1.233228e+04
1.158046e+03,1.230157e+04
1.160939e+03,1.231762e+04
1.163831e+03,1.232199e+04
1.166724e+03,1.228634e+04
1.169617e+03,1.224983e+04
1.172510e+03,1.222074e+04
1.175402e+03,1.221769e+04
1.178295e+03,1.221967e+04
1.181188e+03,1.222204e+04
1.184080e+03,1.218831e+04
1.186973e+03,1.215562e+04
1.189866e+03,1.215787e+04
1.192758e+03,1.215338e+04
1.195651e+03,1.215508e+04
1.198544e+03,1.215958e+04
1.201437e+03,1.210147e+04
1.204329e+03,1.206927e+04
1.207222e+03,1.208336e+04
1.210115e+03,1.211081e+04
1.213007e+03,1.210103e+04
1.215900e+03,1.207091e+04
1.218793e+03,1.206090e+04
1.221685e+03,1.206943e+04
1.224578e+03,1.208853e+04
1.227471e+03,1.209388e+04
1.230364e+03,1.207938e+04
1.233256e+03,1.204628e+04
1.236149e+03,1.203708e+04
1.239042e+03,1.207636e+04
1.241934e+03,1.209637e+04
1.244827e+03,1.207817e+04
1.247720e+03,1.205847e+04
1.250612e+03,1.205658e+04
1.253505e+03,1.207111e+04
1.256398e+03,1.208695e+04
1.259291e+03,1.209946e+04
1.262183e+03,1.207352e+04
1.265076e+03,1.206679e+04
1.267969e+03,1.206690e+04
1.270861e+03,1.211000e+04
1.273754e+03,1.212802e+04
1.276647e+03,1.211681e+04
1.279539e+03,1.209122e+04
1.282432e+03,1.208585e+04
1.285325e+03,1.212119e+04
1.288218e+03,1.214299e+04
1.291110e+03,1.213679e+04
1.294003e+03,1.213494e+04
1.296896e+03,1.212579e+04
1.299788e+03,1.215171e+04
1.302681e+03,1.218424e+04
1.305574e+03,1.221203e+04
1.308466e+03,1.219233e+04
1.311359e+03,1.220740e+04
1.314252e+03,1.220847e+04
1.317145e+03,1.224543e+04
1.320037e+03,1.227719e+04
1.322930e+03,1.225932e+04
1.325823e+03,1.225572e+04
1.328715e+03,1.227864e+04
1.331608e+03,1.231272e+04
1.334501e+03,1.234825e+04
1.337393e+03,1.235253e+04
1.340286e+03,1.236631e+04
1.343179e+03,1.235705e+04
1.346072e+03,1.238784e+04
1.348964e+03,1.241398e+04
1.351857e+03,1.243559e+04
1.354750e+03,1.245079e+04
1.357642e+03,1.244293e+04
1.360535e+03,1.246655e+04
1.363428e+03,1.248774e+04
1.366320e+03,1.253402e+04
1.369213e+03,1.254847e+04
1.372106e+03,1.257025e+04
1.374999e+03,1.257956e+04
1.377891e+03,1.261221e+04
1.380784e+03,1.265458e+04
1.383677e+03,1.270507e+04
1.386569e+03,1.272542e+04
1.389462e+03,1.274404e+04
1.392355e+03,1.276393e+04
1.395247e+03,1.281187e+04
1.398140e+03,1.286800e+04
1.401033e+03,1.290916e+04
1.403926e+03,1.292369e+04
1.406818e+03,1.293171e+04
1.409711e+03,1.299844e+04
1.412604e+03,1.305446e+04
1.415496e+03,1.308217e+04
1.418389e+03,1.311750e+04
1.421282e+03,1.312815e+04
1.424174e+03,1.316641e+04
1.427067e+03,1.323378e+04
1.429960e+03,1.328471e+04
1.432853e+03,1.330363e+04
1.435745e+03,1.332605e+04
1.438638e+03,1.335624e+04
1.441531e+03,1.341893e+04
1.444423e+03,1.348317e+04
1.447316e+03,1.350676e+04
1.450209e+03,1.352216e+04
1.453101e+03,1.357500e+04
1.455994e+03,1.363620e+04
1.458887e+03,1.371863e+04
1.461780e+03,1.377251e+04
1.464672e+03,1.378792e+04
1.467565e+03,1.382664e+04
1.470458e+03,1.389782e+04
1.473350e+03,1.395834e+04
1.476243e+03,1.403125e+04
1.479136e+03,1.406588e+04
1.482028e+03,1.410551e+04
1.484921e+03,1.417197e+04
1.487814e+03,1.425464e+04
1.490707e+03,1.429366e+04
1.493599e+03,1.434971e+04
1.496492e+03,1.441526e+04
1.499385e+03,1.445623e+04
1.502277e+03,1.453362e+04
1.505170e+03,1.462233e+04
1.508063e+03,1.468518e+04
1.510955e+03,1.473543e+04
1.513848e+03,1.477772e+04
1.516741e+03,1.487564e+04
1.519634e+03,1.495499e+04
1.522526e+03,1.504684e+04
1.525419e+03,1.511369e+04
1.528312e+03,1.515240e+04
1.531204e+03,1.523917e+04
1.534097e+03,1.532431e+04
1.536990e+03,1.539427e+04
1.539882e+03,1.546611e+04
1.542775e+03,1.553205e+04
1.545668e+03,1.558818e+04
1.548561e+03,1.568189e+04
1.551453e+03,1.579543e+04
1.554346e+03,1.587300e+04
1.557239e+03,1.594422e+04
1.560131e+03,1.600497e+04
1.563024e+03,1.607646e+04
1.565917e+03,1.617326e+04
1.568809e+03,1.627546e+04
1.571702e+03,1.633865e+04
1.574595e+03,1.638153e+04
1.577488e+03,1.642792e+04
1.580380e+03,1.647933e+04
1.583273e+03,1.647112e+04
1.586166e+03,1.648079e+04
1.589058e+03,1.644805e+04
1.591951e+03,1.642963e+04
1.594844e+03,1.645222e+04
1.597736e+03,1.643854e+04
1.600629e+03,1.644729e+04
1.603522e+03,1.648354e+04
1.606415e+03,1.642074e+04
1.609307e+03,1.644992e+04
1.612200e+03,1.649112e+04
1.615093e+03,1.649954e+04
1.617985e+03,1.643981e+04
1.620878e+03,1.634696e+04
1.623771e+03,1.626135e+04
1.626663e+03,1.620734e+04
1.629556e+03,1.614677e+04
1.632449e+03,1.619271e+04
1.635342e+03,1.608670e+04
1.638234e+03,1.608553e+04
1.641127e+03,1.599866e+04
1.644020e+03,1.601140e+04
1.646912e+03,1.593346e+04
1.649805e+03,1.587592e+04
1.652698e+03,1.587164e+04
1.655590e+03,1.570393e+04
1.658483e+03,1.568165e+04
1.661376e+03,1.569343e+04
1.664269e+03,1.564250e+04
1.667161e+03,1.556447e+04
1.670054e+03,1.550790e+04
1.672947e+03,1.549321e+04
1.675839e+03,1.542677e+04
1.678732e+03,1.542984e+04
1.681625e+03,1.535248e+04
1.684517e+03,1.526933e+04
1.687410e+03,1.524327e+04
1.690303e+03,1.523550e+04
1.693196e+03,1.520458e+04
1.696088e+03,1.512616e+04
1.698981e+03,1.509162e+04
1.701874e+03,1.501486e+04
1.704766e+03,1.500890e+04
1.707659e+03,1.494605e+04
1.710552e+03,1.486669e+04
1.713444e+03,1.482840e+04
1.716337e+03,1.479139e+04
1.719230e+03,1.472624e+04
1.722123e+03,1.466930e+04
1.725015e+03,1.463502e+04
1.727908e+03,1.456862e+04
1.730801e+03,1.454243e+04
1.733693e+03,1.449773e+04
1.736586e+03,1.445553e+04
1.739479e+03,1.442868e+04
1.742371e+03,1.435198e+04
1.745264e+03,1.426656e+04
1.748157e+03,1.420297e+04
1.751050e+03,1.423086e+04
1.753942e+03,1.414026e+04
1.756835e+03,1.410965e+04
1.759728e+03,1.402030e+04
1.762620e+03,1.395686e+04
1.765513e+03,1.391249e+04
1.768406e+03,1.386124e+04
1.771298e+03,1.381517e+04
1.774191e+03,1.375489e+04
1.777084e+03,1.369930e+04
1.779977e+03,1.364213e+04
1.782869e+03,1.364906e+04
1.785762e+03,1.355671e+04
1.788655e+03,1.352450e+04
1.791547e+03,1.337812e+04
1.794440e+03,1.332096e+04
1.797333e+03,1.329162e+04
1.800225e+03,1.329817e+04
1.803118e+03,1.326256e+04
1.806011e+03,1.316424e+04
1.808904e+03,1.314976e+04
1.811796e+03,1.319786e+04
1.814689e+03,1.308223e+04
1.817582e+03,1.303871e+04
1.820474e+03,1.298579e+04
1.823367e+03,1.292044e+04
1.826260e+03,1.287734e+04
1.829152e+03,1.284618e+04
1.832045e+03,1.281744e+04
1.834938e+03,1.274555e+04
1.837831e+03,1.270292e+04
1.840723e+03,1.265739e+04
1.843616e+03,1.262960e+04
1.846509e+03,1.259318e+04
1.849401e+03,1.254264e+04
1.852294e+03,1.246700e+04
1.855187e+03,1.242692e+04
1.858079e+03,1.238969e+04
1.860972e+03,1.231760e+04
1.863865e+03,1.228960e+04
1.866758e+03,1.222983e+04
1.869650e+03,1.220688e+04
1.872543e+03,1.215671e+04
1.875436e+03,1.212718e+04
1.878328e+03,1.207313e+04
1.881221e+03,1.204778e+04
1.884114e+03,1.192861e+04
1.887006e+03,1.193580e+04
1.889899e+03,1.185479e+04
1.892792e+03,1.183391e+04
1.895685e+03,1.176688e+04
1.898577e+03,1.170844e+04
1.901470e+03,1.170799e+04
1.904363e+03,1.163108e+04
1.907255e+03,1.160474e+04
1.910148e+03,1.155267e+04
1.913041e+03,1.149234e+04
1.915933e+03,1.150287e+04
1.918826e+03,1.138612e+04
1.921719e+03,1.139355e+04
1.924612e+03,1.135808e+04
1.927504e+03,1.125296e+04
1.930397e+03,1.121513e+04
1.933290e+03,1.120639e+04
1.936182e+03,1.110983e+04
1.939075e+03,1.106333e+04
1.941968e+03,1.107753e+04
1.944860e+03,1.099550e+04
1.947753e+03,1.093995e+04
1.950646e+03,1.087481e+04
1.953539e+03,1.090622e+04
1.956431e+03,1.077700e+04
1.959324e+03,1.076844e+04
1.962217e+03,1.074217e+04
1.965109e+03,1.063661e+04
1.968002e+03,1.066172e+04
1.970895e+03,1.066664e+04
1.973787e+03,1.058734e+04
1.976680e+03,1.053037e+04
1.979573e+03,1.051251e+04
1.982466e+03,1.047013e+04
1.985358e+03,1.044280e+04
1.988251e+03,1.037462e+04
1.991144e+03,1.032100e+04
1.994036e+03,1.026461e+04
1.996929e+03,1.020302e+04
1.999822e+03,1.018665e+04
2.002714e+03,1.018697e+04
2.005607e+03,1.012156e+04
2.008500e+03,1.003145e+04
2.011393e+03,1.000501e+04
2.014285e+03,1.001184e+04
2.017178e+03,9.931510e+03
2.020071e+03,9.937301e+03
2.022963e+03,9.815678e+03
2.025856e+03,9.781294e+03
2.028749e+03,9.755172e+03
2.031641e+03,9.775282e+03
2.034534e+03,9.713392e+03
2.037427e+03,9.654606e+03
2.040320e+03,9.595527e+03
2.043212e+03,9.565941e+03
2.046105e+03,9.510856e+03
2.048998e+03,9.532725e+03
2.051890e+03,9.444534e+03
2.054783e+03,9.460208e+03
2.057676e+03,9.344537e+03
2.060568e+03,9.362507e+03
2.063461e+03,9.331971e+03
2.066354e+03,9.280199e+03
2.069247e+03,9.196142e+03
2.072139e+03,9.185779e+03
2.075032e+03,9.117057e+03
2.077925e+03,9.113868e+03
2.080817e+03,9.095519e+03
2.083710e+03,9.053872e+03
2.086603e+03,9.014667e+03
2.089496e+03,8.987204e+03
2.092388e+03,8.930349e+03
2.095281e+03,8.912609e+03
2.098174e+03,8.898817e+03
2.101066e+03,8.819938e+03
2.103959e+03,8.762663e+03
2.106852e+03,8.741223e+03
2.109744e+03,8.785068e+03
2.112637e+03,8.686568e+03
2.115530e+03,8.649150e+03
2.118422e+03,8.535981e+03
2.121315e+03,8.590595e+03
2.124208e+03,8.591302e+03
2.127101e+03,8.523483e+03
2.129993e+03,8.474804e+03
2.132886e+03,8.475220e+03
2.135779e+03,8.398999e+03
2.138671e+03,8.452416e+03
2.141564e+03,8.372415e+03
2.144457e+03,8.308017e+03
2.147350e+03,8.272583e+03
2.150242e+03,8.244604e+03
2.153135e+03,8.292304e+03
2.156028e+03,8.179281e+03
2.158920e+03,8.197574e+03
2.161813e+03,8.146147e+03
2.164706e+03,8.153885e+03
2.167598e+03,8.078898e+03
2.170491e+03,8.136107e+03
2.173384e+03,8.056720e+03
2.176277e+03,8.060087e+03
2.179169e+03,7.985811e+03
2.182062e+03,7.960436e+03
2.184955e+03,7.965223e+03
2.187847e+03,7.945320e+03
2.190740e+03,7.942694e+03
2.193633e+03,7.862550e+03
2.196525e+03,7.824047e+03
2.199418e+03,7.796197e+03
2.202311e+03,7.808233e+03
2.205204e+03,7.808287e+03
2.208096e+03,7.743116e+03
2.210989e+03,7.704485e+03
2.213882e+03,7.674810e+03
2.216774e+03,7.656268e+03
2.219667e+03,7.638077e+03
2.222560e+03,7.633639e+03
2.225452e+03,7.589265e+03
2.228345e+03,7.561530e+03
2.231238e+03,7.548257e+03
2.234131e+03,7.528038e+03
2.237023e+03,7.504282e+03
2.239916e+03,7.415495e+03
2.242809e+03,7.412174e+03
2.245701e+03,7.381714e+03
2.248594e+03,7.353128e+03
2.251487e+03,7.386934e+03
2.254379e+03,7.333034e+03
2.257272e+03,7.330494e+03
2.260165e+03,7.260600e+03
2.263058e+03,7.261963e+03
2.265950e+03,7.231890e+03
2.268843e+03,7.218351e+03
2.271736e+03,7.156581e+03
2.274628e+03,7.134351e+03
2.277521e+03,7.142122e+03
2.280414e+03,7.129201e+03
2.283306e+03,7.083218e+03
2.286199e+03,7.089547e+03
2.289092e+03,7.000397e+03
2.291985e+03,6.983393e+03
2.294877e+03,7.009686e+03
2.297770e+03,6.991453e+03
2.300663e+03,6.991791e+03
2.303555e+03,6.933833e+03
2.306448e+03,6.875744e+03
2.309341e+03,6.913468e+03
2.312233e+03,6.846754e+03
2.315126e+03,6.876919e+03
2.318019e+03,6.812250e+03
2.320912e+03,6.828569e+03
2.323804e+03,6.812620e+03
2.326697e+03,6.819768e+03
2.329590e+03,6.744649e+03
2.332482e+03,6.765792e+03
2.335375e+03,6.720283e+03
2.338268e+03,6.710802e+03
2.341160e+03,6.693859e+03
2.344053e+03,6.731797e+03
2.346946e+03,6.682160e+03
2.349839e+03,6.671011e+03
2.352731e+03,6.619388e+03
2.355624e+03,6.640140e+03
2.358517e+03,6.638611e+03
2.361409e+03,6.638458e+03
2.364302e+03,6.558416e+03
2.367195e+03,6.519362e+03
2.370087e+03,6.499350e+03
2.372980e+03,6.512702e+03
2.375873e+03,6.499778e+03
2.378766e+03,6.479241e+03
2.381658e+03,6.445485e+03
2.384551e+03,6.404974e+03
2.387444e+03,6.419044e+03
2.390336e+03,6.403171e+03
2.393229e+03,6.404849e+03
2.396122e+03,6.409338e+03
2.399014e+03,6.357055e+03
2.401907e+03,6.332534e+03
2.404800e+03,6.375671e+03
2.407693e+03,6.333416e+03
2.410585e+03,6.283325e+03
2.413478e+03,6.307485e+03
2.416371e+03,6.268694e+03
2.419263e+03,6.261120e+03
2.422156e+03,6.258269e+03
2.425049e+03,6.235003e+03
2.427941e+03,6.164753e+03
2.430834e+03,6.209406e+03
2.433727e+03,6.142481e+03
2.436620e+03,6.163282e+03
2.439512e+03,6.144632e+03
2.442405e+03,6.131000e+03
2.445298e+03,6.151262e+03
2.448190e+03,6.137062e+03
2.451083e+03,6.124010e+03
2.453976e+03,6.118146e+03
2.456868e+03,6.068371e+03
2.459761e+03,6.048641e+03
2.462654e+03,6.029162e+03
2.465547e+03,5.984410e+03
2.468439e+03,6.065417e+03
2.471332e+03,5.993969e+03
2.474225e+03,5.975803e+03
2.477117e+03,5.984910e+03
2.480010e+03,5.978998e+03
2.482903e+03,5.939917e+03
2.485795e+03,5.988749e+03
2.488688e+03,5.920738e+03
2.491581e+03,5.902089e+03
2.494474e+03,5.939739e+03
2.497366e+03,5.884725e+03
2.500259e+03,5.934860e+03
2.503152e+03,5.852593e+03
2.506044e+03,5.869333e+03
2.508937e+03,5.859246e+03
2.511830e+03,5.858333e+03
2.514722e+03,5.849576e+03
2.517615e+03,5.792032e+03
2.520508e+03,5.801477e+03
2.523401e+03,5.821946e+03
2.526293e+03,5.773356e+03
2.529186e+03,5.799991e+03
2.532079e+03,5.787142e+03
2.534971e+03,5.760035e+03
2.537864e+03,5.736220e+03
2.540757e+03,5.707309e+03
2.543649e+03,5.728381e+03
2.546542e+03,5.698025e+03
2.549435e+03,5.693871e+03
2.552328e+03,5.696774e+03
2.555220e+03,5.678545e+03
2.558113e+03,5.680880e+03
2.561006e+03,5.653436e+03
2.563898e+03,5.688626e+03
2.566791e+03,5.646553e+03
2.569684e+03,5.631351e+03
2.572576e+03,5.641896e+03
2.575469e+03,5.602372e+03
2.578362e+03,5.615844e+03
2.581255e+03,5.613583e+03
2.584147e+03,5.591210e+03
2.587040e+03,5.562931e+03
2.589933e+03,5.581756e+03
2.592825e+03,5.570100e+03
2.595718e+03,5.573995e+03
2.598611e+03,5.548800e+03
2.601503e+03,5.567224e+03
2.604396e+03,5.511663e+03
2.607289e+03,5.552795e+03
2.610182e+03,5.516408e+03
2.613074e+03,5.491171e+03
2.615967e+03,5.496830e+03
2.618860e+03,5.496570e+03
2.621752e+03,5.471234e+03
2.624645e+03,5.487115e+03
2.627538e+03,5.474048e+03
2.630430e+03,5.438579e+03
2.633323e+03,5.443311e+03
2.636216e+03,5.440618e+03
2.639109e+03,5.405543e+03
2.642001e+03,5.421188e+03
2.644894e+03,5.380200e+03
2.647787e+03,5.354790e+03
2.650679e+03,5.342796e+03
2.653572e+03,5.337739e+03
2.656465e+03,5.363677e+03
2.659357e+03,5.328674e+03
2.662250e+03,5.340428e+03
2.665143e+03,5.317221e+03
2.668036e+03,5.364938e+03
2.670928e+03,5.296541e+03
2.673821e+03,5.309639e+03
2.676714e+03,5.273670e+03
2.679606e+03,5.269805e+03
2.682499e+03,5.240780e+03
2.685392e+03,5.246011e+03
2.688284e+03,5.229732e+03
2.691177e+03,5.238354e+03
2.694070e+03,5.263151e+03
2.696963e+03,5.178425e+03
2.699855e+03,5.190062e+03
2.702748e+03,5.190444e+03
2.705641e+03,5.250978e+03
2.708533e+03,5.163688e+03
2.711426e+03,5.138258e+03
2.714319e+03,5.209610e+03
2.717211e+03,5.158809e+03
2.720104e+03,5.145459e+03
2.722997e+03,5.130666e+03
2.725890e+03,5.106912e+03
2.728782e+03,5.138435e+03
2.731675e+03,5.111243e+03
2.734568e+03,5.115596e+03
2.737460e+03,5.059679e+03
2.740353e+03,5.124567e+03
2.743246e+03,5.068846e+03
2.746138e+03,5.058256e+03
2.749031e+03,5.066938e+03
2.751924e+03,5.020400e+03
2.754817e+03,5.006290e+03
2.757709e+03,5.038953e+03
2.760602e+03,5.006498e+03
2.763495e+03,5.014318e+03
2.766387e+03,5.022377e+03
2.769280e+03,4.992960e+03
2.772173e+03,4.992541e+03
2.775065e+03,4.980473e+03
2.777958e+03,4.955214e+03
2.780851e+03,4.981050e+03
2.783744e+03,4.963627e+03
2.786636e+03,4.923771e+03
2.789529e+03,4.930000e+03
2.792422e+03,4.934575e+03
2.795314e+03,4.904031e+03
2.798207e+03,4.884913e+03
2.801100e+03,4.900168e+03
2.803992e+03,4.828218e+03
2.806885e+03,4.883474e+03
2.809778e+03,4.813313e+03
2.812671e+03,4.850334e+03
2.815563e+03,4.847389e+03
2.818456e+03,4.817346e+03
2.821349e+03,4.801063e+03
2.824241e+03,4.800883e+03
2.827134e+03,4.766939e+03
2.830027e+03,4.828754e+03
2.832919e+03,4.788794e+03
2.835812e+03,4.808502e+03
2.838705e+03,4.770847e+03
2.841598e+03,4.772609e+03
2.844490e+03,4.734271e+03
2.847383e+03,4.747714e+03
2.850276e+03,4.698769e+03
2.853168e+03,4.728196e+03
2.856061e+03,4.745431e+03
2.858954e+03,4.709570e+03
2.861846e+03,4.673331e+03
2.864739e+03,4.690428e+03
2.867632e+03,4.697620e+03
2.870525e+03,4.647823e+03
2.873417e+03,4.734393e+03
2.876310e+03,4.665946e+03
2.879203e+03,4.652165e+03
2.882095e+03,4.588333e+03
2.884988e+03,4.638697e+03
2.887881e+03,4.697040e+03
2.890773e+03,4.589081e+03
2.893666e+03,4.564041e+03
2.896559e+03,4.653608e+03
2.899452e+03,4.557120e+03
2.902344e+03,4.499237e+03
2.905237e+03,4.570063e+03
2.908130e+03,4.551228e+03
2.911022e+03,4.487055e+03
2.913915e+03,4.506678e+03
2.916808e+03,4.526067e+03
2.919700e+03,4.495472e+03
2.922593e+03,4.500975e+03
2.925486e+03,4.523230e+03
2.928379e+03,4.453499e+03
2.931271e+03,4.453466e+03
2.934164e+03,4.444209e+03
2.937057e+03,4.378814e+03
2.939949e+03,4.477130e+03
2.942842e+03,4.434268e+03
2.945735e+03,4.388148e+03
2.948627e+03,4.413373e+03
2.951520e+03,4.383621e+03
2.954413e+03,4.390103e+03
2.957306e+03,4.376807e+03
2.960198e+03,4.368148e+03
2.963091e+03,4.398803e+03
2.965984e+03,4.400313e+03
2.968876e+03,4.348580e+03
2.971769e+03,4.311454e+03
2.974662e+03,4.331150e+03
2.977554e+03,4.327858e+03
2.980447e+03,4.300896e+03
2.983340e+03,4.323323e+03
2.986233e+03,4.266042e+03
2.989125e+03,4.276539e+03
2.992018e+03,4.298436e+03
2.994911e+03,4.267237e+03
2.997803e+03,4.295844e+03
3.000696e+03,4.282041e+03
3.003589e+03,4.258967e+03
3.006481e+03,4.237257e+03
3.009374e+03,4.247443e+03
3.012267e+03,4.271252e+03
3.015160e+03,4.216933e+03
3.018052e+03,4.250023e+03
3.020945e+03,4.206418e+03
3.023838e+03,4.205506e+03
3.026730e+03,4.168471e+03
3.029623e+03,4.194640e+03
3.032516e+03,4.152778e+03
3.035408e+03,4.126852e+03
3.038301e+03,4.104410e+03
3.041194e+03,4.146333e+03
3.044087e+03,4.141100e+03
3.046979e+03,4.082333e+03
3.049872e+03,4.153019e+03
3.052765e+03,4.129021e+03
3.055657e+03,4.171239e+03
3.058550e+03,4.071482e+03
3.061443e+03,4.107251e+03
3.064335e+03,4.114269e+03
3.067228e+03,4.073595e+03
3.070121e+03,4.009316e+03
3.073014e+03,4.052422e+03
3.075906e+03,4.083473e+03
3.078799e+03,4.060244e+03
3.081692e+03,4.048116e+03
3.084584e+03,4.086989e+03
3.087477e+03,4.059771e+03
3.090370e+03,3.995034e+03
3.093262e+03,4.047693e+03
3.096155e+03,4.001748e+03
3.099048e+03,4.040057e+03
3.101941e+03,3.998104e+03
3.104833e+03,4.010995e+03
3.107726e+03,4.015314e+03
3.110619e+03,3.967387e+03
3.113511e+03,3.980221e+03
3.116404e+03,4.010724e+03
3.119297e+03,4.007144e+03
3.122189e+03,3.958371e+03
3.125082e+03,3.949104e+03
3.127975e+03,3.960893e+03
3.130868e+03,3.975281e+03
3.133760e+03,3.989207e+03
3.136653e+03,3.957548e+03
3.139546e+03,3.932188e+03
3.142438e+03,3.900555e+03
3.145331e+03,3.914990e+03
3.148224e+03,3.952413e+03
3.151116e+03,3.931097e+03
3.154009e+03,3.911324e+03
3.156902e+03,3.996340e+03
3.159795e+03,3.896520e+03
3.162687e+03,3.917207e+03
3.165580e+03,3.981969e+03
3.168473e+03,3.937576e+03
3.171365e+03,3.921929e+03
3.174258e+03,3.866636e+03
3.177151e+03,3.908034e+03
3.180043e+03,3.991770e+03
3.182936e+03,3.931862e+03
3.185829e+03,3.955772e+03
3.188722e+03,3.867149e+03
3.191614e+03,3.986843e+03
3.194507e+03,3.911612e+03
3.197400e+03,3.894042e+03
3.200292e+03,3.849871e+03
3.203185e+03,0.000000e+00
3.206078e+03,0.000000e+00
3.208970e+03,0.000000e+00
3.211863e+03,0.000000e+00
3.214756e+03,0.000000e+00
3.217649e+03,0.000000e+00
3.220541e+03,0.000000e+00
3.223434e+03,0.000000e+00
3.226327e+03,0.000000e+00
3.229219e+03,0.000000e+00
3.232112e+03,0.000000e+00
3.235005e+03,0.000000e+00
3.237897e+03,0.000000e+00
3.240790e+03,0.000000e+00
3.243683e+03,0.000000e+00
3.246576e+03,0.000000e+00
3.249468e+03,0.000000e+00
3.252361e+03,0.000000e+00
3.255254e+03,0.000000e+00
3.258146e+03,0.000000e+00
3.261039e+03,0.000000e+00
3.263932e+03,0.000000e+00
3.266824e+03,0.000000e+00
3.269717e+03,0.000000e+00
3.272610e+03,0.000000e+00
3.275503e+03,0.000000e+00
3.278395e+03,0.000000e+00
3.281288e+03,0.000000e+00
3.284181e+03,0.000000e+00
3.287073e+03,0.000000e+00
3.289966e+03,0.000000e+00
3.292859e+03,0.000000e+00
3.295751e+03,0.000000e+00
3.298644e+03,0.000000e+00
3.301537e+03,0.000000e+00
3.304430e+03,0.000000e+00
3.307322e+03,0.000000e+00
3.310215e+03,0.000000e+00
3.313108e+03,0.000000e+00
3.316000e+03,0.000000e+00
3.318893e+03,0.000000e+00
3.321786e+03,0.000000e+00
3.324678e+03,0.000000e+00
3.327571e+03,0.000000e+00
3.330464e+03,0.000000e+00
3.333357e+03,0.000000e+00
3.336249e+03,0.000000e+00
3.339142e+03,0.000000e+00
3.342035e+03,0.000000e+00
3.344927e+03,0.000000e+00
3.347820e+03,0.000000e+00
3.350713e+03,0.000000e+00
3.353605e+03,0.000000e+00
3.356498e+03,0.000000e+00
3.359391e+03,0.000000e+00
3.362284e+03,0.000000e+00
3.365176e+03,0.000000e+00
3.368069e+03,0.000000e+00
3.370962e+03,0.000000e+00
3.373854e+03,0.000000e+00
3.376747e+03,0.000000e+00
3.379640e+03,0.000000e+00
3.382532e+03,0.000000e+00
3.385425e+03,0.000000e+00
3.388318e+03,0.000000e+00
3.391211e+03,0.000000e+00
3.394103e+03,0.000000e+00
3.396996e+03,0.000000e+00
3.399889e+03,0.000000e+00
3.402781e+03,0.000000e+00
3.405674e+03,0.000000e+00
3.408567e+03,0.000000e+00
3.411459e+03,0.000000e+00
3.414352e+03,0.000000e+00
3.417245e+03,0.000000e+00
3.420138e+03,0.000000e+00
3.423030e+03,0.000000e+00
3.425923e+03,0.000000e+00
3.428816e+03,0.000000e+00
3.431708e+03,0.000000e+00
3.434601e+03,0.000000e+00
3.437494e+03,0.000000e+00
3.440386e+03,0.000000e+00
3.443279e+03,0.000000e+00
3.446172e+03,0.000000e+00
3.449065e+03,0.000000e+00
3.451957e+03,0.000000e+00
3.454850e+03,0.000000e+00
3.457743e+03,0.000000e+00
3.460635e+03,0.000000e+00
3.463528e+03,0.000000e+00
3.466421e+03,0.000000e+00
3.469313e+03,0.000000e+00
3.472206e+03,0.000000e+00
3.475099e+03,0.000000e+00
3.477992e+03,0.000000e+00
3.480884e+03,0.000000e+00
3.483777e+03,0.000000e+00
3.486670e+03,0.000000e+00
3.489563e+03,0.000000e+00
3.492455e+03,0.000000e+00
3.495348e+03,0.000000e+00
3.498240e+03,0.000000e+00
3.500169e+03,0.000000e+00