File: RAMAN_data/20012023_r3/blue fibre14.CSV
9.931763e+01,0.000000e+00
1.022103e+02,0.000000e+00
1.051030e+02,0.000000e+00
1.079957e+02,0.000000e+00
1.108884e+02,0.000000e+00
1.137811e+02,0.000000e+00
1.166738e+02,0.000000e+00
1.195665e+02,0.000000e+00
1.224592e+02,0.000000e+00
1.253519e+02,0.000000e+00
1.282446e+02,0.000000e+00
1.311373e+02,0.000000e+00
1.340300e+02,0.000000e+00
1.369227e+02,0.000000e+00
1.398154e+02,0.000000e+00
1.427081e+02,0.000000e+00
1.456008e+02,0.000000e+00
1.484935e+02,0.000000e+00
1.513862e+02,0.000000e+00
1.542789e+02,0.000000e+00
1.571716e+02,0.000000e+00
1.600643e+02,0.000000e+00
1.629570e+02,0.000000e+00
1.658497e+02,0.000000e+00
1.687424e+02,0.000000e+00
1.716351e+02,0.000000e+00
1.745278e+02,0.000000e+00
1.774205e+02,0.000000e+00
1.803132e+02,0.000000e+00
1.832059e+02,0.000000e+00
1.860986e+02,0.000000e+00
1.889913e+02,0.000000e+00
1.918840e+02,0.000000e+00
1.947767e+02,0.000000e+00
1.976694e+02,0.000000e+00
2.005621e+02,8.713416e+03
2.034548e+02,8.745027e+03
2.063475e+02,8.782349e+03
2.092402e+02,8.810551e+03
2.121329e+02,8.843868e+03
2.150256e+02,8.867940e+03
2.179183e+02,8.884590e+03
2.208110e+02,8.945673e+03
2.237037e+02,8.986499e+03
2.265964e+02,8.976641e+03
2.294892e+02,9.006044e+03
2.323819e+02,9.069750e+03
2.352746e+02,9.139057e+03
2.381673e+02,9.145005e+03
2.410600e+02,9.170857e+03
2.439527e+02,9.199064e+03
2.468454e+02,9.279432e+03
2.497381e+02,9.337760e+03
2.526308e+02,9.388191e+03
2.555235e+02,9.373095e+03
2.584161e+02,9.379541e+03
2.613088e+02,9.435516e+03
2.642015e+02,9.486308e+03
2.670942e+02,9.563091e+03
2.699869e+02,9.603906e+03
2.728796e+02,9.626003e+03
2.757723e+02,9.707843e+03
2.786650e+02,9.816823e+03
2.815577e+02,9.831138e+03
2.844504e+02,9.859296e+03
2.873431e+02,9.814650e+03
2.902358e+02,9.830331e+03
2.931285e+02,9.834024e+03
2.960212e+02,9.817897e+03
2.989139e+02,9.851426e+03
3.018066e+02,9.896228e+03
3.046993e+02,9.910683e+03
3.075920e+02,9.922345e+03
3.104847e+02,9.932876e+03
3.133774e+02,9.967940e+03
3.162701e+02,1.001006e+04
3.191628e+02,1.000095e+04
3.220555e+02,1.003430e+04
3.249482e+02,1.008633e+04
3.278409e+02,1.009974e+04
3.307336e+02,1.014129e+04
3.336263e+02,1.015064e+04
3.365190e+02,1.013863e+04
3.394117e+02,1.019378e+04
3.423044e+02,1.024956e+04
3.451971e+02,1.027241e+04
3.480898e+02,1.028530e+04
3.509825e+02,1.029534e+04
3.538752e+02,1.031967e+04
3.567680e+02,1.034586e+04
3.596607e+02,1.033576e+04
3.625534e+02,1.039048e+04
3.654461e+02,1.039707e+04
3.683388e+02,1.038522e+04
3.712315e+02,1.046327e+04
3.741242e+02,1.049089e+04
3.770169e+02,1.055348e+04
3.799096e+02,1.056075e+04
3.828023e+02,1.055234e+04
3.856950e+02,1.058651e+04
3.885877e+02,1.060831e+04
3.914804e+02,1.061767e+04
3.943731e+02,1.061499e+04
3.972658e+02,1.064649e+04
4.001585e+02,1.067805e+04
4.030512e+02,1.070372e+04
4.059439e+02,1.070274e+04
4.088366e+02,1.070069e+04
4.117293e+02,1.073302e+04
4.146220e+02,1.073596e+04
4.175147e+02,1.074440e+04
4.204074e+02,1.079821e+04
4.233001e+02,1.078121e+04
4.261928e+02,1.082397e+04
4.290855e+02,1.079253e+04
4.319782e+02,1.082872e+04
4.348709e+02,1.087190e+04
4.377636e+02,1.088488e+04
4.406563e+02,1.088288e+04
4.435490e+02,1.087348e+04
4.464417e+02,1.087930e+04
4.493344e+02,1.090390e+04
4.522271e+02,1.094619e+04
4.551198e+02,1.094496e+04
4.580125e+02,1.095202e+04
4.609052e+02,1.095244e+04
4.637979e+02,1.098473e+04
4.666906e+02,1.097537e+04
4.695833e+02,1.102339e+04
4.724760e+02,1.100742e+04
4.753687e+02,1.101786e+04
4.782614e+02,1.102578e+04
4.811541e+02,1.103772e+04
4.840468e+02,1.106373e+04
4.869395e+02,1.108175e+04
4.898322e+02,1.107471e+04
4.927249e+02,1.106760e+04
4.956176e+02,1.111921e+04
4.985103e+02,1.113938e+04
5.014030e+02,1.109421e+04
5.042957e+02,1.113319e+04
5.071884e+02,1.112693e+04
5.100811e+02,1.113002e+04
5.129738e+02,1.114878e+04
5.158665e+02,1.122552e+04
5.187592e+02,1.120701e+04
5.216519e+02,1.117430e+04
5.245446e+02,1.119368e+04
5.274373e+02,1.121157e+04
5.303300e+02,1.123180e+04
5.332227e+02,1.122762e+04
5.361154e+02,1.128125e+04
5.390081e+02,1.129877e+04
5.419008e+02,1.139913e+04
5.447935e+02,1.141544e+04
5.476862e+02,1.143199e+04
5.505789e+02,1.143966e+04
5.534716e+02,1.143422e+04
5.563643e+02,1.150402e+04
5.592570e+02,1.158267e+04
5.621497e+02,1.155232e+04
5.650424e+02,1.145321e+04
5.679351e+02,1.138067e+04
5.708278e+02,1.132066e+04
5.737205e+02,1.133430e+04
5.766132e+02,1.134626e+04
5.795059e+02,1.132399e+04
5.823986e+02,1.132131e+04
5.852913e+02,1.129130e+04
5.881840e+02,1.131154e+04
5.910767e+02,1.135254e+04
5.939694e+02,1.138108e+04
5.968621e+02,1.138781e+04
5.997548e+02,1.136646e+04
6.026475e+02,1.141932e+04
6.055402e+02,1.139671e+04
6.084329e+02,1.144897e+04
6.113256e+02,1.158300e+04
6.142183e+02,1.156373e+04
6.171110e+02,1.142416e+04
6.200037e+02,1.132212e+04
6.228964e+02,1.135744e+04
6.257891e+02,1.139137e+04
6.286818e+02,1.135580e+04
6.315745e+02,1.134766e+04
6.344672e+02,1.133029e+04
6.373599e+02,1.134889e+04
6.402526e+02,1.132077e+04
6.431453e+02,1.129724e+04
6.460380e+02,1.129761e+04
6.489307e+02,1.130147e+04
6.518234e+02,1.128589e+04
6.547161e+02,1.129608e+04
6.576088e+02,1.121843e+04
6.605015e+02,1.122755e+04
6.633942e+02,1.125420e+04
6.662869e+02,1.127633e+04
6.691796e+02,1.126866e+04
6.720723e+02,1.126289e+04
6.749650e+02,1.127133e+04
6.778577e+02,1.123604e+04
6.807504e+02,1.122845e+04
6.836431e+02,1.122732e+04
6.865358e+02,1.124729e+04
6.894285e+02,1.121249e+04
6.923212e+02,1.118775e+04
6.952139e+02,1.112884e+04
6.981066e+02,1.118395e+04
7.009993e+02,1.114800e+04
7.038920e+02,1.114470e+04
7.067847e+02,1.110638e+04
7.096774e+02,1.112633e+04
7.125701e+02,1.112314e+04
7.154628e+02,1.113488e+04
7.183555e+02,1.112620e+04
7.212482e+02,1.108385e+04
7.241409e+02,1.109004e+04
7.270336e+02,1.103144e+04
7.299263e+02,1.104271e+04
7.328190e+02,1.105101e+04
7.357117e+02,1.102137e+04
7.386044e+02,1.099041e+04
7.414971e+02,1.100061e+04
7.443898e+02,1.100634e+04
7.472825e+02,1.100260e+04
7.501752e+02,1.096083e+04
7.530679e+02,1.096472e+04
7.559606e+02,1.094834e+04
7.588533e+02,1.097305e+04
7.617460e+02,1.098534e+04
7.646387e+02,1.091165e+04
7.675314e+02,1.093396e+04
7.704241e+02,1.091866e+04
7.733168e+02,1.089103e+04
7.762095e+02,1.092682e+04
7.791022e+02,1.094745e+04
7.819949e+02,1.092721e+04
7.848876e+02,1.091571e+04
7.877803e+02,1.090146e+04
7.906730e+02,1.090433e+04
7.935657e+02,1.089764e+04
7.964584e+02,1.083883e+04
7.993511e+02,1.080024e+04
8.022438e+02,1.079044e+04
8.051365e+02,1.078092e+04
8.080292e+02,1.075820e+04
8.109219e+02,1.073334e+04
8.138146e+02,1.068491e+04
8.167073e+02,1.069883e+04
8.196000e+02,1.068211e+04
8.224927e+02,1.068941e+04
8.253854e+02,1.066687e+04
8.282781e+02,1.065389e+04
8.311708e+02,1.061733e+04
8.340635e+02,1.061006e+04
8.369562e+02,1.060718e+04
8.398489e+02,1.060284e+04
8.427416e+02,1.056299e+04
8.456343e+02,1.053635e+04
8.485270e+02,1.055753e+04
8.514197e+02,1.052884e+04
8.543124e+02,1.052866e+04
8.572051e+02,1.050182e+04
8.600978e+02,1.047784e+04
8.629905e+02,1.043202e+04
8.658832e+02,1.045883e+04
8.687759e+02,1.043696e+04
8.716686e+02,1.044788e+04
8.745613e+02,1.036209e+04
8.774540e+02,1.039886e+04
8.803467e+02,1.037220e+04
8.832394e+02,1.038500e+04
8.861321e+02,1.036725e+04
8.890248e+02,1.034194e+04
8.919175e+02,1.035546e+04
8.948102e+02,1.032107e+04
8.977029e+02,1.025513e+04
9.005956e+02,1.030075e+04
9.034883e+02,1.026764e+04
9.063810e+02,1.021003e+04
9.092737e+02,1.020074e+04
9.121664e+02,1.018991e+04
9.150591e+02,1.019439e+04
9.179518e+02,1.017291e+04
9.208445e+02,1.012392e+04
9.237372e+02,1.010180e+04
9.266299e+02,1.008275e+04
9.295226e+02,1.008777e+04
9.324153e+02,1.007127e+04
9.353080e+02,1.004649e+04
9.382007e+02,1.002706e+04
9.410934e+02,1.002202e+04
9.439861e+02,9.994417e+03
9.468788e+02,9.977731e+03
9.497715e+02,9.959309e+03
9.526642e+02,9.938331e+03
9.555569e+02,9.924906e+03
9.584496e+02,9.894304e+03
9.613423e+02,9.884528e+03
9.642350e+02,9.904462e+03
9.671277e+02,9.822359e+03
9.700204e+02,9.822988e+03
9.729131e+02,9.761701e+03
9.758058e+02,9.780879e+03
9.786985e+02,9.784467e+03
9.815912e+02,9.759325e+03
9.844839e+02,9.728093e+03
9.873766e+02,9.696886e+03
9.902693e+02,9.655605e+03
9.931620e+02,9.695728e+03
9.960547e+02,9.673420e+03
9.989474e+02,9.655313e+03
1.001840e+03,9.613400e+03
1.004733e+03,9.591960e+03
1.007626e+03,9.595854e+03
1.010518e+03,9.574816e+03
1.013411e+03,9.559056e+03
1.016304e+03,9.527969e+03
1.019196e+03,9.501254e+03
1.022089e+03,9.511446e+03
1.024982e+03,9.477653e+03
1.027875e+03,9.466188e+03
1.030767e+03,9.426004e+03
1.033660e+03,9.446548e+03
1.036552e+03,9.399124e+03
1.039445e+03,9.384550e+03
1.042338e+03,9.378673e+03
1.045231e+03,9.384741e+03
1.048123e+03,9.344178e+03
1.051016e+03,9.312549e+03
1.053909e+03,9.332354e+03
1.056802e+03,9.302196e+03
1.059694e+03,9.315606e+03
1.062587e+03,9.306324e+03
1.065479e+03,9.267556e+03
1.068372e+03,9.292279e+03
1.071265e+03,9.307437e+03
1.074158e+03,9.264700e+03
1.077050e+03,9.247733e+03
1.079943e+03,9.248241e+03
1.082836e+03,9.255111e+03
1.085729e+03,9.240575e+03
1.088621e+03,9.213869e+03
1.091514e+03,9.170306e+03
1.094406e+03,9.152955e+03
1.097299e+03,9.088554e+03
1.100192e+03,9.076596e+03
1.103085e+03,9.087796e+03
1.105977e+03,9.052212e+03
1.108870e+03,9.001816e+03
1.111763e+03,9.010011e+03
1.114656e+03,9.002962e+03
1.117548e+03,8.989894e+03
1.120441e+03,8.993078e+03
1.123334e+03,8.951027e+03
1.126226e+03,8.947321e+03
1.129119e+03,8.918209e+03
1.132012e+03,8.897578e+03
1.134904e+03,8.853675e+03
1.137797e+03,8.852378e+03
1.140690e+03,8.847314e+03
1.143583e+03,8.826891e+03
1.146475e+03,8.828671e+03
1.149368e+03,8.799431e+03
1.152261e+03,8.783635e+03
1.155153e+03,8.712152e+03
1.158046e+03,8.725237e+03
1.160939e+03,8.724139e+03
1.163831e+03,8.713406e+03
1.166724e+03,8.703392e+03
1.169617e+03,8.646717e+03
1.172510e+03,8.637324e+03
1.175402e+03,8.603315e+03
1.178295e+03,8.607879e+03
1.181188e+03,8.645846e+03
1.184080e+03,8.592902e+03
1.186973e+03,8.587714e+03
1.189866e+03,8.595505e+03
1.192758e+03,8.586807e+03
1.195651e+03,8.538889e+03
1.198544e+03,8.548665e+03
1.201437e+03,8.513682e+03
1.204329e+03,8.469604e+03
1.207222e+03,8.450159e+03
1.210115e+03,8.450791e+03
1.213007e+03,8.428337e+03
1.215900e+03,8.406903e+03
1.218793e+03,8.387913e+03
1.221685e+03,8.412438e+03
1.224578e+03,8.411552e+03
1.227471e+03,8.428019e+03
1.230364e+03,8.380509e+03
1.233256e+03,8.332416e+03
1.236149e+03,8.343770e+03
1.239042e+03,8.313997e+03
1.241934e+03,8.317616e+03
1.244827e+03,8.318013e+03
1.247720e+03,8.248722e+03
1.250612e+03,8.225919e+03
1.253505e+03,8.223810e+03
1.256398e+03,8.223044e+03
1.259291e+03,8.174817e+03
1.262183e+03,8.162939e+03
1.265076e+03,8.145396e+03
1.267969e+03,8.114060e+03
1.270861e+03,8.128125e+03
1.273754e+03,8.112076e+03
1.276647e+03,8.104846e+03
1.279539e+03,8.063485e+03
1.282432e+03,8.055934e+03
1.285325e+03,8.053526e+03
1.288218e+03,8.045658e+03
1.291110e+03,8.020745e+03
1.294003e+03,8.002349e+03
1.296896e+03,7.971986e+03
1.299788e+03,7.955364e+03
1.302681e+03,7.957960e+03
1.305574e+03,7.994819e+03
1.308466e+03,7.944359e+03
1.311359e+03,7.939125e+03
1.314252e+03,7.919373e+03
1.317145e+03,7.911573e+03
1.320037e+03,7.906109e+03
1.322930e+03,7.854528e+03
1.325823e+03,7.833826e+03
1.328715e+03,7.849891e+03
1.331608e+03,7.853792e+03
1.334501e+03,7.864856e+03
1.337393e+03,7.841336e+03
1.340286e+03,7.791128e+03
1.343179e+03,7.789002e+03
1.346072e+03,7.768788e+03
1.348964e+03,7.763370e+03
1.351857e+03,7.764405e+03
1.354750e+03,7.747282e+03
1.357642e+03,7.737563e+03
1.360535e+03,7.732802e+03
1.363428e+03,7.740471e+03
1.366320e+03,7.722728e+03
1.369213e+03,7.689356e+03
1.372106e+03,7.673631e+03
1.374999e+03,7.671045e+03
1.377891e+03,7.634982e+03
1.380784e+03,7.624224e+03
1.383677e+03,7.598196e+03
1.386569e+03,7.601937e+03
1.389462e+03,7.604667e+03
1.392355e+03,7.554475e+03
1.395247e+03,7.565333e+03
1.398140e+03,7.561953e+03
1.401033e+03,7.543692e+03
1.403926e+03,7.519758e+03
1.406818e+03,7.485436e+03
1.409711e+03,7.480865e+03
1.412604e+03,7.455423e+03
1.415496e+03,7.452755e+03
1.418389e+03,7.423768e+03
1.421282e+03,7.410847e+03
1.424174e+03,7.390988e+03
1.427067e+03,7.429763e+03
1.429960e+03,7.406208e+03
1.432853e+03,7.369544e+03
1.435745e+03,7.355773e+03
1.438638e+03,7.348952e+03
1.441531e+03,7.335267e+03
1.444423e+03,7.348141e+03
1.447316e+03,7.356859e+03
1.450209e+03,7.346297e+03
1.453101e+03,7.354568e+03
1.455994e+03,7.366110e+03
1.458887e+03,7.352918e+03
1.461780e+03,7.343350e+03
1.464672e+03,7.312068e+03
1.467565e+03,7.267219e+03
1.470458e+03,7.247797e+03
1.473350e+03,7.214460e+03
1.476243e+03,7.222837e+03
1.479136e+03,7.213284e+03
1.482028e+03,7.216405e+03
1.484921e+03,7.209627e+03
1.487814e+03,7.190699e+03
1.490707e+03,7.174587e+03
1.493599e+03,7.158433e+03
1.496492e+03,7.157588e+03
1.499385e+03,7.128720e+03
1.502277e+03,7.126244e+03
1.505170e+03,7.143372e+03
1.508063e+03,7.143812e+03
1.510955e+03,7.144182e+03
1.513848e+03,7.115931e+03
1.516741e+03,7.098722e+03
1.519634e+03,7.103007e+03
1.522526e+03,7.067018e+03
1.525419e+03,7.055944e+03
1.528312e+03,6.989422e+03
1.531204e+03,7.009315e+03
1.534097e+03,6.973003e+03
1.536990e+03,6.961614e+03
1.539882e+03,6.952788e+03
1.542775e+03,6.965710e+03
1.545668e+03,6.908864e+03
1.548561e+03,6.925487e+03
1.551453e+03,6.936171e+03
1.554346e+03,6.950755e+03
1.557239e+03,6.925257e+03
1.560131e+03,6.923461e+03
1.563024e+03,6.950109e+03
1.565917e+03,7.005115e+03
1.568809e+03,7.077541e+03
1.571702e+03,7.150936e+03
1.574595e+03,7.152274e+03
1.577488e+03,7.048406e+03
1.580380e+03,7.025786e+03
1.583273e+03,7.012591e+03
1.586166e+03,6.981164e+03
1.589058e+03,6.894483e+03
1.591951e+03,6.818313e+03
1.594844e+03,6.795580e+03
1.597736e+03,6.794125e+03
1.600629e+03,6.795599e+03
1.603522e+03,6.738742e+03
1.606415e+03,6.724518e+03
1.609307e+03,6.735899e+03
1.612200e+03,6.716886e+03
1.615093e+03,6.689828e+03
1.617985e+03,6.699651e+03
1.620878e+03,6.661206e+03
1.623771e+03,6.649443e+03
1.626663e+03,6.660149e+03
1.629556e+03,6.643576e+03
1.632449e+03,6.645642e+03
1.635342e+03,6.642775e+03
1.638234e+03,6.595329e+03
1.641127e+03,6.586961e+03
1.644020e+03,6.537292e+03
1.646912e+03,6.532612e+03
1.649805e+03,6.507660e+03
1.652698e+03,6.487757e+03
1.655590e+03,6.493900e+03
1.658483e+03,6.462731e+03
1.661376e+03,6.463192e+03
1.664269e+03,6.450211e+03
1.667161e+03,6.432176e+03
1.670054e+03,6.418865e+03
1.672947e+03,6.427945e+03
1.675839e+03,6.416668e+03
1.678732e+03,6.422291e+03
1.681625e+03,6.387688e+03
1.684517e+03,6.377034e+03
1.687410e+03,6.334942e+03
1.690303e+03,6.362942e+03
1.693196e+03,6.348259e+03
1.696088e+03,6.304728e+03
1.698981e+03,6.289189e+03
1.701874e+03,6.307622e+03
1.704766e+03,6.283654e+03
1.707659e+03,6.260521e+03
1.710552e+03,6.249857e+03
1.713444e+03,6.195755e+03
1.716337e+03,6.196495e+03
1.719230e+03,6.203902e+03
1.722123e+03,6.166165e+03
1.725015e+03,6.170771e+03
1.727908e+03,6.175120e+03
1.730801e+03,6.154054e+03
1.733693e+03,6.163581e+03
1.736586e+03,6.106281e+03
1.739479e+03,6.126594e+03
1.742371e+03,6.110422e+03
1.745264e+03,6.091552e+03
1.748157e+03,6.082567e+03
1.751050e+03,6.098100e+03
1.753942e+03,6.056011e+03
1.756835e+03,6.044534e+03
1.759728e+03,5.992977e+03
1.762620e+03,5.989291e+03
1.765513e+03,5.973502e+03
1.768406e+03,6.005969e+03
1.771298e+03,5.985076e+03
1.774191e+03,5.949162e+03
1.777084e+03,5.945702e+03
1.779977e+03,5.926108e+03
1.782869e+03,5.891384e+03
1.785762e+03,5.881649e+03
1.788655e+03,5.885579e+03
1.791547e+03,5.864508e+03
1.794440e+03,5.851625e+03
1.797333e+03,5.854660e+03
1.800225e+03,5.822386e+03
1.803118e+03,5.797972e+03
1.806011e+03,5.836330e+03
1.808904e+03,5.814155e+03
1.811796e+03,5.807157e+03
1.814689e+03,5.796014e+03
1.817582e+03,5.749682e+03
1.820474e+03,5.758648e+03
1.823367e+03,5.722289e+03
1.826260e+03,5.686470e+03
1.829152e+03,5.735507e+03
1.832045e+03,5.679345e+03
1.834938e+03,5.665727e+03
1.837831e+03,5.660054e+03
1.840723e+03,5.675331e+03
1.843616e+03,5.655688e+03
1.846509e+03,5.646292e+03
1.849401e+03,5.634472e+03
1.852294e+03,5.590923e+03
1.855187e+03,5.585039e+03
1.858079e+03,5.594583e+03
1.860972e+03,5.555839e+03
1.863865e+03,5.570636e+03
1.866758e+03,5.553048e+03
1.869650e+03,5.551528e+03
1.872543e+03,5.547500e+03
1.875436e+03,5.517335e+03
1.878328e+03,5.498343e+03
1.881221e+03,5.485474e+03
1.884114e+03,5.485403e+03
1.887006e+03,5.460583e+03
1.889899e+03,5.470830e+03
1.892792e+03,5.452311e+03
1.895685e+03,5.439011e+03
1.898577e+03,5.400479e+03
1.901470e+03,5.421614e+03
1.904363e+03,5.384429e+03
1.907255e+03,5.388009e+03
1.910148e+03,5.336385e+03
1.913041e+03,5.359239e+03
1.915933e+03,5.319300e+03
1.918826e+03,5.300090e+03
1.921719e+03,5.319600e+03
1.924612e+03,5.282363e+03
1.927504e+03,5.291380e+03
1.930397e+03,5.259386e+03
1.933290e+03,5.255437e+03
1.936182e+03,5.220544e+03
1.939075e+03,5.234770e+03
1.941968e+03,5.221938e+03
1.944860e+03,5.183492e+03
1.947753e+03,5.168102e+03
1.950646e+03,5.149886e+03
1.953539e+03,5.157729e+03
1.956431e+03,5.161417e+03
1.959324e+03,5.117758e+03
1.962217e+03,5.126138e+03
1.965109e+03,5.115252e+03
1.968002e+03,5.098708e+03
1.970895e+03,5.103421e+03
1.973787e+03,5.066116e+03
1.976680e+03,5.079931e+03
1.979573e+03,5.064814e+03
1.982466e+03,5.021428e+03
1.985358e+03,5.055000e+03
1.988251e+03,4.992046e+03
1.991144e+03,5.030560e+03
1.994036e+03,4.960995e+03
1.996929e+03,4.969206e+03
1.999822e+03,4.958466e+03
2.002714e+03,4.947573e+03
2.005607e+03,4.924522e+03
2.008500e+03,4.932159e+03
2.011393e+03,4.880663e+03
2.014285e+03,4.893177e+03
2.017178e+03,4.867721e+03
2.020071e+03,4.859802e+03
2.022963e+03,4.839484e+03
2.025856e+03,4.797624e+03
2.028749e+03,4.793750e+03
2.031641e+03,4.843093e+03
2.034534e+03,4.797526e+03
2.037427e+03,4.794288e+03
2.040320e+03,4.752670e+03
2.043212e+03,4.731611e+03
2.046105e+03,4.727559e+03
2.048998e+03,4.738193e+03
2.051890e+03,4.703413e+03
2.054783e+03,4.672749e+03
2.057676e+03,4.672567e+03
2.060568e+03,4.661793e+03
2.063461e+03,4.670479e+03
2.066354e+03,4.691751e+03
2.069247e+03,4.626104e+03
2.072139e+03,4.629988e+03
2.075032e+03,4.611723e+03
2.077925e+03,4.594244e+03
2.080817e+03,4.565382e+03
2.083710e+03,4.554354e+03
2.086603e+03,4.539136e+03
2.089496e+03,4.548731e+03
2.092388e+03,4.532349e+03
2.095281e+03,4.508515e+03
2.098174e+03,4.512796e+03
2.101066e+03,4.492792e+03
2.103959e+03,4.450862e+03
2.106852e+03,4.459213e+03
2.109744e+03,4.446859e+03
2.112637e+03,4.463235e+03
2.115530e+03,4.394561e+03
2.118422e+03,4.363424e+03
2.121315e+03,4.403481e+03
2.124208e+03,4.401822e+03
2.127101e+03,4.359291e+03
2.129993e+03,4.354027e+03
2.132886e+03,4.351206e+03
2.135779e+03,4.323133e+03
2.138671e+03,4.327589e+03
2.141564e+03,4.275520e+03
2.144457e+03,4.293875e+03
2.147350e+03,4.293685e+03
2.150242e+03,4.251659e+03
2.153135e+03,4.241607e+03
2.156028e+03,4.251728e+03
2.158920e+03,4.223344e+03
2.161813e+03,4.208731e+03
2.164706e+03,4.225433e+03
2.167598e+03,4.190082e+03
2.170491e+03,4.157026e+03
2.173384e+03,4.182317e+03
2.176277e+03,4.153789e+03
2.179169e+03,4.164179e+03
2.182062e+03,4.127192e+03
2.184955e+03,4.135233e+03
2.187847e+03,4.115565e+03
2.190740e+03,4.084145e+03
2.193633e+03,4.073403e+03
2.196525e+03,4.076122e+03
2.199418e+03,4.072212e+03
2.202311e+03,4.051481e+03
2.205204e+03,4.041000e+03
2.208096e+03,4.011483e+03
2.210989e+03,3.997150e+03
2.213882e+03,3.986319e+03
2.216774e+03,3.983114e+03
2.219667e+03,3.996812e+03
2.222560e+03,3.996419e+03
2.225452e+03,3.952371e+03
2.228345e+03,3.934838e+03
2.231238e+03,3.947313e+03
2.234131e+03,3.970519e+03
2.237023e+03,3.931952e+03
2.239916e+03,3.881863e+03
2.242809e+03,3.903180e+03
2.245701e+03,3.852727e+03
2.248594e+03,3.858297e+03
2.251487e+03,3.885118e+03
2.254379e+03,3.834420e+03
2.257272e+03,3.819195e+03
2.260165e+03,3.800270e+03
2.263058e+03,3.806342e+03
2.265950e+03,3.791370e+03
2.268843e+03,3.775851e+03
2.271736e+03,3.748721e+03
2.274628e+03,3.778379e+03
2.277521e+03,3.759896e+03
2.280414e+03,3.710270e+03
2.283306e+03,3.723487e+03
2.286199e+03,3.695848e+03
2.289092e+03,3.679199e+03
2.291985e+03,3.665563e+03
2.294877e+03,3.660026e+03
2.297770e+03,3.675024e+03
2.300663e+03,3.653683e+03
2.303555e+03,3.616103e+03
2.306448e+03,3.634430e+03
2.309341e+03,3.647623e+03
2.312233e+03,3.611284e+03
2.315126e+03,3.617593e+03
2.318019e+03,3.568273e+03
2.320912e+03,3.573407e+03
2.323804e+03,3.574144e+03
2.326697e+03,3.602226e+03
2.329590e+03,3.572281e+03
2.332482e+03,3.570406e+03
2.335375e+03,3.532551e+03
2.338268e+03,3.505454e+03
2.341160e+03,3.499957e+03
2.344053e+03,3.504683e+03
2.346946e+03,3.498970e+03
2.349839e+03,3.480139e+03
2.352731e+03,3.450121e+03
2.355624e+03,3.461168e+03
2.358517e+03,3.472509e+03
2.361409e+03,3.456595e+03
2.364302e+03,3.426508e+03
2.367195e+03,3.409498e+03
2.370087e+03,3.402833e+03
2.372980e+03,3.420107e+03
2.375873e+03,3.398886e+03
2.378766e+03,3.377783e+03
2.381658e+03,3.356992e+03
2.384551e+03,3.368563e+03
2.387444e+03,3.346274e+03
2.390336e+03,3.369332e+03
2.393229e+03,3.356805e+03
2.396122e+03,3.352570e+03
2.399014e+03,3.309840e+03
2.401907e+03,3.303625e+03
2.404800e+03,3.305320e+03
2.407693e+03,3.295173e+03
2.410585e+03,3.289006e+03
2.413478e+03,3.268379e+03
2.416371e+03,3.224672e+03
2.419263e+03,3.258878e+03
2.422156e+03,3.206978e+03
2.425049e+03,3.264414e+03
2.427941e+03,3.235374e+03
2.430834e+03,3.194434e+03
2.433727e+03,3.203829e+03
2.436620e+03,3.187094e+03
2.439512e+03,3.188180e+03
2.442405e+03,3.207829e+03
2.445298e+03,3.166617e+03
2.448190e+03,3.118042e+03
2.451083e+03,3.175108e+03
2.453976e+03,3.148479e+03
2.456868e+03,3.150027e+03
2.459761e+03,3.127467e+03
2.462654e+03,3.100711e+03
2.465547e+03,3.099260e+03
2.468439e+03,3.105635e+03
2.471332e+03,3.082595e+03
2.474225e+03,3.064379e+03
2.477117e+03,3.068544e+03
2.480010e+03,3.050222e+03
2.482903e+03,3.064787e+03
2.485795e+03,3.026153e+03
2.488688e+03,3.020028e+03
2.491581e+03,3.006261e+03
2.494474e+03,2.998798e+03
2.497366e+03,3.004203e+03
2.500259e+03,2.993672e+03
2.503152e+03,2.977665e+03
2.506044e+03,2.979390e+03
2.508937e+03,2.987821e+03
2.511830e+03,2.962221e+03
2.514722e+03,2.966625e+03
2.517615e+03,2.912865e+03
2.520508e+03,2.955126e+03
2.523401e+03,2.921603e+03
2.526293e+03,2.929016e+03
2.529186e+03,2.939594e+03
2.532079e+03,2.912715e+03
2.534971e+03,2.909276e+03
2.537864e+03,2.862664e+03
2.540757e+03,2.847185e+03
2.543649e+03,2.894212e+03
2.546542e+03,2.901590e+03
2.549435e+03,2.866603e+03
2.552328e+03,2.855844e+03
2.555220e+03,2.860995e+03
2.558113e+03,2.830133e+03
2.561006e+03,2.824440e+03
2.563898e+03,2.820266e+03
2.566791e+03,2.834776e+03
2.569684e+03,2.825333e+03
2.572576e+03,2.780840e+03
2.575469e+03,2.799426e+03
2.578362e+03,2.776074e+03
2.581255e+03,2.813591e+03
2.584147e+03,2.764797e+03
2.587040e+03,2.793043e+03
2.589933e+03,2.764229e+03
2.592825e+03,2.765469e+03
2.595718e+03,2.759393e+03
2.598611e+03,2.738279e+03
2.601503e+03,2.748978e+03
2.604396e+03,2.717509e+03
2.607289e+03,2.723473e+03
2.610182e+03,2.734859e+03
2.613074e+03,2.711381e+03
2.615967e+03,2.691849e+03
2.618860e+03,2.668207e+03
2.621752e+03,2.697388e+03
2.624645e+03,2.671669e+03
2.627538e+03,2.674772e+03
2.630430e+03,2.629856e+03
2.633323e+03,2.671293e+03
2.636216e+03,2.670530e+03
2.639109e+03,2.660297e+03
2.642001e+03,2.660925e+03
2.644894e+03,2.628416e+03
2.647787e+03,2.634042e+03
2.650679e+03,2.604563e+03
2.653572e+03,2.597337e+03
2.656465e+03,2.591996e+03
2.659357e+03,2.589554e+03
2.662250e+03,2.605107e+03
2.665143e+03,2.590240e+03
2.668036e+03,2.574034e+03
2.670928e+03,2.588405e+03
2.673821e+03,2.562520e+03
2.676714e+03,2.553632e+03
2.679606e+03,2.545183e+03
2.682499e+03,2.555917e+03
2.685392e+03,2.527558e+03
2.688284e+03,2.549909e+03
2.691177e+03,2.505904e+03
2.694070e+03,2.499164e+03
2.696963e+03,2.528548e+03
2.699855e+03,2.501573e+03
2.702748e+03,2.501807e+03
2.705641e+03,2.469612e+03
2.708533e+03,2.492763e+03
2.711426e+03,2.466841e+03
2.714319e+03,2.458659e+03
2.717211e+03,2.471230e+03
2.720104e+03,2.457247e+03
2.722997e+03,2.469157e+03
2.725890e+03,2.451505e+03
2.728782e+03,2.435850e+03
2.731675e+03,2.434841e+03
2.734568e+03,2.416692e+03
2.737460e+03,2.450892e+03
2.740353e+03,2.412636e+03
2.743246e+03,2.383198e+03
2.746138e+03,2.425971e+03
2.749031e+03,2.431369e+03
2.751924e+03,2.410647e+03
2.754817e+03,2.379364e+03
2.757709e+03,2.425491e+03
2.760602e+03,2.373696e+03
2.763495e+03,2.387235e+03
2.766387e+03,2.376160e+03
2.769280e+03,2.322247e+03
2.772173e+03,2.367701e+03
2.775065e+03,2.363724e+03
2.777958e+03,2.366969e+03
2.780851e+03,2.324484e+03
2.783744e+03,2.327362e+03
2.786636e+03,2.327920e+03
2.789529e+03,2.330938e+03
2.792422e+03,2.312990e+03
2.795314e+03,2.307304e+03
2.798207e+03,2.314652e+03
2.801100e+03,2.295969e+03
2.803992e+03,2.298149e+03
2.806885e+03,2.296729e+03
2.809778e+03,2.308914e+03
2.812671e+03,2.268402e+03
2.815563e+03,2.255310e+03
2.818456e+03,2.260829e+03
2.821349e+03,2.287903e+03
2.824241e+03,2.247433e+03
2.827134e+03,2.261595e+03
2.830027e+03,2.278400e+03
2.832919e+03,2.261583e+03
2.835812e+03,2.239163e+03
2.838705e+03,2.251316e+03
2.841598e+03,2.236825e+03
2.844490e+03,2.246313e+03
2.847383e+03,2.216539e+03
2.850276e+03,2.223195e+03
2.853168e+03,2.194421e+03
2.856061e+03,2.207797e+03
2.858954e+03,2.209079e+03
2.861846e+03,2.221641e+03
2.864739e+03,2.198290e+03
2.867632e+03,2.214762e+03
2.870525e+03,2.197647e+03
2.873417e+03,2.147142e+03
2.876310e+03,2.215184e+03
2.879203e+03,2.182485e+03
2.882095e+03,2.204507e+03
2.884988e+03,2.175168e+03
2.887881e+03,2.178488e+03
2.890773e+03,2.150759e+03
2.893666e+03,2.187381e+03
2.896559e+03,2.191657e+03
2.899452e+03,2.143098e+03
2.902344e+03,2.162433e+03
2.905237e+03,2.155565e+03
2.908130e+03,2.162419e+03
2.911022e+03,2.157036e+03
2.913915e+03,2.120126e+03
2.916808e+03,2.121458e+03
2.919700e+03,2.129001e+03
2.922593e+03,2.110486e+03
2.925486e+03,2.101785e+03
2.928379e+03,2.095474e+03
2.931271e+03,2.108508e+03
2.934164e+03,2.071021e+03
2.937057e+03,2.076399e+03
2.939949e+03,2.088464e+03
2.942842e+03,2.062146e+03
2.945735e+03,2.037817e+03
2.948627e+03,2.039053e+03
2.951520e+03,2.070666e+03
2.954413e+03,2.044561e+03
2.957306e+03,2.107129e+03
2.960198e+03,2.072354e+03
2.963091e+03,2.070645e+03
2.965984e+03,2.057948e+03
2.968876e+03,2.032062e+03
2.971769e+03,2.057980e+03
2.974662e+03,1.978865e+03
2.977554e+03,2.044870e+03
2.980447e+03,2.011862e+03
2.983340e+03,2.019155e+03
2.986233e+03,1.999533e+03
2.989125e+03,1.987014e+03
2.992018e+03,2.007664e+03
2.994911e+03,1.977568e+03
2.997803e+03,1.966381e+03
3.000696e+03,2.004868e+03
3.003589e+03,1.964130e+03
3.006481e+03,1.948611e+03
3.009374e+03,2.005855e+03
3.012267e+03,1.960015e+03
3.015160e+03,1.930042e+03
3.018052e+03,1.986125e+03
3.020945e+03,1.969383e+03
3.023838e+03,1.941270e+03
3.026730e+03,1.900579e+03
3.029623e+03,1.960850e+03
3.032516e+03,1.920388e+03
3.035408e+03,1.885416e+03
3.038301e+03,1.930594e+03
3.041194e+03,1.919612e+03
3.044087e+03,1.953402e+03
3.046979e+03,1.905569e+03
3.049872e+03,1.905845e+03
3.052765e+03,1.927867e+03
3.055657e+03,1.935464e+03
3.058550e+03,1.895289e+03
3.061443e+03,1.911928e+03
3.064335e+03,1.946887e+03
3.067228e+03,1.892840e+03
3.070121e+03,1.907163e+03
3.073014e+03,1.870572e+03
3.075906e+03,1.911277e+03
3.078799e+03,1.893730e+03
3.081692e+03,1.892213e+03
3.084584e+03,1.901771e+03
3.087477e+03,1.892125e+03
3.090370e+03,1.918083e+03
3.093262e+03,1.872262e+03
3.096155e+03,1.904353e+03
3.099048e+03,1.878193e+03
3.101941e+03,1.861255e+03
3.104833e+03,1.853688e+03
3.107726e+03,1.903430e+03
3.110619e+03,1.866218e+03
3.113511e+03,1.851506e+03
3.116404e+03,1.896133e+03
3.119297e+03,1.855005e+03
3.122189e+03,1.948593e+03
3.125082e+03,1.851911e+03
3.127975e+03,1.869428e+03
3.130868e+03,1.926891e+03
3.133760e+03,1.858325e+03
3.136653e+03,1.871878e+03
3.139546e+03,1.840374e+03
3.142438e+03,1.867779e+03
3.145331e+03,1.798473e+03
3.148224e+03,1.859591e+03
3.151116e+03,1.900715e+03
3.154009e+03,1.907534e+03
3.156902e+03,1.908214e+03
3.159795e+03,1.845111e+03
3.162687e+03,1.883565e+03
3.165580e+03,1.826256e+03
3.168473e+03,1.822214e+03
3.171365e+03,1.842963e+03
3.174258e+03,1.861908e+03
3.177151e+03,1.853004e+03
3.180043e+03,1.877619e+03
3.182936e+03,1.885819e+03
3.185829e+03,1.914717e+03
3.188722e+03,1.847925e+03
3.191614e+03,1.839932e+03
3.194507e+03,1.843071e+03
3.197400e+03,1.863817e+03
3.200292e+03,1.868324e+03
3.203185e+03,0.000000e+00
3.206078e+03,0.000000e+00
3.208970e+03,0.000000e+00
3.211863e+03,0.000000e+00
3.214756e+03,0.000000e+00
3.217649e+03,0.000000e+00
3.220541e+03,0.000000e+00
3.223434e+03,0.000000e+00
3.226327e+03,0.000000e+00
3.229219e+03,0.000000e+00
3.232112e+03,0.000000e+00
3.235005e+03,0.000000e+00
3.237897e+03,0.000000e+00
3.240790e+03,0.000000e+00
3.243683e+03,0.000000e+00
3.246576e+03,0.000000e+00
3.249468e+03,0.000000e+00
3.252361e+03,0.000000e+00
3.255254e+03,0.000000e+00
3.258146e+03,0.000000e+00
3.261039e+03,0.000000e+00
3.263932e+03,0.000000e+00
3.266824e+03,0.000000e+00
3.269717e+03,0.000000e+00
3.272610e+03,0.000000e+00
3.275503e+03,0.000000e+00
3.278395e+03,0.000000e+00
3.281288e+03,0.000000e+00
3.284181e+03,0.000000e+00
3.287073e+03,0.000000e+00
3.289966e+03,0.000000e+00
3.292859e+03,0.000000e+00
3.295751e+03,0.000000e+00
3.298644e+03,0.000000e+00
3.301537e+03,0.000000e+00
3.304430e+03,0.000000e+00
3.307322e+03,0.000000e+00
3.310215e+03,0.000000e+00
3.313108e+03,0.000000e+00
3.316000e+03,0.000000e+00
3.318893e+03,0.000000e+00
3.321786e+03,0.000000e+00
3.324678e+03,0.000000e+00
3.327571e+03,0.000000e+00
3.330464e+03,0.000000e+00
3.333357e+03,0.000000e+00
3.336249e+03,0.000000e+00
3.339142e+03,0.000000e+00
3.342035e+03,0.000000e+00
3.344927e+03,0.000000e+00
3.347820e+03,0.000000e+00
3.350713e+03,0.000000e+00
3.353605e+03,0.000000e+00
3.356498e+03,0.000000e+00
3.359391e+03,0.000000e+00
3.362284e+03,0.000000e+00
3.365176e+03,0.000000e+00
3.368069e+03,0.000000e+00
3.370962e+03,0.000000e+00
3.373854e+03,0.000000e+00
3.376747e+03,0.000000e+00
3.379640e+03,0.000000e+00
3.382532e+03,0.000000e+00
3.385425e+03,0.000000e+00
3.388318e+03,0.000000e+00
3.391211e+03,0.000000e+00
3.394103e+03,0.000000e+00
3.396996e+03,0.000000e+00
3.399889e+03,0.000000e+00
3.402781e+03,0.000000e+00
3.405674e+03,0.000000e+00
3.408567e+03,0.000000e+00
3.411459e+03,0.000000e+00
3.414352e+03,0.000000e+00
3.417245e+03,0.000000e+00
3.420138e+03,0.000000e+00
3.423030e+03,0.000000e+00
3.425923e+03,0.000000e+00
3.428816e+03,0.000000e+00
3.431708e+03,0.000000e+00
3.434601e+03,0.000000e+00
3.437494e+03,0.000000e+00
3.440386e+03,0.000000e+00
3.443279e+03,0.000000e+00
3.446172e+03,0.000000e+00
3.449065e+03,0.000000e+00
3.451957e+03,0.000000e+00
3.454850e+03,0.000000e+00
3.457743e+03,0.000000e+00
3.460635e+03,0.000000e+00
3.463528e+03,0.000000e+00
3.466421e+03,0.000000e+00
3.469313e+03,0.000000e+00
3.472206e+03,0.000000e+00
3.475099e+03,0.000000e+00
3.477992e+03,0.000000e+00
3.480884e+03,0.000000e+00
3.483777e+03,0.000000e+00
3.486670e+03,0.000000e+00
3.489563e+03,0.000000e+00
3.492455e+03,0.000000e+00
3.495348e+03,0.000000e+00
3.498240e+03,0.000000e+00
3.500169e+03,0.000000e+00