File: RAMAN_data/20012023_r3/blue fibre12.CSV
9.931763e+01,0.000000e+00
1.022103e+02,0.000000e+00
1.051030e+02,0.000000e+00
1.079957e+02,0.000000e+00
1.108884e+02,0.000000e+00
1.137811e+02,0.000000e+00
1.166738e+02,0.000000e+00
1.195665e+02,0.000000e+00
1.224592e+02,0.000000e+00
1.253519e+02,0.000000e+00
1.282446e+02,0.000000e+00
1.311373e+02,0.000000e+00
1.340300e+02,0.000000e+00
1.369227e+02,0.000000e+00
1.398154e+02,0.000000e+00
1.427081e+02,0.000000e+00
1.456008e+02,0.000000e+00
1.484935e+02,0.000000e+00
1.513862e+02,0.000000e+00
1.542789e+02,0.000000e+00
1.571716e+02,0.000000e+00
1.600643e+02,0.000000e+00
1.629570e+02,0.000000e+00
1.658497e+02,0.000000e+00
1.687424e+02,0.000000e+00
1.716351e+02,0.000000e+00
1.745278e+02,0.000000e+00
1.774205e+02,0.000000e+00
1.803132e+02,0.000000e+00
1.832059e+02,0.000000e+00
1.860986e+02,0.000000e+00
1.889913e+02,0.000000e+00
1.918840e+02,0.000000e+00
1.947767e+02,0.000000e+00
1.976694e+02,0.000000e+00
2.005621e+02,2.875799e+03
2.034548e+02,2.881408e+03
2.063475e+02,2.894489e+03
2.092402e+02,2.894201e+03
2.121329e+02,2.894470e+03
2.150256e+02,2.902283e+03
2.179183e+02,2.903638e+03
2.208110e+02,2.925935e+03
2.237037e+02,2.922450e+03
2.265964e+02,2.911849e+03
2.294892e+02,2.915803e+03
2.323819e+02,2.924452e+03
2.352746e+02,2.929674e+03
2.381673e+02,2.932598e+03
2.410600e+02,2.927362e+03
2.439527e+02,2.927398e+03
2.468454e+02,2.938059e+03
2.497381e+02,2.938630e+03
2.526308e+02,2.952012e+03
2.555235e+02,2.956089e+03
2.584161e+02,2.954141e+03
2.613088e+02,2.956266e+03
2.642015e+02,2.962080e+03
2.670942e+02,2.973009e+03
2.699869e+02,2.983370e+03
2.728796e+02,2.978850e+03
2.757723e+02,2.976823e+03
2.786650e+02,2.979484e+03
2.815577e+02,2.997241e+03
2.844504e+02,2.986587e+03
2.873431e+02,2.999095e+03
2.902358e+02,3.006415e+03
2.931285e+02,3.005488e+03
2.960212e+02,3.007647e+03
2.989139e+02,3.020011e+03
3.018066e+02,3.031984e+03
3.046993e+02,3.014290e+03
3.075920e+02,3.018488e+03
3.104847e+02,3.021619e+03
3.133774e+02,3.018951e+03
3.162701e+02,3.028667e+03
3.191628e+02,3.026695e+03
3.220555e+02,3.032260e+03
3.249482e+02,3.052124e+03
3.278409e+02,3.047606e+03
3.307336e+02,3.048869e+03
3.336263e+02,3.046591e+03
3.365190e+02,3.044083e+03
3.394117e+02,3.059538e+03
3.423044e+02,3.059816e+03
3.451971e+02,3.065729e+03
3.480898e+02,3.062374e+03
3.509825e+02,3.044102e+03
3.538752e+02,3.067138e+03
3.567680e+02,3.070908e+03
3.596607e+02,3.076349e+03
3.625534e+02,3.078092e+03
3.654461e+02,3.067847e+03
3.683388e+02,3.070958e+03
3.712315e+02,3.071073e+03
3.741242e+02,3.102660e+03
3.770169e+02,3.111323e+03
3.799096e+02,3.119170e+03
3.828023e+02,3.097510e+03
3.856950e+02,3.077757e+03
3.885877e+02,3.094494e+03
3.914804e+02,3.092731e+03
3.943731e+02,3.075288e+03
3.972658e+02,3.088289e+03
4.001585e+02,3.090941e+03
4.030512e+02,3.102204e+03
4.059439e+02,3.089466e+03
4.088366e+02,3.085315e+03
4.117293e+02,3.077874e+03
4.146220e+02,3.082237e+03
4.175147e+02,3.084895e+03
4.204074e+02,3.082272e+03
4.233001e+02,3.088863e+03
4.261928e+02,3.104542e+03
4.290855e+02,3.093885e+03
4.319782e+02,3.094068e+03
4.348709e+02,3.103205e+03
4.377636e+02,3.100923e+03
4.406563e+02,3.090544e+03
4.435490e+02,3.102380e+03
4.464417e+02,3.093277e+03
4.493344e+02,3.097104e+03
4.522271e+02,3.108688e+03
4.551198e+02,3.104416e+03
4.580125e+02,3.111436e+03
4.609052e+02,3.104310e+03
4.637979e+02,3.105219e+03
4.666906e+02,3.104653e+03
4.695833e+02,3.105785e+03
4.724760e+02,3.093283e+03
4.753687e+02,3.104023e+03
4.782614e+02,3.089189e+03
4.811541e+02,3.090095e+03
4.840468e+02,3.098362e+03
4.869395e+02,3.075540e+03
4.898322e+02,3.083704e+03
4.927249e+02,3.091027e+03
4.956176e+02,3.106552e+03
4.985103e+02,3.108962e+03
5.014030e+02,3.093820e+03
5.042957e+02,3.096816e+03
5.071884e+02,3.106417e+03
5.100811e+02,3.094157e+03
5.129738e+02,3.112771e+03
5.158665e+02,3.120614e+03
5.187592e+02,3.104007e+03
5.216519e+02,3.106294e+03
5.245446e+02,3.107761e+03
5.274373e+02,3.100703e+03
5.303300e+02,3.105839e+03
5.332227e+02,3.093522e+03
5.361154e+02,3.080863e+03
5.390081e+02,3.060608e+03
5.419008e+02,3.084434e+03
5.447935e+02,3.091200e+03
5.476862e+02,3.091945e+03
5.505789e+02,3.080270e+03
5.534716e+02,3.069643e+03
5.563643e+02,3.069073e+03
5.592570e+02,3.079300e+03
5.621497e+02,3.091516e+03
5.650424e+02,3.070525e+03
5.679351e+02,3.056191e+03
5.708278e+02,3.060148e+03
5.737205e+02,3.060458e+03
5.766132e+02,3.055991e+03
5.795059e+02,3.054570e+03
5.823986e+02,3.053104e+03
5.852913e+02,3.066215e+03
5.881840e+02,3.052073e+03
5.910767e+02,3.060233e+03
5.939694e+02,3.062981e+03
5.968621e+02,3.059672e+03
5.997548e+02,3.062139e+03
6.026475e+02,3.040024e+03
6.055402e+02,3.060598e+03
6.084329e+02,3.045851e+03
6.113256e+02,3.034009e+03
6.142183e+02,3.059040e+03
6.171110e+02,3.046957e+03
6.200037e+02,3.021387e+03
6.228964e+02,3.044516e+03
6.257891e+02,3.034630e+03
6.286818e+02,3.030318e+03
6.315745e+02,3.022437e+03
6.344672e+02,3.029357e+03
6.373599e+02,3.025361e+03
6.402526e+02,3.015038e+03
6.431453e+02,3.005739e+03
6.460380e+02,3.011670e+03
6.489307e+02,3.011843e+03
6.518234e+02,3.019074e+03
6.547161e+02,3.013073e+03
6.576088e+02,3.012263e+03
6.605015e+02,2.995371e+03
6.633942e+02,2.983619e+03
6.662869e+02,3.010434e+03
6.691796e+02,2.990802e+03
6.720723e+02,2.995575e+03
6.749650e+02,2.988899e+03
6.778577e+02,2.981177e+03
6.807504e+02,2.978077e+03
6.836431e+02,2.978676e+03
6.865358e+02,2.977614e+03
6.894285e+02,2.977787e+03
6.923212e+02,2.969888e+03
6.952139e+02,2.957252e+03
6.981066e+02,2.979958e+03
7.009993e+02,2.969063e+03
7.038920e+02,2.956061e+03
7.067847e+02,2.931083e+03
7.096774e+02,2.929367e+03
7.125701e+02,2.934351e+03
7.154628e+02,2.936631e+03
7.183555e+02,2.928022e+03
7.212482e+02,2.919591e+03
7.241409e+02,2.908607e+03
7.270336e+02,2.912424e+03
7.299263e+02,2.922637e+03
7.328190e+02,2.901112e+03
7.357117e+02,2.911695e+03
7.386044e+02,2.903551e+03
7.414971e+02,2.899462e+03
7.443898e+02,2.915790e+03
7.472825e+02,2.898143e+03
7.501752e+02,2.889065e+03
7.530679e+02,2.895349e+03
7.559606e+02,2.877705e+03
7.588533e+02,2.884490e+03
7.617460e+02,2.855445e+03
7.646387e+02,2.870755e+03
7.675314e+02,2.865886e+03
7.704241e+02,2.856176e+03
7.733168e+02,2.851210e+03
7.762095e+02,2.838995e+03
7.791022e+02,2.851689e+03
7.819949e+02,2.862500e+03
7.848876e+02,2.847113e+03
7.877803e+02,2.844109e+03
7.906730e+02,2.835399e+03
7.935657e+02,2.826220e+03
7.964584e+02,2.821996e+03
7.993511e+02,2.808138e+03
8.022438e+02,2.815715e+03
8.051365e+02,2.815232e+03
8.080292e+02,2.804126e+03
8.109219e+02,2.809126e+03
8.138146e+02,2.802278e+03
8.167073e+02,2.789806e+03
8.196000e+02,2.790044e+03
8.224927e+02,2.798310e+03
8.253854e+02,2.804175e+03
8.282781e+02,2.790084e+03
8.311708e+02,2.802969e+03
8.340635e+02,2.788110e+03
8.369562e+02,2.776499e+03
8.398489e+02,2.758128e+03
8.427416e+02,2.777914e+03
8.456343e+02,2.741302e+03
8.485270e+02,2.741651e+03
8.514197e+02,2.746582e+03
8.543124e+02,2.751194e+03
8.572051e+02,2.743276e+03
8.600978e+02,2.737358e+03
8.629905e+02,2.728936e+03
8.658832e+02,2.713846e+03
8.687759e+02,2.714186e+03
8.716686e+02,2.718266e+03
8.745613e+02,2.701016e+03
8.774540e+02,2.711039e+03
8.803467e+02,2.702229e+03
8.832394e+02,2.700785e+03
8.861321e+02,2.697984e+03
8.890248e+02,2.695169e+03
8.919175e+02,2.684951e+03
8.948102e+02,2.682573e+03
8.977029e+02,2.684035e+03
9.005956e+02,2.663469e+03
9.034883e+02,2.664854e+03
9.063810e+02,2.657498e+03
9.092737e+02,2.651681e+03
9.121664e+02,2.645099e+03
9.150591e+02,2.634455e+03
9.179518e+02,2.639242e+03
9.208445e+02,2.636900e+03
9.237372e+02,2.624667e+03
9.266299e+02,2.620149e+03
9.295226e+02,2.612810e+03
9.324153e+02,2.617927e+03
9.353080e+02,2.613109e+03
9.382007e+02,2.602101e+03
9.410934e+02,2.603175e+03
9.439861e+02,2.585100e+03
9.468788e+02,2.589569e+03
9.497715e+02,2.584479e+03
9.526642e+02,2.567118e+03
9.555569e+02,2.565052e+03
9.584496e+02,2.555086e+03
9.613423e+02,2.568463e+03
9.642350e+02,2.558226e+03
9.671277e+02,2.566142e+03
9.700204e+02,2.568495e+03
9.729131e+02,2.535456e+03
9.758058e+02,2.532855e+03
9.786985e+02,2.534959e+03
9.815912e+02,2.519771e+03
9.844839e+02,2.529671e+03
9.873766e+02,2.505408e+03
9.902693e+02,2.505918e+03
9.931620e+02,2.513167e+03
9.960547e+02,2.501304e+03
9.989474e+02,2.501987e+03
1.001840e+03,2.495134e+03
1.004733e+03,2.485320e+03
1.007626e+03,2.489360e+03
1.010518e+03,2.489652e+03
1.013411e+03,2.470239e+03
1.016304e+03,2.472138e+03
1.019196e+03,2.468374e+03
1.022089e+03,2.465198e+03
1.024982e+03,2.453738e+03
1.027875e+03,2.446594e+03
1.030767e+03,2.457808e+03
1.033660e+03,2.446051e+03
1.036552e+03,2.468391e+03
1.039445e+03,2.439775e+03
1.042338e+03,2.432172e+03
1.045231e+03,2.434465e+03
1.048123e+03,2.439037e+03
1.051016e+03,2.424870e+03
1.053909e+03,2.435582e+03
1.056802e+03,2.421379e+03
1.059694e+03,2.420304e+03
1.062587e+03,2.420301e+03
1.065479e+03,2.411622e+03
1.068372e+03,2.414064e+03
1.071265e+03,2.410011e+03
1.074158e+03,2.399860e+03
1.077050e+03,2.388579e+03
1.079943e+03,2.396434e+03
1.082836e+03,2.405977e+03
1.085729e+03,2.397768e+03
1.088621e+03,2.413427e+03
1.091514e+03,2.401139e+03
1.094406e+03,2.409786e+03
1.097299e+03,2.405680e+03
1.100192e+03,2.389436e+03
1.103085e+03,2.377355e+03
1.105977e+03,2.369586e+03
1.108870e+03,2.371728e+03
1.111763e+03,2.371713e+03
1.114656e+03,2.361181e+03
1.117548e+03,2.372646e+03
1.120441e+03,2.370211e+03
1.123334e+03,2.358555e+03
1.126226e+03,2.356996e+03
1.129119e+03,2.344896e+03
1.132012e+03,2.341700e+03
1.134904e+03,2.315726e+03
1.137797e+03,2.310497e+03
1.140690e+03,2.318650e+03
1.143583e+03,2.307094e+03
1.146475e+03,2.310020e+03
1.149368e+03,2.314641e+03
1.152261e+03,2.315952e+03
1.155153e+03,2.304168e+03
1.158046e+03,2.292694e+03
1.160939e+03,2.288586e+03
1.163831e+03,2.292096e+03
1.166724e+03,2.281977e+03
1.169617e+03,2.283768e+03
1.172510e+03,2.269662e+03
1.175402e+03,2.265451e+03
1.178295e+03,2.258158e+03
1.181188e+03,2.257645e+03
1.184080e+03,2.243686e+03
1.186973e+03,2.240457e+03
1.189866e+03,2.247468e+03
1.192758e+03,2.239251e+03
1.195651e+03,2.238365e+03
1.198544e+03,2.236477e+03
1.201437e+03,2.231788e+03
1.204329e+03,2.224471e+03
1.207222e+03,2.221370e+03
1.210115e+03,2.226948e+03
1.213007e+03,2.227406e+03
1.215900e+03,2.222506e+03
1.218793e+03,2.209773e+03
1.221685e+03,2.219853e+03
1.224578e+03,2.209288e+03
1.227471e+03,2.208382e+03
1.230364e+03,2.206820e+03
1.233256e+03,2.205500e+03
1.236149e+03,2.214157e+03
1.239042e+03,2.215473e+03
1.241934e+03,2.213531e+03
1.244827e+03,2.211047e+03
1.247720e+03,2.198883e+03
1.250612e+03,2.191206e+03
1.253505e+03,2.187599e+03
1.256398e+03,2.174096e+03
1.259291e+03,2.181508e+03
1.262183e+03,2.179101e+03
1.265076e+03,2.158491e+03
1.267969e+03,2.166052e+03
1.270861e+03,2.162821e+03
1.273754e+03,2.151025e+03
1.276647e+03,2.140485e+03
1.279539e+03,2.139187e+03
1.282432e+03,2.133356e+03
1.285325e+03,2.137196e+03
1.288218e+03,2.148247e+03
1.291110e+03,2.144047e+03
1.294003e+03,2.141206e+03
1.296896e+03,2.104140e+03
1.299788e+03,2.121929e+03
1.302681e+03,2.123147e+03
1.305574e+03,2.114909e+03
1.308466e+03,2.108728e+03
1.311359e+03,2.122815e+03
1.314252e+03,2.107564e+03
1.317145e+03,2.107439e+03
1.320037e+03,2.112319e+03
1.322930e+03,2.105840e+03
1.325823e+03,2.096418e+03
1.328715e+03,2.092336e+03
1.331608e+03,2.102273e+03
1.334501e+03,2.099185e+03
1.337393e+03,2.096821e+03
1.340286e+03,2.098232e+03
1.343179e+03,2.092315e+03
1.346072e+03,2.083211e+03
1.348964e+03,2.089462e+03
1.351857e+03,2.089976e+03
1.354750e+03,2.083256e+03
1.357642e+03,2.075579e+03
1.360535e+03,2.075001e+03
1.363428e+03,2.072165e+03
1.366320e+03,2.059599e+03
1.369213e+03,2.054214e+03
1.372106e+03,2.055394e+03
1.374999e+03,2.059037e+03
1.377891e+03,2.063479e+03
1.380784e+03,2.053956e+03
1.383677e+03,2.041240e+03
1.386569e+03,2.038439e+03
1.389462e+03,2.032295e+03
1.392355e+03,2.026649e+03
1.395247e+03,2.016377e+03
1.398140e+03,2.016653e+03
1.401033e+03,2.018177e+03
1.403926e+03,2.016189e+03
1.406818e+03,2.024063e+03
1.409711e+03,2.048517e+03
1.412604e+03,2.033099e+03
1.415496e+03,2.023146e+03
1.418389e+03,2.020368e+03
1.421282e+03,2.009237e+03
1.424174e+03,1.993656e+03
1.427067e+03,1.997533e+03
1.429960e+03,1.994046e+03
1.432853e+03,1.986768e+03
1.435745e+03,1.976733e+03
1.438638e+03,1.978670e+03
1.441531e+03,1.986740e+03
1.444423e+03,1.977392e+03
1.447316e+03,1.980171e+03
1.450209e+03,1.970975e+03
1.453101e+03,1.968336e+03
1.455994e+03,1.973814e+03
1.458887e+03,1.981546e+03
1.461780e+03,1.976195e+03
1.464672e+03,1.940828e+03
1.467565e+03,1.963101e+03
1.470458e+03,1.961804e+03
1.473350e+03,1.962896e+03
1.476243e+03,1.972014e+03
1.479136e+03,1.967572e+03
1.482028e+03,1.981420e+03
1.484921e+03,1.963470e+03
1.487814e+03,1.961266e+03
1.490707e+03,1.950450e+03
1.493599e+03,1.928034e+03
1.496492e+03,1.915641e+03
1.499385e+03,1.918752e+03
1.502277e+03,1.923364e+03
1.505170e+03,1.919180e+03
1.508063e+03,1.933013e+03
1.510955e+03,1.925618e+03
1.513848e+03,1.934299e+03
1.516741e+03,1.935105e+03
1.519634e+03,1.962417e+03
1.522526e+03,1.959580e+03
1.525419e+03,1.960630e+03
1.528312e+03,1.936401e+03
1.531204e+03,1.931005e+03
1.534097e+03,1.912248e+03
1.536990e+03,1.915888e+03
1.539882e+03,1.906866e+03
1.542775e+03,1.871196e+03
1.545668e+03,1.889688e+03
1.548561e+03,1.882880e+03
1.551453e+03,1.881066e+03
1.554346e+03,1.887330e+03
1.557239e+03,1.877182e+03
1.560131e+03,1.870652e+03
1.563024e+03,1.866441e+03
1.565917e+03,1.860490e+03
1.568809e+03,1.880920e+03
1.571702e+03,1.875295e+03
1.574595e+03,1.859695e+03
1.577488e+03,1.845885e+03
1.580380e+03,1.858548e+03
1.583273e+03,1.864984e+03
1.586166e+03,1.845973e+03
1.589058e+03,1.850572e+03
1.591951e+03,1.856795e+03
1.594844e+03,1.864433e+03
1.597736e+03,1.873288e+03
1.600629e+03,1.883963e+03
1.603522e+03,1.875712e+03
1.606415e+03,1.884561e+03
1.609307e+03,1.864185e+03
1.612200e+03,1.856806e+03
1.615093e+03,1.858571e+03
1.617985e+03,1.855647e+03
1.620878e+03,1.818659e+03
1.623771e+03,1.824986e+03
1.626663e+03,1.815502e+03
1.629556e+03,1.805709e+03
1.632449e+03,1.797744e+03
1.635342e+03,1.804872e+03
1.638234e+03,1.797273e+03
1.641127e+03,1.796062e+03
1.644020e+03,1.775648e+03
1.646912e+03,1.785621e+03
1.649805e+03,1.778827e+03
1.652698e+03,1.756830e+03
1.655590e+03,1.770930e+03
1.658483e+03,1.768400e+03
1.661376e+03,1.763541e+03
1.664269e+03,1.762349e+03
1.667161e+03,1.755320e+03
1.670054e+03,1.754229e+03
1.672947e+03,1.750130e+03
1.675839e+03,1.753850e+03
1.678732e+03,1.744275e+03
1.681625e+03,1.748793e+03
1.684517e+03,1.743656e+03
1.687410e+03,1.727090e+03
1.690303e+03,1.738035e+03
1.693196e+03,1.723362e+03
1.696088e+03,1.728667e+03
1.698981e+03,1.731762e+03
1.701874e+03,1.717377e+03
1.704766e+03,1.721326e+03
1.707659e+03,1.720002e+03
1.710552e+03,1.713004e+03
1.713444e+03,1.716500e+03
1.716337e+03,1.727939e+03
1.719230e+03,1.702673e+03
1.722123e+03,1.701427e+03
1.725015e+03,1.702082e+03
1.727908e+03,1.680952e+03
1.730801e+03,1.685325e+03
1.733693e+03,1.697104e+03
1.736586e+03,1.695139e+03
1.739479e+03,1.675231e+03
1.742371e+03,1.678760e+03
1.745264e+03,1.685903e+03
1.748157e+03,1.665237e+03
1.751050e+03,1.677204e+03
1.753942e+03,1.667238e+03
1.756835e+03,1.663754e+03
1.759728e+03,1.681401e+03
1.762620e+03,1.656022e+03
1.765513e+03,1.667256e+03
1.768406e+03,1.664255e+03
1.771298e+03,1.658666e+03
1.774191e+03,1.658546e+03
1.777084e+03,1.642893e+03
1.779977e+03,1.656684e+03
1.782869e+03,1.643180e+03
1.785762e+03,1.643602e+03
1.788655e+03,1.641422e+03
1.791547e+03,1.630857e+03
1.794440e+03,1.617580e+03
1.797333e+03,1.625300e+03
1.800225e+03,1.631420e+03
1.803118e+03,1.626650e+03
1.806011e+03,1.614490e+03
1.808904e+03,1.617662e+03
1.811796e+03,1.596024e+03
1.814689e+03,1.617250e+03
1.817582e+03,1.627063e+03
1.820474e+03,1.592350e+03
1.823367e+03,1.599837e+03
1.826260e+03,1.613406e+03
1.829152e+03,1.601557e+03
1.832045e+03,1.611218e+03
1.834938e+03,1.585720e+03
1.837831e+03,1.589157e+03
1.840723e+03,1.582061e+03
1.843616e+03,1.590278e+03
1.846509e+03,1.578413e+03
1.849401e+03,1.573699e+03
1.852294e+03,1.569354e+03
1.855187e+03,1.568686e+03
1.858079e+03,1.573562e+03
1.860972e+03,1.576941e+03
1.863865e+03,1.561185e+03
1.866758e+03,1.549984e+03
1.869650e+03,1.554806e+03
1.872543e+03,1.540291e+03
1.875436e+03,1.566792e+03
1.878328e+03,1.546607e+03
1.881221e+03,1.543883e+03
1.884114e+03,1.547541e+03
1.887006e+03,1.530436e+03
1.889899e+03,1.544037e+03
1.892792e+03,1.530973e+03
1.895685e+03,1.535962e+03
1.898577e+03,1.530800e+03
1.901470e+03,1.513368e+03
1.904363e+03,1.510948e+03
1.907255e+03,1.527971e+03
1.910148e+03,1.502589e+03
1.913041e+03,1.519539e+03
1.915933e+03,1.510384e+03
1.918826e+03,1.497370e+03
1.921719e+03,1.484653e+03
1.924612e+03,1.500229e+03
1.927504e+03,1.494577e+03
1.930397e+03,1.497412e+03
1.933290e+03,1.479484e+03
1.936182e+03,1.493328e+03
1.939075e+03,1.489344e+03
1.941968e+03,1.475408e+03
1.944860e+03,1.461296e+03
1.947753e+03,1.474157e+03
1.950646e+03,1.464788e+03
1.953539e+03,1.466889e+03
1.956431e+03,1.467527e+03
1.959324e+03,1.468056e+03
1.962217e+03,1.448607e+03
1.965109e+03,1.451691e+03
1.968002e+03,1.441128e+03
1.970895e+03,1.459208e+03
1.973787e+03,1.454372e+03
1.976680e+03,1.441463e+03
1.979573e+03,1.438008e+03
1.982466e+03,1.443798e+03
1.985358e+03,1.421747e+03
1.988251e+03,1.427669e+03
1.991144e+03,1.427162e+03
1.994036e+03,1.424871e+03
1.996929e+03,1.415871e+03
1.999822e+03,1.421768e+03
2.002714e+03,1.420323e+03
2.005607e+03,1.406594e+03
2.008500e+03,1.395329e+03
2.011393e+03,1.394846e+03
2.014285e+03,1.397699e+03
2.017178e+03,1.398607e+03
2.020071e+03,1.389987e+03
2.022963e+03,1.387360e+03
2.025856e+03,1.374790e+03
2.028749e+03,1.370695e+03
2.031641e+03,1.375425e+03
2.034534e+03,1.359175e+03
2.037427e+03,1.366602e+03
2.040320e+03,1.356719e+03
2.043212e+03,1.355111e+03
2.046105e+03,1.366520e+03
2.048998e+03,1.367768e+03
2.051890e+03,1.348219e+03
2.054783e+03,1.362652e+03
2.057676e+03,1.356215e+03
2.060568e+03,1.333380e+03
2.063461e+03,1.341985e+03
2.066354e+03,1.342190e+03
2.069247e+03,1.312993e+03
2.072139e+03,1.322145e+03
2.075032e+03,1.329437e+03
2.077925e+03,1.317942e+03
2.080817e+03,1.314153e+03
2.083710e+03,1.313985e+03
2.086603e+03,1.301055e+03
2.089496e+03,1.303505e+03
2.092388e+03,1.324487e+03
2.095281e+03,1.305674e+03
2.098174e+03,1.333321e+03
2.101066e+03,1.311695e+03
2.103959e+03,1.295124e+03
2.106852e+03,1.285461e+03
2.109744e+03,1.281146e+03
2.112637e+03,1.275345e+03
2.115530e+03,1.280746e+03
2.118422e+03,1.270024e+03
2.121315e+03,1.274264e+03
2.124208e+03,1.286622e+03
2.127101e+03,1.265966e+03
2.129993e+03,1.258014e+03
2.132886e+03,1.280630e+03
2.135779e+03,1.248462e+03
2.138671e+03,1.244512e+03
2.141564e+03,1.277424e+03
2.144457e+03,1.267658e+03
2.147350e+03,1.226939e+03
2.150242e+03,1.237711e+03
2.153135e+03,1.248746e+03
2.156028e+03,1.253197e+03
2.158920e+03,1.236581e+03
2.161813e+03,1.222615e+03
2.164706e+03,1.218962e+03
2.167598e+03,1.239171e+03
2.170491e+03,1.224184e+03
2.173384e+03,1.214866e+03
2.176277e+03,1.214213e+03
2.179169e+03,1.217203e+03
2.182062e+03,1.202933e+03
2.184955e+03,1.211449e+03
2.187847e+03,1.218908e+03
2.190740e+03,1.203691e+03
2.193633e+03,1.199968e+03
2.196525e+03,1.203049e+03
2.199418e+03,1.192622e+03
2.202311e+03,1.186446e+03
2.205204e+03,1.187372e+03
2.208096e+03,1.183684e+03
2.210989e+03,1.172534e+03
2.213882e+03,1.184084e+03
2.216774e+03,1.173616e+03
2.219667e+03,1.167677e+03
2.222560e+03,1.164183e+03
2.225452e+03,1.168655e+03
2.228345e+03,1.145690e+03
2.231238e+03,1.165792e+03
2.234131e+03,1.156908e+03
2.237023e+03,1.161819e+03
2.239916e+03,1.181892e+03
2.242809e+03,1.165692e+03
2.245701e+03,1.161325e+03
2.248594e+03,1.150707e+03
2.251487e+03,1.151931e+03
2.254379e+03,1.139661e+03
2.257272e+03,1.120474e+03
2.260165e+03,1.117915e+03
2.263058e+03,1.139901e+03
2.265950e+03,1.137855e+03
2.268843e+03,1.116912e+03
2.271736e+03,1.114750e+03
2.274628e+03,1.114440e+03
2.277521e+03,1.110485e+03
2.280414e+03,1.120867e+03
2.283306e+03,1.100361e+03
2.286199e+03,1.099983e+03
2.289092e+03,1.090253e+03
2.291985e+03,1.093465e+03
2.294877e+03,1.088752e+03
2.297770e+03,1.093726e+03
2.300663e+03,1.092750e+03
2.303555e+03,1.075508e+03
2.306448e+03,1.072031e+03
2.309341e+03,1.077575e+03
2.312233e+03,1.090694e+03
2.315126e+03,1.074647e+03
2.318019e+03,1.056299e+03
2.320912e+03,1.073914e+03
2.323804e+03,1.063624e+03
2.326697e+03,1.073575e+03
2.329590e+03,1.054110e+03
2.332482e+03,1.061806e+03
2.335375e+03,1.060015e+03
2.338268e+03,1.052584e+03
2.341160e+03,1.052729e+03
2.344053e+03,1.048328e+03
2.346946e+03,1.051994e+03
2.349839e+03,1.045051e+03
2.352731e+03,1.038969e+03
2.355624e+03,1.029691e+03
2.358517e+03,1.048095e+03
2.361409e+03,1.044883e+03
2.364302e+03,1.021202e+03
2.367195e+03,1.007161e+03
2.370087e+03,1.023052e+03
2.372980e+03,1.022406e+03
2.375873e+03,1.022345e+03
2.378766e+03,1.014328e+03
2.381658e+03,1.011862e+03
2.384551e+03,1.006840e+03
2.387444e+03,1.005569e+03
2.390336e+03,1.004837e+03
2.393229e+03,1.008989e+03
2.396122e+03,9.974354e+02
2.399014e+03,9.961995e+02
2.401907e+03,1.003874e+03
2.404800e+03,9.874634e+02
2.407693e+03,1.003535e+03
2.410585e+03,9.917466e+02
2.413478e+03,9.782735e+02
2.416371e+03,9.804470e+02
2.419263e+03,9.772439e+02
2.422156e+03,9.865453e+02
2.425049e+03,9.810181e+02
2.427941e+03,9.722006e+02
2.430834e+03,9.739219e+02
2.433727e+03,9.794791e+02
2.436620e+03,9.741026e+02
2.439512e+03,9.647863e+02
2.442405e+03,9.490096e+02
2.445298e+03,9.782744e+02
2.448190e+03,9.487128e+02
2.451083e+03,9.631984e+02
2.453976e+03,9.459785e+02
2.456868e+03,9.528570e+02
2.459761e+03,9.374936e+02
2.462654e+03,9.423471e+02
2.465547e+03,9.567393e+02
2.468439e+03,9.332465e+02
2.471332e+03,9.354018e+02
2.474225e+03,9.464644e+02
2.477117e+03,9.213492e+02
2.480010e+03,9.398367e+02
2.482903e+03,9.225524e+02
2.485795e+03,9.140313e+02
2.488688e+03,9.242648e+02
2.491581e+03,9.210655e+02
2.494474e+03,9.129233e+02
2.497366e+03,9.067045e+02
2.500259e+03,9.235724e+02
2.503152e+03,9.125267e+02
2.506044e+03,8.985123e+02
2.508937e+03,9.188545e+02
2.511830e+03,9.105734e+02
2.514722e+03,9.340258e+02
2.517615e+03,9.077535e+02
2.520508e+03,8.891786e+02
2.523401e+03,9.001122e+02
2.526293e+03,8.969285e+02
2.529186e+03,8.909358e+02
2.532079e+03,9.075998e+02
2.534971e+03,8.872404e+02
2.537864e+03,8.921827e+02
2.540757e+03,9.002669e+02
2.543649e+03,8.927610e+02
2.546542e+03,8.873212e+02
2.549435e+03,8.793709e+02
2.552328e+03,8.810569e+02
2.555220e+03,9.036942e+02
2.558113e+03,8.778987e+02
2.561006e+03,8.786229e+02
2.563898e+03,8.961954e+02
2.566791e+03,8.880065e+02
2.569684e+03,8.760449e+02
2.572576e+03,8.700411e+02
2.575469e+03,8.703414e+02
2.578362e+03,8.638947e+02
2.581255e+03,8.613939e+02
2.584147e+03,8.598367e+02
2.587040e+03,8.534520e+02
2.589933e+03,8.514856e+02
2.592825e+03,8.526865e+02
2.595718e+03,8.504052e+02
2.598611e+03,8.415602e+02
2.601503e+03,8.344540e+02
2.604396e+03,8.356373e+02
2.607289e+03,8.412884e+02
2.610182e+03,8.392213e+02
2.613074e+03,8.515427e+02
2.615967e+03,8.302717e+02
2.618860e+03,8.373505e+02
2.621752e+03,8.412784e+02
2.624645e+03,8.249450e+02
2.627538e+03,8.254124e+02
2.630430e+03,8.170009e+02
2.633323e+03,8.227784e+02
2.636216e+03,8.126653e+02
2.639109e+03,8.311448e+02
2.642001e+03,8.236203e+02
2.644894e+03,8.243754e+02
2.647787e+03,8.301622e+02
2.650679e+03,8.140792e+02
2.653572e+03,8.258087e+02
2.656465e+03,8.263597e+02
2.659357e+03,8.072224e+02
2.662250e+03,8.175750e+02
2.665143e+03,8.124892e+02
2.668036e+03,8.172293e+02
2.670928e+03,8.067663e+02
2.673821e+03,8.129818e+02
2.676714e+03,8.128722e+02
2.679606e+03,7.956516e+02
2.682499e+03,8.046172e+02
2.685392e+03,8.010412e+02
2.688284e+03,8.095002e+02
2.691177e+03,7.914578e+02
2.694070e+03,7.897520e+02
2.696963e+03,7.887468e+02
2.699855e+03,7.899582e+02
2.702748e+03,7.859173e+02
2.705641e+03,7.822556e+02
2.708533e+03,7.837868e+02
2.711426e+03,7.827356e+02
2.714319e+03,7.724856e+02
2.717211e+03,7.923698e+02
2.720104e+03,7.849322e+02
2.722997e+03,7.806220e+02
2.725890e+03,7.792701e+02
2.728782e+03,7.747281e+02
2.731675e+03,7.729397e+02
2.734568e+03,7.827723e+02
2.737460e+03,7.553456e+02
2.740353e+03,7.699315e+02
2.743246e+03,7.455875e+02
2.746138e+03,7.606808e+02
2.749031e+03,7.669848e+02
2.751924e+03,7.655049e+02
2.754817e+03,7.539510e+02
2.757709e+03,7.564081e+02
2.760602e+03,7.604700e+02
2.763495e+03,7.501338e+02
2.766387e+03,7.663539e+02
2.769280e+03,7.439265e+02
2.772173e+03,7.531119e+02
2.775065e+03,7.426328e+02
2.777958e+03,7.459247e+02
2.780851e+03,7.478796e+02
2.783744e+03,7.437889e+02
2.786636e+03,7.284683e+02
2.789529e+03,7.344249e+02
2.792422e+03,7.456757e+02
2.795314e+03,7.411213e+02
2.798207e+03,7.465240e+02
2.801100e+03,7.582631e+02
2.803992e+03,7.263864e+02
2.806885e+03,7.239593e+02
2.809778e+03,7.385369e+02
2.812671e+03,7.324447e+02
2.815563e+03,7.203992e+02
2.818456e+03,7.155228e+02
2.821349e+03,7.384709e+02
2.824241e+03,7.171654e+02
2.827134e+03,7.151964e+02
2.830027e+03,7.127097e+02
2.832919e+03,7.208280e+02
2.835812e+03,7.145764e+02
2.838705e+03,7.283662e+02
2.841598e+03,7.025793e+02
2.844490e+03,7.280483e+02
2.847383e+03,7.392997e+02
2.850276e+03,7.300496e+02
2.853168e+03,7.319247e+02
2.856061e+03,7.153986e+02
2.858954e+03,7.164010e+02
2.861846e+03,7.414435e+02
2.864739e+03,7.028038e+02
2.867632e+03,7.413033e+02
2.870525e+03,7.331207e+02
2.873417e+03,7.342947e+02
2.876310e+03,7.360544e+02
2.879203e+03,7.356578e+02
2.882095e+03,7.225607e+02
2.884988e+03,7.522767e+02
2.887881e+03,7.401533e+02
2.890773e+03,7.269944e+02
2.893666e+03,7.108364e+02
2.896559e+03,7.441154e+02
2.899452e+03,7.423499e+02
2.902344e+03,7.267882e+02
2.905237e+03,7.350253e+02
2.908130e+03,7.537448e+02
2.911022e+03,7.269781e+02
2.913915e+03,6.894669e+02
2.916808e+03,7.061003e+02
2.919700e+03,7.178730e+02
2.922593e+03,7.062051e+02
2.925486e+03,7.376078e+02
2.928379e+03,6.894591e+02
2.931271e+03,7.082067e+02
2.934164e+03,6.884142e+02
2.937057e+03,7.164085e+02
2.939949e+03,6.868588e+02
2.942842e+03,6.851276e+02
2.945735e+03,7.003889e+02
2.948627e+03,6.938359e+02
2.951520e+03,6.876945e+02
2.954413e+03,6.495453e+02
2.957306e+03,7.198720e+02
2.960198e+03,6.903546e+02
2.963091e+03,6.904708e+02
2.965984e+03,6.741745e+02
2.968876e+03,6.926013e+02
2.971769e+03,6.478995e+02
2.974662e+03,6.629987e+02
2.977554e+03,6.617037e+02
2.980447e+03,6.653369e+02
2.983340e+03,6.540804e+02
2.986233e+03,6.583646e+02
2.989125e+03,6.536776e+02
2.992018e+03,6.373575e+02
2.994911e+03,6.432874e+02
2.997803e+03,6.365717e+02
3.000696e+03,6.539083e+02
3.003589e+03,6.354907e+02
3.006481e+03,6.660203e+02
3.009374e+03,6.557626e+02
3.012267e+03,6.683863e+02
3.015160e+03,6.299692e+02
3.018052e+03,6.287513e+02
3.020945e+03,6.541360e+02
3.023838e+03,6.514804e+02
3.026730e+03,6.213613e+02
3.029623e+03,6.490882e+02
3.032516e+03,6.460488e+02
3.035408e+03,6.295856e+02
3.038301e+03,6.429006e+02
3.041194e+03,6.283453e+02
3.044087e+03,6.216485e+02
3.046979e+03,6.357668e+02
3.049872e+03,6.313816e+02
3.052765e+03,5.979535e+02
3.055657e+03,6.238674e+02
3.058550e+03,6.443106e+02
3.061443e+03,6.396843e+02
3.064335e+03,6.338099e+02
3.067228e+03,6.398235e+02
3.070121e+03,6.342506e+02
3.073014e+03,6.262858e+02
3.075906e+03,6.282511e+02
3.078799e+03,6.258015e+02
3.081692e+03,6.079597e+02
3.084584e+03,6.462409e+02
3.087477e+03,6.196566e+02
3.090370e+03,6.344709e+02
3.093262e+03,6.204872e+02
3.096155e+03,6.059336e+02
3.099048e+03,6.180836e+02
3.101941e+03,6.298426e+02
3.104833e+03,6.179550e+02
3.107726e+03,6.212482e+02
3.110619e+03,6.115667e+02
3.113511e+03,6.175804e+02
3.116404e+03,6.275751e+02
3.119297e+03,6.268805e+02
3.122189e+03,6.405065e+02
3.125082e+03,6.177661e+02
3.127975e+03,6.238549e+02
3.130868e+03,6.616718e+02
3.133760e+03,6.380286e+02
3.136653e+03,5.963250e+02
3.139546e+03,6.097994e+02
3.142438e+03,6.255978e+02
3.145331e+03,5.699916e+02
3.148224e+03,6.092745e+02
3.151116e+03,6.024014e+02
3.154009e+03,6.362822e+02
3.156902e+03,6.225244e+02
3.159795e+03,5.805548e+02
3.162687e+03,6.498814e+02
3.165580e+03,6.391464e+02
3.168473e+03,6.320311e+02
3.171365e+03,6.147176e+02
3.174258e+03,5.925714e+02
3.177151e+03,5.905208e+02
3.180043e+03,6.054591e+02
3.182936e+03,6.265570e+02
3.185829e+03,6.512985e+02
3.188722e+03,6.416019e+02
3.191614e+03,6.183685e+02
3.194507e+03,6.357453e+02
3.197400e+03,5.780357e+02
3.200292e+03,6.374064e+02
3.203185e+03,0.000000e+00
3.206078e+03,0.000000e+00
3.208970e+03,0.000000e+00
3.211863e+03,0.000000e+00
3.214756e+03,0.000000e+00
3.217649e+03,0.000000e+00
3.220541e+03,0.000000e+00
3.223434e+03,0.000000e+00
3.226327e+03,0.000000e+00
3.229219e+03,0.000000e+00
3.232112e+03,0.000000e+00
3.235005e+03,0.000000e+00
3.237897e+03,0.000000e+00
3.240790e+03,0.000000e+00
3.243683e+03,0.000000e+00
3.246576e+03,0.000000e+00
3.249468e+03,0.000000e+00
3.252361e+03,0.000000e+00
3.255254e+03,0.000000e+00
3.258146e+03,0.000000e+00
3.261039e+03,0.000000e+00
3.263932e+03,0.000000e+00
3.266824e+03,0.000000e+00
3.269717e+03,0.000000e+00
3.272610e+03,0.000000e+00
3.275503e+03,0.000000e+00
3.278395e+03,0.000000e+00
3.281288e+03,0.000000e+00
3.284181e+03,0.000000e+00
3.287073e+03,0.000000e+00
3.289966e+03,0.000000e+00
3.292859e+03,0.000000e+00
3.295751e+03,0.000000e+00
3.298644e+03,0.000000e+00
3.301537e+03,0.000000e+00
3.304430e+03,0.000000e+00
3.307322e+03,0.000000e+00
3.310215e+03,0.000000e+00
3.313108e+03,0.000000e+00
3.316000e+03,0.000000e+00
3.318893e+03,0.000000e+00
3.321786e+03,0.000000e+00
3.324678e+03,0.000000e+00
3.327571e+03,0.000000e+00
3.330464e+03,0.000000e+00
3.333357e+03,0.000000e+00
3.336249e+03,0.000000e+00
3.339142e+03,0.000000e+00
3.342035e+03,0.000000e+00
3.344927e+03,0.000000e+00
3.347820e+03,0.000000e+00
3.350713e+03,0.000000e+00
3.353605e+03,0.000000e+00
3.356498e+03,0.000000e+00
3.359391e+03,0.000000e+00
3.362284e+03,0.000000e+00
3.365176e+03,0.000000e+00
3.368069e+03,0.000000e+00
3.370962e+03,0.000000e+00
3.373854e+03,0.000000e+00
3.376747e+03,0.000000e+00
3.379640e+03,0.000000e+00
3.382532e+03,0.000000e+00
3.385425e+03,0.000000e+00
3.388318e+03,0.000000e+00
3.391211e+03,0.000000e+00
3.394103e+03,0.000000e+00
3.396996e+03,0.000000e+00
3.399889e+03,0.000000e+00
3.402781e+03,0.000000e+00
3.405674e+03,0.000000e+00
3.408567e+03,0.000000e+00
3.411459e+03,0.000000e+00
3.414352e+03,0.000000e+00
3.417245e+03,0.000000e+00
3.420138e+03,0.000000e+00
3.423030e+03,0.000000e+00
3.425923e+03,0.000000e+00
3.428816e+03,0.000000e+00
3.431708e+03,0.000000e+00
3.434601e+03,0.000000e+00
3.437494e+03,0.000000e+00
3.440386e+03,0.000000e+00
3.443279e+03,0.000000e+00
3.446172e+03,0.000000e+00
3.449065e+03,0.000000e+00
3.451957e+03,0.000000e+00
3.454850e+03,0.000000e+00
3.457743e+03,0.000000e+00
3.460635e+03,0.000000e+00
3.463528e+03,0.000000e+00
3.466421e+03,0.000000e+00
3.469313e+03,0.000000e+00
3.472206e+03,0.000000e+00
3.475099e+03,0.000000e+00
3.477992e+03,0.000000e+00
3.480884e+03,0.000000e+00
3.483777e+03,0.000000e+00
3.486670e+03,0.000000e+00
3.489563e+03,0.000000e+00
3.492455e+03,0.000000e+00
3.495348e+03,0.000000e+00
3.498240e+03,0.000000e+00
3.500169e+03,0.000000e+00