File: RAMAN_data/20012023_r3/blue fibre15.CSV
9.931763e+01,0.000000e+00
1.022103e+02,0.000000e+00
1.051030e+02,0.000000e+00
1.079957e+02,0.000000e+00
1.108884e+02,0.000000e+00
1.137811e+02,0.000000e+00
1.166738e+02,0.000000e+00
1.195665e+02,0.000000e+00
1.224592e+02,0.000000e+00
1.253519e+02,0.000000e+00
1.282446e+02,0.000000e+00
1.311373e+02,0.000000e+00
1.340300e+02,0.000000e+00
1.369227e+02,0.000000e+00
1.398154e+02,0.000000e+00
1.427081e+02,0.000000e+00
1.456008e+02,0.000000e+00
1.484935e+02,0.000000e+00
1.513862e+02,0.000000e+00
1.542789e+02,0.000000e+00
1.571716e+02,0.000000e+00
1.600643e+02,0.000000e+00
1.629570e+02,0.000000e+00
1.658497e+02,0.000000e+00
1.687424e+02,0.000000e+00
1.716351e+02,0.000000e+00
1.745278e+02,0.000000e+00
1.774205e+02,0.000000e+00
1.803132e+02,0.000000e+00
1.832059e+02,0.000000e+00
1.860986e+02,0.000000e+00
1.889913e+02,0.000000e+00
1.918840e+02,0.000000e+00
1.947767e+02,0.000000e+00
1.976694e+02,0.000000e+00
2.005621e+02,6.275062e+03
2.034548e+02,6.289536e+03
2.063475e+02,6.334151e+03
2.092402e+02,6.341904e+03
2.121329e+02,6.318366e+03
2.150256e+02,6.348030e+03
2.179183e+02,6.352500e+03
2.208110e+02,6.372026e+03
2.237037e+02,6.384769e+03
2.265964e+02,6.358506e+03
2.294892e+02,6.373002e+03
2.323819e+02,6.404236e+03
2.352746e+02,6.413433e+03
2.381673e+02,6.425587e+03
2.410600e+02,6.434697e+03
2.439527e+02,6.412580e+03
2.468454e+02,6.464424e+03
2.497381e+02,6.452198e+03
2.526308e+02,6.452169e+03
2.555235e+02,6.429985e+03
2.584161e+02,6.453937e+03
2.613088e+02,6.477084e+03
2.642015e+02,6.500271e+03
2.670942e+02,6.547251e+03
2.699869e+02,6.544846e+03
2.728796e+02,6.536801e+03
2.757723e+02,6.541834e+03
2.786650e+02,6.571165e+03
2.815577e+02,6.578014e+03
2.844504e+02,6.579856e+03
2.873431e+02,6.582048e+03
2.902358e+02,6.601517e+03
2.931285e+02,6.626823e+03
2.960212e+02,6.611467e+03
2.989139e+02,6.605751e+03
3.018066e+02,6.634124e+03
3.046993e+02,6.627034e+03
3.075920e+02,6.629937e+03
3.104847e+02,6.639961e+03
3.133774e+02,6.624453e+03
3.162701e+02,6.634104e+03
3.191628e+02,6.630251e+03
3.220555e+02,6.644346e+03
3.249482e+02,6.663420e+03
3.278409e+02,6.686302e+03
3.307336e+02,6.683140e+03
3.336263e+02,6.703482e+03
3.365190e+02,6.680375e+03
3.394117e+02,6.673240e+03
3.423044e+02,6.691630e+03
3.451971e+02,6.707045e+03
3.480898e+02,6.695253e+03
3.509825e+02,6.702321e+03
3.538752e+02,6.694367e+03
3.567680e+02,6.704406e+03
3.596607e+02,6.721727e+03
3.625534e+02,6.724816e+03
3.654461e+02,6.698528e+03
3.683388e+02,6.706963e+03
3.712315e+02,6.709032e+03
3.741242e+02,6.735542e+03
3.770169e+02,6.751062e+03
3.799096e+02,6.759058e+03
3.828023e+02,6.737037e+03
3.856950e+02,6.707359e+03
3.885877e+02,6.728478e+03
3.914804e+02,6.730390e+03
3.943731e+02,6.725030e+03
3.972658e+02,6.735989e+03
4.001585e+02,6.742272e+03
4.030512e+02,6.720409e+03
4.059439e+02,6.703501e+03
4.088366e+02,6.714892e+03
4.117293e+02,6.721704e+03
4.146220e+02,6.730240e+03
4.175147e+02,6.746292e+03
4.204074e+02,6.747209e+03
4.233001e+02,6.758936e+03
4.261928e+02,6.735786e+03
4.290855e+02,6.749941e+03
4.319782e+02,6.743683e+03
4.348709e+02,6.727637e+03
4.377636e+02,6.734743e+03
4.406563e+02,6.715449e+03
4.435490e+02,6.697858e+03
4.464417e+02,6.730055e+03
4.493344e+02,6.731400e+03
4.522271e+02,6.745912e+03
4.551198e+02,6.725034e+03
4.580125e+02,6.720319e+03
4.609052e+02,6.712058e+03
4.637979e+02,6.695112e+03
4.666906e+02,6.694636e+03
4.695833e+02,6.681875e+03
4.724760e+02,6.689635e+03
4.753687e+02,6.717915e+03
4.782614e+02,6.665028e+03
4.811541e+02,6.689122e+03
4.840468e+02,6.706807e+03
4.869395e+02,6.680401e+03
4.898322e+02,6.711335e+03
4.927249e+02,6.702048e+03
4.956176e+02,6.656979e+03
4.985103e+02,6.675824e+03
5.014030e+02,6.663639e+03
5.042957e+02,6.661411e+03
5.071884e+02,6.644288e+03
5.100811e+02,6.636871e+03
5.129738e+02,6.640856e+03
5.158665e+02,6.650108e+03
5.187592e+02,6.667592e+03
5.216519e+02,6.633614e+03
5.245446e+02,6.610173e+03
5.274373e+02,6.612996e+03
5.303300e+02,6.611253e+03
5.332227e+02,6.610898e+03
5.361154e+02,6.595445e+03
5.390081e+02,6.581051e+03
5.419008e+02,6.588736e+03
5.447935e+02,6.606558e+03
5.476862e+02,6.597192e+03
5.505789e+02,6.580005e+03
5.534716e+02,6.563264e+03
5.563643e+02,6.558642e+03
5.592570e+02,6.554465e+03
5.621497e+02,6.593132e+03
5.650424e+02,6.586586e+03
5.679351e+02,6.551275e+03
5.708278e+02,6.504826e+03
5.737205e+02,6.536002e+03
5.766132e+02,6.559640e+03
5.795059e+02,6.558248e+03
5.823986e+02,6.517401e+03
5.852913e+02,6.549870e+03
5.881840e+02,6.538687e+03
5.910767e+02,6.526209e+03
5.939694e+02,6.527583e+03
5.968621e+02,6.542311e+03
5.997548e+02,6.526569e+03
6.026475e+02,6.512822e+03
6.055402e+02,6.530245e+03
6.084329e+02,6.505852e+03
6.113256e+02,6.506466e+03
6.142183e+02,6.465823e+03
6.171110e+02,6.492999e+03
6.200037e+02,6.492157e+03
6.228964e+02,6.482325e+03
6.257891e+02,6.484951e+03
6.286818e+02,6.478033e+03
6.315745e+02,6.462958e+03
6.344672e+02,6.442827e+03
6.373599e+02,6.431492e+03
6.402526e+02,6.435059e+03
6.431453e+02,6.427153e+03
6.460380e+02,6.422200e+03
6.489307e+02,6.440542e+03
6.518234e+02,6.432462e+03
6.547161e+02,6.398604e+03
6.576088e+02,6.381506e+03
6.605015e+02,6.386962e+03
6.633942e+02,6.357549e+03
6.662869e+02,6.389227e+03
6.691796e+02,6.361544e+03
6.720723e+02,6.344930e+03
6.749650e+02,6.325979e+03
6.778577e+02,6.325540e+03
6.807504e+02,6.338292e+03
6.836431e+02,6.325106e+03
6.865358e+02,6.310065e+03
6.894285e+02,6.281755e+03
6.923212e+02,6.300992e+03
6.952139e+02,6.276845e+03
6.981066e+02,6.270712e+03
7.009993e+02,6.276682e+03
7.038920e+02,6.271297e+03
7.067847e+02,6.253724e+03
7.096774e+02,6.220308e+03
7.125701e+02,6.219610e+03
7.154628e+02,6.235943e+03
7.183555e+02,6.201753e+03
7.212482e+02,6.193660e+03
7.241409e+02,6.197491e+03
7.270336e+02,6.172655e+03
7.299263e+02,6.181706e+03
7.328190e+02,6.149468e+03
7.357117e+02,6.117088e+03
7.386044e+02,6.124555e+03
7.414971e+02,6.140601e+03
7.443898e+02,6.112189e+03
7.472825e+02,6.117847e+03
7.501752e+02,6.076983e+03
7.530679e+02,6.078704e+03
7.559606e+02,6.085175e+03
7.588533e+02,6.072050e+03
7.617460e+02,6.065979e+03
7.646387e+02,6.049347e+03
7.675314e+02,6.043056e+03
7.704241e+02,6.024280e+03
7.733168e+02,6.016641e+03
7.762095e+02,6.026889e+03
7.791022e+02,6.025911e+03
7.819949e+02,5.992404e+03
7.848876e+02,5.972156e+03
7.877803e+02,5.956741e+03
7.906730e+02,5.959741e+03
7.935657e+02,5.947619e+03
7.964584e+02,5.927736e+03
7.993511e+02,5.941525e+03
8.022438e+02,5.927378e+03
8.051365e+02,5.905430e+03
8.080292e+02,5.911984e+03
8.109219e+02,5.916204e+03
8.138146e+02,5.887071e+03
8.167073e+02,5.864404e+03
8.196000e+02,5.874945e+03
8.224927e+02,5.863806e+03
8.253854e+02,5.857360e+03
8.282781e+02,5.869369e+03
8.311708e+02,5.835372e+03
8.340635e+02,5.836879e+03
8.369562e+02,5.819045e+03
8.398489e+02,5.833967e+03
8.427416e+02,5.819375e+03
8.456343e+02,5.806349e+03
8.485270e+02,5.794869e+03
8.514197e+02,5.775984e+03
8.543124e+02,5.777002e+03
8.572051e+02,5.766950e+03
8.600978e+02,5.756243e+03
8.629905e+02,5.749560e+03
8.658832e+02,5.733071e+03
8.687759e+02,5.706799e+03
8.716686e+02,5.711013e+03
8.745613e+02,5.719647e+03
8.774540e+02,5.701147e+03
8.803467e+02,5.682241e+03
8.832394e+02,5.681621e+03
8.861321e+02,5.671093e+03
8.890248e+02,5.659921e+03
8.919175e+02,5.669467e+03
8.948102e+02,5.627077e+03
8.977029e+02,5.613048e+03
9.005956e+02,5.634237e+03
9.034883e+02,5.589154e+03
9.063810e+02,5.588200e+03
9.092737e+02,5.571892e+03
9.121664e+02,5.563441e+03
9.150591e+02,5.553967e+03
9.179518e+02,5.557729e+03
9.208445e+02,5.502891e+03
9.237372e+02,5.516924e+03
9.266299e+02,5.509917e+03
9.295226e+02,5.500825e+03
9.324153e+02,5.478587e+03
9.353080e+02,5.508859e+03
9.382007e+02,5.461927e+03
9.410934e+02,5.444175e+03
9.439861e+02,5.421621e+03
9.468788e+02,5.434632e+03
9.497715e+02,5.444154e+03
9.526642e+02,5.417014e+03
9.555569e+02,5.405683e+03
9.584496e+02,5.406185e+03
9.613423e+02,5.375383e+03
9.642350e+02,5.363765e+03
9.671277e+02,5.364313e+03
9.700204e+02,5.343187e+03
9.729131e+02,5.338238e+03
9.758058e+02,5.309520e+03
9.786985e+02,5.333339e+03
9.815912e+02,5.321687e+03
9.844839e+02,5.302168e+03
9.873766e+02,5.281836e+03
9.902693e+02,5.286579e+03
9.931620e+02,5.315704e+03
9.960547e+02,5.280702e+03
9.989474e+02,5.262268e+03
1.001840e+03,5.237938e+03
1.004733e+03,5.251537e+03
1.007626e+03,5.237708e+03
1.010518e+03,5.225694e+03
1.013411e+03,5.194234e+03
1.016304e+03,5.191356e+03
1.019196e+03,5.192478e+03
1.022089e+03,5.212331e+03
1.024982e+03,5.187129e+03
1.027875e+03,5.191839e+03
1.030767e+03,5.159823e+03
1.033660e+03,5.153411e+03
1.036552e+03,5.156366e+03
1.039445e+03,5.148956e+03
1.042338e+03,5.126280e+03
1.045231e+03,5.136688e+03
1.048123e+03,5.130540e+03
1.051016e+03,5.125239e+03
1.053909e+03,5.125960e+03
1.056802e+03,5.124114e+03
1.059694e+03,5.089744e+03
1.062587e+03,5.085539e+03
1.065479e+03,5.067656e+03
1.068372e+03,5.067569e+03
1.071265e+03,5.065928e+03
1.074158e+03,5.062681e+03
1.077050e+03,5.026371e+03
1.079943e+03,5.043478e+03
1.082836e+03,5.042989e+03
1.085729e+03,5.019147e+03
1.088621e+03,5.040399e+03
1.091514e+03,5.077981e+03
1.094406e+03,5.038639e+03
1.097299e+03,5.018296e+03
1.100192e+03,5.025693e+03
1.103085e+03,4.994710e+03
1.105977e+03,4.961822e+03
1.108870e+03,4.968394e+03
1.111763e+03,4.950249e+03
1.114656e+03,4.958712e+03
1.117548e+03,4.982712e+03
1.120441e+03,4.970361e+03
1.123334e+03,4.956933e+03
1.126226e+03,4.935370e+03
1.129119e+03,4.929702e+03
1.132012e+03,4.928677e+03
1.134904e+03,4.910292e+03
1.137797e+03,4.859530e+03
1.140690e+03,4.874960e+03
1.143583e+03,4.877734e+03
1.146475e+03,4.887625e+03
1.149368e+03,4.865748e+03
1.152261e+03,4.877476e+03
1.155153e+03,4.835812e+03
1.158046e+03,4.817872e+03
1.160939e+03,4.834412e+03
1.163831e+03,4.822825e+03
1.166724e+03,4.793336e+03
1.169617e+03,4.802689e+03
1.172510e+03,4.801070e+03
1.175402e+03,4.772595e+03
1.178295e+03,4.767231e+03
1.181188e+03,4.787166e+03
1.184080e+03,4.754174e+03
1.186973e+03,4.752581e+03
1.189866e+03,4.747221e+03
1.192758e+03,4.746094e+03
1.195651e+03,4.747328e+03
1.198544e+03,4.738685e+03
1.201437e+03,4.712225e+03
1.204329e+03,4.731906e+03
1.207222e+03,4.701337e+03
1.210115e+03,4.717131e+03
1.213007e+03,4.720092e+03
1.215900e+03,4.692615e+03
1.218793e+03,4.691783e+03
1.221685e+03,4.684510e+03
1.224578e+03,4.691625e+03
1.227471e+03,4.699587e+03
1.230364e+03,4.697552e+03
1.233256e+03,4.688109e+03
1.236149e+03,4.686647e+03
1.239042e+03,4.667603e+03
1.241934e+03,4.681973e+03
1.244827e+03,4.656839e+03
1.247720e+03,4.651362e+03
1.250612e+03,4.649567e+03
1.253505e+03,4.646898e+03
1.256398e+03,4.632677e+03
1.259291e+03,4.638963e+03
1.262183e+03,4.624457e+03
1.265076e+03,4.628961e+03
1.267969e+03,4.614295e+03
1.270861e+03,4.633839e+03
1.273754e+03,4.636339e+03
1.276647e+03,4.646247e+03
1.279539e+03,4.598505e+03
1.282432e+03,4.587900e+03
1.285325e+03,4.606937e+03
1.288218e+03,4.605301e+03
1.291110e+03,4.602288e+03
1.294003e+03,4.592417e+03
1.296896e+03,4.579108e+03
1.299788e+03,4.562200e+03
1.302681e+03,4.574969e+03
1.305574e+03,4.565779e+03
1.308466e+03,4.573798e+03
1.311359e+03,4.541688e+03
1.314252e+03,4.533587e+03
1.317145e+03,4.536308e+03
1.320037e+03,4.539925e+03
1.322930e+03,4.545255e+03
1.325823e+03,4.523604e+03
1.328715e+03,4.524809e+03
1.331608e+03,4.520951e+03
1.334501e+03,4.541393e+03
1.337393e+03,4.559289e+03
1.340286e+03,4.515850e+03
1.343179e+03,4.514537e+03
1.346072e+03,4.500984e+03
1.348964e+03,4.496394e+03
1.351857e+03,4.486508e+03
1.354750e+03,4.505286e+03
1.357642e+03,4.502056e+03
1.360535e+03,4.486775e+03
1.363428e+03,4.489276e+03
1.366320e+03,4.487115e+03
1.369213e+03,4.498337e+03
1.372106e+03,4.460919e+03
1.374999e+03,4.483224e+03
1.377891e+03,4.502741e+03
1.380784e+03,4.483691e+03
1.383677e+03,4.498766e+03
1.386569e+03,4.493468e+03
1.389462e+03,4.454560e+03
1.392355e+03,4.454408e+03
1.395247e+03,4.447458e+03
1.398140e+03,4.446956e+03
1.401033e+03,4.443926e+03
1.403926e+03,4.433246e+03
1.406818e+03,4.425511e+03
1.409711e+03,4.421904e+03
1.412604e+03,4.436782e+03
1.415496e+03,4.430487e+03
1.418389e+03,4.413439e+03
1.421282e+03,4.406516e+03
1.424174e+03,4.414592e+03
1.427067e+03,4.400331e+03
1.429960e+03,4.413907e+03
1.432853e+03,4.403354e+03
1.435745e+03,4.397396e+03
1.438638e+03,4.382581e+03
1.441531e+03,4.382561e+03
1.444423e+03,4.373560e+03
1.447316e+03,4.363862e+03
1.450209e+03,4.351438e+03
1.453101e+03,4.356093e+03
1.455994e+03,4.365635e+03
1.458887e+03,4.368897e+03
1.461780e+03,4.364392e+03
1.464672e+03,4.355267e+03
1.467565e+03,4.343076e+03
1.470458e+03,4.362806e+03
1.473350e+03,4.345762e+03
1.476243e+03,4.338726e+03
1.479136e+03,4.357115e+03
1.482028e+03,4.339946e+03
1.484921e+03,4.322179e+03
1.487814e+03,4.328244e+03
1.490707e+03,4.309156e+03
1.493599e+03,4.316257e+03
1.496492e+03,4.309090e+03
1.499385e+03,4.305630e+03
1.502277e+03,4.304707e+03
1.505170e+03,4.305168e+03
1.508063e+03,4.300568e+03
1.510955e+03,4.300071e+03
1.513848e+03,4.268188e+03
1.516741e+03,4.286254e+03
1.519634e+03,4.281535e+03
1.522526e+03,4.282651e+03
1.525419e+03,4.275597e+03
1.528312e+03,4.259249e+03
1.531204e+03,4.263842e+03
1.534097e+03,4.262469e+03
1.536990e+03,4.261660e+03
1.539882e+03,4.257115e+03
1.542775e+03,4.247568e+03
1.545668e+03,4.232862e+03
1.548561e+03,4.234844e+03
1.551453e+03,4.227936e+03
1.554346e+03,4.241268e+03
1.557239e+03,4.236307e+03
1.560131e+03,4.237950e+03
1.563024e+03,4.211846e+03
1.565917e+03,4.229488e+03
1.568809e+03,4.227396e+03
1.571702e+03,4.222029e+03
1.574595e+03,4.203846e+03
1.577488e+03,4.217147e+03
1.580380e+03,4.222540e+03
1.583273e+03,4.206729e+03
1.586166e+03,4.191040e+03
1.589058e+03,4.182609e+03
1.591951e+03,4.189797e+03
1.594844e+03,4.191820e+03
1.597736e+03,4.173365e+03
1.600629e+03,4.183381e+03
1.603522e+03,4.198967e+03
1.606415e+03,4.163071e+03
1.609307e+03,4.155860e+03
1.612200e+03,4.136498e+03
1.615093e+03,4.162567e+03
1.617985e+03,4.148237e+03
1.620878e+03,4.162212e+03
1.623771e+03,4.138802e+03
1.626663e+03,4.167324e+03
1.629556e+03,4.116805e+03
1.632449e+03,4.123172e+03
1.635342e+03,4.144890e+03
1.638234e+03,4.118916e+03
1.641127e+03,4.126068e+03
1.644020e+03,4.112280e+03
1.646912e+03,4.100658e+03
1.649805e+03,4.092273e+03
1.652698e+03,4.090854e+03
1.655590e+03,4.089262e+03
1.658483e+03,4.102262e+03
1.661376e+03,4.090836e+03
1.664269e+03,4.083180e+03
1.667161e+03,4.084735e+03
1.670054e+03,4.057497e+03
1.672947e+03,4.052856e+03
1.675839e+03,4.049356e+03
1.678732e+03,4.037785e+03
1.681625e+03,4.038297e+03
1.684517e+03,4.049468e+03
1.687410e+03,4.027804e+03
1.690303e+03,4.048275e+03
1.693196e+03,4.024783e+03
1.696088e+03,4.008250e+03
1.698981e+03,4.025845e+03
1.701874e+03,4.007985e+03
1.704766e+03,4.012426e+03
1.707659e+03,4.002945e+03
1.710552e+03,4.002988e+03
1.713444e+03,3.991808e+03
1.716337e+03,3.972386e+03
1.719230e+03,3.986160e+03
1.722123e+03,3.982216e+03
1.725015e+03,3.940981e+03
1.727908e+03,3.958335e+03
1.730801e+03,3.957200e+03
1.733693e+03,3.952299e+03
1.736586e+03,3.954969e+03
1.739479e+03,3.948535e+03
1.742371e+03,3.930915e+03
1.745264e+03,3.928656e+03
1.748157e+03,3.916435e+03
1.751050e+03,3.917262e+03
1.753942e+03,3.909866e+03
1.756835e+03,3.915738e+03
1.759728e+03,3.881741e+03
1.762620e+03,3.889624e+03
1.765513e+03,3.896782e+03
1.768406e+03,3.887645e+03
1.771298e+03,3.887088e+03
1.774191e+03,3.884133e+03
1.777084e+03,3.880073e+03
1.779977e+03,3.852823e+03
1.782869e+03,3.872707e+03
1.785762e+03,3.840095e+03
1.788655e+03,3.863111e+03
1.791547e+03,3.830472e+03
1.794440e+03,3.833495e+03
1.797333e+03,3.831736e+03
1.800225e+03,3.814990e+03
1.803118e+03,3.795867e+03
1.806011e+03,3.829268e+03
1.808904e+03,3.817115e+03
1.811796e+03,3.825390e+03
1.814689e+03,3.807658e+03
1.817582e+03,3.785388e+03
1.820474e+03,3.797263e+03
1.823367e+03,3.776503e+03
1.826260e+03,3.774857e+03
1.829152e+03,3.759442e+03
1.832045e+03,3.777117e+03
1.834938e+03,3.756779e+03
1.837831e+03,3.741792e+03
1.840723e+03,3.733637e+03
1.843616e+03,3.751065e+03
1.846509e+03,3.733694e+03
1.849401e+03,3.726843e+03
1.852294e+03,3.701765e+03
1.855187e+03,3.713424e+03
1.858079e+03,3.715231e+03
1.860972e+03,3.705817e+03
1.863865e+03,3.709768e+03
1.866758e+03,3.697872e+03
1.869650e+03,3.677951e+03
1.872543e+03,3.667964e+03
1.875436e+03,3.690227e+03
1.878328e+03,3.660742e+03
1.881221e+03,3.653684e+03
1.884114e+03,3.633231e+03
1.887006e+03,3.642954e+03
1.889899e+03,3.629940e+03
1.892792e+03,3.636308e+03
1.895685e+03,3.602621e+03
1.898577e+03,3.593812e+03
1.901470e+03,3.616162e+03
1.904363e+03,3.590871e+03
1.907255e+03,3.569582e+03
1.910148e+03,3.604829e+03
1.913041e+03,3.574129e+03
1.915933e+03,3.571506e+03
1.918826e+03,3.553332e+03
1.921719e+03,3.575431e+03
1.924612e+03,3.546395e+03
1.927504e+03,3.542661e+03
1.930397e+03,3.524732e+03
1.933290e+03,3.521052e+03
1.936182e+03,3.520106e+03
1.939075e+03,3.528261e+03
1.941968e+03,3.506907e+03
1.944860e+03,3.491713e+03
1.947753e+03,3.499559e+03
1.950646e+03,3.516125e+03
1.953539e+03,3.465815e+03
1.956431e+03,3.493302e+03
1.959324e+03,3.479206e+03
1.962217e+03,3.477451e+03
1.965109e+03,3.449801e+03
1.968002e+03,3.457382e+03
1.970895e+03,3.429038e+03
1.973787e+03,3.425480e+03
1.976680e+03,3.448015e+03
1.979573e+03,3.426638e+03
1.982466e+03,3.447279e+03
1.985358e+03,3.404982e+03
1.988251e+03,3.401494e+03
1.991144e+03,3.375367e+03
1.994036e+03,3.367210e+03
1.996929e+03,3.372279e+03
1.999822e+03,3.409967e+03
2.002714e+03,3.370039e+03
2.005607e+03,3.365426e+03
2.008500e+03,3.363472e+03
2.011393e+03,3.358887e+03
2.014285e+03,3.352984e+03
2.017178e+03,3.350177e+03
2.020071e+03,3.328193e+03
2.022963e+03,3.305878e+03
2.025856e+03,3.301295e+03
2.028749e+03,3.280927e+03
2.031641e+03,3.312532e+03
2.034534e+03,3.287638e+03
2.037427e+03,3.279812e+03
2.040320e+03,3.268822e+03
2.043212e+03,3.242172e+03
2.046105e+03,3.258650e+03
2.048998e+03,3.257197e+03
2.051890e+03,3.243075e+03
2.054783e+03,3.244085e+03
2.057676e+03,3.221008e+03
2.060568e+03,3.211015e+03
2.063461e+03,3.219515e+03
2.066354e+03,3.190699e+03
2.069247e+03,3.201835e+03
2.072139e+03,3.169494e+03
2.075032e+03,3.187556e+03
2.077925e+03,3.182101e+03
2.080817e+03,3.175618e+03
2.083710e+03,3.153590e+03
2.086603e+03,3.126709e+03
2.089496e+03,3.135771e+03
2.092388e+03,3.124250e+03
2.095281e+03,3.156676e+03
2.098174e+03,3.133496e+03
2.101066e+03,3.094329e+03
2.103959e+03,3.090750e+03
2.106852e+03,3.092379e+03
2.109744e+03,3.113047e+03
2.112637e+03,3.080735e+03
2.115530e+03,3.063056e+03
2.118422e+03,3.053602e+03
2.121315e+03,3.055324e+03
2.124208e+03,3.051828e+03
2.127101e+03,3.013957e+03
2.129993e+03,3.004805e+03
2.132886e+03,3.019784e+03
2.135779e+03,2.991828e+03
2.138671e+03,3.008360e+03
2.141564e+03,2.983956e+03
2.144457e+03,2.995485e+03
2.147350e+03,2.958886e+03
2.150242e+03,2.964728e+03
2.153135e+03,2.976049e+03
2.156028e+03,2.977653e+03
2.158920e+03,2.944547e+03
2.161813e+03,2.955895e+03
2.164706e+03,2.936566e+03
2.167598e+03,2.920976e+03
2.170491e+03,2.904773e+03
2.173384e+03,2.913178e+03
2.176277e+03,2.910125e+03
2.179169e+03,2.911296e+03
2.182062e+03,2.887058e+03
2.184955e+03,2.891281e+03
2.187847e+03,2.893170e+03
2.190740e+03,2.887261e+03
2.193633e+03,2.857315e+03
2.196525e+03,2.843480e+03
2.199418e+03,2.887559e+03
2.202311e+03,2.861598e+03
2.205204e+03,2.847469e+03
2.208096e+03,2.806968e+03
2.210989e+03,2.831332e+03
2.213882e+03,2.803006e+03
2.216774e+03,2.807673e+03
2.219667e+03,2.820266e+03
2.222560e+03,2.796791e+03
2.225452e+03,2.791379e+03
2.228345e+03,2.766915e+03
2.231238e+03,2.778163e+03
2.234131e+03,2.764424e+03
2.237023e+03,2.760995e+03
2.239916e+03,2.766942e+03
2.242809e+03,2.729463e+03
2.245701e+03,2.734121e+03
2.248594e+03,2.733734e+03
2.251487e+03,2.719431e+03
2.254379e+03,2.727307e+03
2.257272e+03,2.692503e+03
2.260165e+03,2.697203e+03
2.263058e+03,2.699927e+03
2.265950e+03,2.677344e+03
2.268843e+03,2.717027e+03
2.271736e+03,2.658087e+03
2.274628e+03,2.665893e+03
2.277521e+03,2.670741e+03
2.280414e+03,2.656362e+03
2.283306e+03,2.652563e+03
2.286199e+03,2.620509e+03
2.289092e+03,2.614468e+03
2.291985e+03,2.616184e+03
2.294877e+03,2.613183e+03
2.297770e+03,2.607638e+03
2.300663e+03,2.615437e+03
2.303555e+03,2.577062e+03
2.306448e+03,2.565073e+03
2.309341e+03,2.568788e+03
2.312233e+03,2.572196e+03
2.315126e+03,2.573743e+03
2.318019e+03,2.571050e+03
2.320912e+03,2.542451e+03
2.323804e+03,2.546286e+03
2.326697e+03,2.554177e+03
2.329590e+03,2.552826e+03
2.332482e+03,2.526656e+03
2.335375e+03,2.510285e+03
2.338268e+03,2.512436e+03
2.341160e+03,2.501276e+03
2.344053e+03,2.508660e+03
2.346946e+03,2.498943e+03
2.349839e+03,2.484332e+03
2.352731e+03,2.466756e+03
2.355624e+03,2.478092e+03
2.358517e+03,2.482480e+03
2.361409e+03,2.482765e+03
2.364302e+03,2.455410e+03
2.367195e+03,2.424937e+03
2.370087e+03,2.439484e+03
2.372980e+03,2.437179e+03
2.375873e+03,2.432337e+03
2.378766e+03,2.441252e+03
2.381658e+03,2.414799e+03
2.384551e+03,2.410732e+03
2.387444e+03,2.415467e+03
2.390336e+03,2.395457e+03
2.393229e+03,2.387775e+03
2.396122e+03,2.386130e+03
2.399014e+03,2.367585e+03
2.401907e+03,2.369180e+03
2.404800e+03,2.380351e+03
2.407693e+03,2.391618e+03
2.410585e+03,2.364314e+03
2.413478e+03,2.359176e+03
2.416371e+03,2.337910e+03
2.419263e+03,2.366080e+03
2.422156e+03,2.352632e+03
2.425049e+03,2.337381e+03
2.427941e+03,2.304301e+03
2.430834e+03,2.305656e+03
2.433727e+03,2.304561e+03
2.436620e+03,2.311686e+03
2.439512e+03,2.312315e+03
2.442405e+03,2.296043e+03
2.445298e+03,2.298249e+03
2.448190e+03,2.284190e+03
2.451083e+03,2.293138e+03
2.453976e+03,2.283976e+03
2.456868e+03,2.272175e+03
2.459761e+03,2.282515e+03
2.462654e+03,2.263290e+03
2.465547e+03,2.228638e+03
2.468439e+03,2.245466e+03
2.471332e+03,2.230959e+03
2.474225e+03,2.213602e+03
2.477117e+03,2.227336e+03
2.480010e+03,2.222475e+03
2.482903e+03,2.221558e+03
2.485795e+03,2.209959e+03
2.488688e+03,2.212332e+03
2.491581e+03,2.184286e+03
2.494474e+03,2.195563e+03
2.497366e+03,2.210621e+03
2.500259e+03,2.171299e+03
2.503152e+03,2.192041e+03
2.506044e+03,2.166371e+03
2.508937e+03,2.166918e+03
2.511830e+03,2.180829e+03
2.514722e+03,2.158071e+03
2.517615e+03,2.171687e+03
2.520508e+03,2.160289e+03
2.523401e+03,2.154090e+03
2.526293e+03,2.143842e+03
2.529186e+03,2.147302e+03
2.532079e+03,2.125901e+03
2.534971e+03,2.118628e+03
2.537864e+03,2.101436e+03
2.540757e+03,2.107646e+03
2.543649e+03,2.112770e+03
2.546542e+03,2.112502e+03
2.549435e+03,2.099149e+03
2.552328e+03,2.095157e+03
2.555220e+03,2.096882e+03
2.558113e+03,2.075829e+03
2.561006e+03,2.114280e+03
2.563898e+03,2.081278e+03
2.566791e+03,2.074802e+03
2.569684e+03,2.091331e+03
2.572576e+03,2.091681e+03
2.575469e+03,2.036082e+03
2.578362e+03,2.052586e+03
2.581255e+03,2.050247e+03
2.584147e+03,2.044897e+03
2.587040e+03,2.037623e+03
2.589933e+03,2.051752e+03
2.592825e+03,2.026928e+03
2.595718e+03,2.023564e+03
2.598611e+03,2.032541e+03
2.601503e+03,2.031281e+03
2.604396e+03,2.010095e+03
2.607289e+03,2.014234e+03
2.610182e+03,1.999677e+03
2.613074e+03,1.992299e+03
2.615967e+03,1.988099e+03
2.618860e+03,1.995567e+03
2.621752e+03,1.979127e+03
2.624645e+03,1.991519e+03
2.627538e+03,1.974881e+03
2.630430e+03,1.979410e+03
2.633323e+03,1.945012e+03
2.636216e+03,1.953999e+03
2.639109e+03,1.948858e+03
2.642001e+03,1.957954e+03
2.644894e+03,1.930747e+03
2.647787e+03,1.948280e+03
2.650679e+03,1.934471e+03
2.653572e+03,1.941620e+03
2.656465e+03,1.914953e+03
2.659357e+03,1.927209e+03
2.662250e+03,1.924884e+03
2.665143e+03,1.929337e+03
2.668036e+03,1.901484e+03
2.670928e+03,1.900753e+03
2.673821e+03,1.911170e+03
2.676714e+03,1.907536e+03
2.679606e+03,1.896893e+03
2.682499e+03,1.891905e+03
2.685392e+03,1.889272e+03
2.688284e+03,1.871030e+03
2.691177e+03,1.890363e+03
2.694070e+03,1.882099e+03
2.696963e+03,1.869597e+03
2.699855e+03,1.870935e+03
2.702748e+03,1.862293e+03
2.705641e+03,1.870865e+03
2.708533e+03,1.865992e+03
2.711426e+03,1.835596e+03
2.714319e+03,1.853610e+03
2.717211e+03,1.844567e+03
2.720104e+03,1.828435e+03
2.722997e+03,1.852027e+03
2.725890e+03,1.798031e+03
2.728782e+03,1.823333e+03
2.731675e+03,1.826392e+03
2.734568e+03,1.826591e+03
2.737460e+03,1.818655e+03
2.740353e+03,1.812736e+03
2.743246e+03,1.792934e+03
2.746138e+03,1.806506e+03
2.749031e+03,1.809561e+03
2.751924e+03,1.772275e+03
2.754817e+03,1.779041e+03
2.757709e+03,1.786458e+03
2.760602e+03,1.774303e+03
2.763495e+03,1.763565e+03
2.766387e+03,1.779548e+03
2.769280e+03,1.773837e+03
2.772173e+03,1.757766e+03
2.775065e+03,1.780900e+03
2.777958e+03,1.745668e+03
2.780851e+03,1.761605e+03
2.783744e+03,1.761850e+03
2.786636e+03,1.748584e+03
2.789529e+03,1.731449e+03
2.792422e+03,1.752426e+03
2.795314e+03,1.724413e+03
2.798207e+03,1.741723e+03
2.801100e+03,1.725523e+03
2.803992e+03,1.722699e+03
2.806885e+03,1.724302e+03
2.809778e+03,1.734338e+03
2.812671e+03,1.722017e+03
2.815563e+03,1.723258e+03
2.818456e+03,1.720758e+03
2.821349e+03,1.706285e+03
2.824241e+03,1.705949e+03
2.827134e+03,1.695205e+03
2.830027e+03,1.679509e+03
2.832919e+03,1.712556e+03
2.835812e+03,1.697130e+03
2.838705e+03,1.716156e+03
2.841598e+03,1.699089e+03
2.844490e+03,1.689517e+03
2.847383e+03,1.719540e+03
2.850276e+03,1.703711e+03
2.853168e+03,1.690178e+03
2.856061e+03,1.723400e+03
2.858954e+03,1.725052e+03
2.861846e+03,1.687355e+03
2.864739e+03,1.665714e+03
2.867632e+03,1.702938e+03
2.870525e+03,1.681602e+03
2.873417e+03,1.717622e+03
2.876310e+03,1.689631e+03
2.879203e+03,1.666864e+03
2.882095e+03,1.666931e+03
2.884988e+03,1.674681e+03
2.887881e+03,1.683403e+03
2.890773e+03,1.690117e+03
2.893666e+03,1.639986e+03
2.896559e+03,1.656426e+03
2.899452e+03,1.675231e+03
2.902344e+03,1.657851e+03
2.905237e+03,1.656350e+03
2.908130e+03,1.661671e+03
2.911022e+03,1.634196e+03
2.913915e+03,1.634189e+03
2.916808e+03,1.641702e+03
2.919700e+03,1.625911e+03
2.922593e+03,1.611212e+03
2.925486e+03,1.636610e+03
2.928379e+03,1.582842e+03
2.931271e+03,1.600732e+03
2.934164e+03,1.620794e+03
2.937057e+03,1.613909e+03
2.939949e+03,1.579316e+03
2.942842e+03,1.582123e+03
2.945735e+03,1.602577e+03
2.948627e+03,1.598175e+03
2.951520e+03,1.612699e+03
2.954413e+03,1.581289e+03
2.957306e+03,1.620141e+03
2.960198e+03,1.604559e+03
2.963091e+03,1.568041e+03
2.965984e+03,1.565208e+03
2.968876e+03,1.555226e+03
2.971769e+03,1.527280e+03
2.974662e+03,1.552891e+03
2.977554e+03,1.561823e+03
2.980447e+03,1.516808e+03
2.983340e+03,1.555636e+03
2.986233e+03,1.526949e+03
2.989125e+03,1.575623e+03
2.992018e+03,1.529652e+03
2.994911e+03,1.527549e+03
2.997803e+03,1.529285e+03
3.000696e+03,1.515528e+03
3.003589e+03,1.522668e+03
3.006481e+03,1.524786e+03
3.009374e+03,1.497373e+03
3.012267e+03,1.543914e+03
3.015160e+03,1.501775e+03
3.018052e+03,1.506814e+03
3.020945e+03,1.527171e+03
3.023838e+03,1.474677e+03
3.026730e+03,1.472857e+03
3.029623e+03,1.493953e+03
3.032516e+03,1.506673e+03
3.035408e+03,1.483827e+03
3.038301e+03,1.496346e+03
3.041194e+03,1.513701e+03
3.044087e+03,1.483688e+03
3.046979e+03,1.506559e+03
3.049872e+03,1.475600e+03
3.052765e+03,1.480107e+03
3.055657e+03,1.441377e+03
3.058550e+03,1.477554e+03
3.061443e+03,1.495344e+03
3.064335e+03,1.432808e+03
3.067228e+03,1.466186e+03
3.070121e+03,1.478412e+03
3.073014e+03,1.469310e+03
3.075906e+03,1.463030e+03
3.078799e+03,1.446726e+03
3.081692e+03,1.487189e+03
3.084584e+03,1.496643e+03
3.087477e+03,1.436939e+03
3.090370e+03,1.453496e+03
3.093262e+03,1.429486e+03
3.096155e+03,1.486225e+03
3.099048e+03,1.443312e+03
3.101941e+03,1.473054e+03
3.104833e+03,1.466101e+03
3.107726e+03,1.465060e+03
3.110619e+03,1.433873e+03
3.113511e+03,1.419923e+03
3.116404e+03,1.441999e+03
3.119297e+03,1.430300e+03
3.122189e+03,1.464959e+03
3.125082e+03,1.473736e+03
3.127975e+03,1.453167e+03
3.130868e+03,1.459794e+03
3.133760e+03,1.426892e+03
3.136653e+03,1.412646e+03
3.139546e+03,1.465864e+03
3.142438e+03,1.456992e+03
3.145331e+03,1.437616e+03
3.148224e+03,1.407757e+03
3.151116e+03,1.457304e+03
3.154009e+03,1.438827e+03
3.156902e+03,1.444780e+03
3.159795e+03,1.437645e+03
3.162687e+03,1.435322e+03
3.165580e+03,1.506081e+03
3.168473e+03,1.434952e+03
3.171365e+03,1.428279e+03
3.174258e+03,1.419601e+03
3.177151e+03,1.433772e+03
3.180043e+03,1.430988e+03
3.182936e+03,1.452839e+03
3.185829e+03,1.438776e+03
3.188722e+03,1.412674e+03
3.191614e+03,1.487469e+03
3.194507e+03,1.408466e+03
3.197400e+03,1.394781e+03
3.200292e+03,1.491998e+03
3.203185e+03,0.000000e+00
3.206078e+03,0.000000e+00
3.208970e+03,0.000000e+00
3.211863e+03,0.000000e+00
3.214756e+03,0.000000e+00
3.217649e+03,0.000000e+00
3.220541e+03,0.000000e+00
3.223434e+03,0.000000e+00
3.226327e+03,0.000000e+00
3.229219e+03,0.000000e+00
3.232112e+03,0.000000e+00
3.235005e+03,0.000000e+00
3.237897e+03,0.000000e+00
3.240790e+03,0.000000e+00
3.243683e+03,0.000000e+00
3.246576e+03,0.000000e+00
3.249468e+03,0.000000e+00
3.252361e+03,0.000000e+00
3.255254e+03,0.000000e+00
3.258146e+03,0.000000e+00
3.261039e+03,0.000000e+00
3.263932e+03,0.000000e+00
3.266824e+03,0.000000e+00
3.269717e+03,0.000000e+00
3.272610e+03,0.000000e+00
3.275503e+03,0.000000e+00
3.278395e+03,0.000000e+00
3.281288e+03,0.000000e+00
3.284181e+03,0.000000e+00
3.287073e+03,0.000000e+00
3.289966e+03,0.000000e+00
3.292859e+03,0.000000e+00
3.295751e+03,0.000000e+00
3.298644e+03,0.000000e+00
3.301537e+03,0.000000e+00
3.304430e+03,0.000000e+00
3.307322e+03,0.000000e+00
3.310215e+03,0.000000e+00
3.313108e+03,0.000000e+00
3.316000e+03,0.000000e+00
3.318893e+03,0.000000e+00
3.321786e+03,0.000000e+00
3.324678e+03,0.000000e+00
3.327571e+03,0.000000e+00
3.330464e+03,0.000000e+00
3.333357e+03,0.000000e+00
3.336249e+03,0.000000e+00
3.339142e+03,0.000000e+00
3.342035e+03,0.000000e+00
3.344927e+03,0.000000e+00
3.347820e+03,0.000000e+00
3.350713e+03,0.000000e+00
3.353605e+03,0.000000e+00
3.356498e+03,0.000000e+00
3.359391e+03,0.000000e+00
3.362284e+03,0.000000e+00
3.365176e+03,0.000000e+00
3.368069e+03,0.000000e+00
3.370962e+03,0.000000e+00
3.373854e+03,0.000000e+00
3.376747e+03,0.000000e+00
3.379640e+03,0.000000e+00
3.382532e+03,0.000000e+00
3.385425e+03,0.000000e+00
3.388318e+03,0.000000e+00
3.391211e+03,0.000000e+00
3.394103e+03,0.000000e+00
3.396996e+03,0.000000e+00
3.399889e+03,0.000000e+00
3.402781e+03,0.000000e+00
3.405674e+03,0.000000e+00
3.408567e+03,0.000000e+00
3.411459e+03,0.000000e+00
3.414352e+03,0.000000e+00
3.417245e+03,0.000000e+00
3.420138e+03,0.000000e+00
3.423030e+03,0.000000e+00
3.425923e+03,0.000000e+00
3.428816e+03,0.000000e+00
3.431708e+03,0.000000e+00
3.434601e+03,0.000000e+00
3.437494e+03,0.000000e+00
3.440386e+03,0.000000e+00
3.443279e+03,0.000000e+00
3.446172e+03,0.000000e+00
3.449065e+03,0.000000e+00
3.451957e+03,0.000000e+00
3.454850e+03,0.000000e+00
3.457743e+03,0.000000e+00
3.460635e+03,0.000000e+00
3.463528e+03,0.000000e+00
3.466421e+03,0.000000e+00
3.469313e+03,0.000000e+00
3.472206e+03,0.000000e+00
3.475099e+03,0.000000e+00
3.477992e+03,0.000000e+00
3.480884e+03,0.000000e+00
3.483777e+03,0.000000e+00
3.486670e+03,0.000000e+00
3.489563e+03,0.000000e+00
3.492455e+03,0.000000e+00
3.495348e+03,0.000000e+00
3.498240e+03,0.000000e+00
3.500169e+03,0.000000e+00