File: RAMAN_data/20012023_r3/blue fibre9.CSV
9.931763e+01,0.000000e+00
1.022103e+02,0.000000e+00
1.051030e+02,0.000000e+00
1.079957e+02,0.000000e+00
1.108884e+02,0.000000e+00
1.137811e+02,0.000000e+00
1.166738e+02,0.000000e+00
1.195665e+02,0.000000e+00
1.224592e+02,0.000000e+00
1.253519e+02,0.000000e+00
1.282446e+02,0.000000e+00
1.311373e+02,0.000000e+00
1.340300e+02,0.000000e+00
1.369227e+02,0.000000e+00
1.398154e+02,0.000000e+00
1.427081e+02,0.000000e+00
1.456008e+02,0.000000e+00
1.484935e+02,0.000000e+00
1.513862e+02,0.000000e+00
1.542789e+02,0.000000e+00
1.571716e+02,0.000000e+00
1.600643e+02,0.000000e+00
1.629570e+02,0.000000e+00
1.658497e+02,0.000000e+00
1.687424e+02,0.000000e+00
1.716351e+02,0.000000e+00
1.745278e+02,0.000000e+00
1.774205e+02,0.000000e+00
1.803132e+02,0.000000e+00
1.832059e+02,0.000000e+00
1.860986e+02,0.000000e+00
1.889913e+02,0.000000e+00
1.918840e+02,0.000000e+00
1.947767e+02,0.000000e+00
1.976694e+02,0.000000e+00
2.005621e+02,9.887860e+03
2.034548e+02,9.953127e+03
2.063475e+02,9.944590e+03
2.092402e+02,9.976451e+03
2.121329e+02,9.986093e+03
2.150256e+02,1.002539e+04
2.179183e+02,1.008350e+04
2.208110e+02,1.013932e+04
2.237037e+02,1.014219e+04
2.265964e+02,1.014782e+04
2.294892e+02,1.018709e+04
2.323819e+02,1.027708e+04
2.352746e+02,1.031057e+04
2.381673e+02,1.033864e+04
2.410600e+02,1.034110e+04
2.439527e+02,1.037432e+04
2.468454e+02,1.045128e+04
2.497381e+02,1.051321e+04
2.526308e+02,1.057759e+04
2.555235e+02,1.055894e+04
2.584161e+02,1.057858e+04
2.613088e+02,1.063431e+04
2.642015e+02,1.066880e+04
2.670942e+02,1.070031e+04
2.699869e+02,1.077765e+04
2.728796e+02,1.076858e+04
2.757723e+02,1.082176e+04
2.786650e+02,1.089239e+04
2.815577e+02,1.094076e+04
2.844504e+02,1.097282e+04
2.873431e+02,1.095707e+04
2.902358e+02,1.093088e+04
2.931285e+02,1.093140e+04
2.960212e+02,1.096008e+04
2.989139e+02,1.100077e+04
3.018066e+02,1.101021e+04
3.046993e+02,1.104427e+04
3.075920e+02,1.102925e+04
3.104847e+02,1.107282e+04
3.133774e+02,1.109304e+04
3.162701e+02,1.110225e+04
3.191628e+02,1.112631e+04
3.220555e+02,1.115397e+04
3.249482e+02,1.120183e+04
3.278409e+02,1.122597e+04
3.307336e+02,1.126078e+04
3.336263e+02,1.123869e+04
3.365190e+02,1.124344e+04
3.394117e+02,1.131809e+04
3.423044e+02,1.128606e+04
3.451971e+02,1.135669e+04
3.480898e+02,1.131970e+04
3.509825e+02,1.137596e+04
3.538752e+02,1.137161e+04
3.567680e+02,1.139206e+04
3.596607e+02,1.144438e+04
3.625534e+02,1.146409e+04
3.654461e+02,1.147749e+04
3.683388e+02,1.150116e+04
3.712315e+02,1.152790e+04
3.741242e+02,1.156109e+04
3.770169e+02,1.161638e+04
3.799096e+02,1.163766e+04
3.828023e+02,1.161354e+04
3.856950e+02,1.160256e+04
3.885877e+02,1.165738e+04
3.914804e+02,1.166233e+04
3.943731e+02,1.168628e+04
3.972658e+02,1.168029e+04
4.001585e+02,1.170989e+04
4.030512e+02,1.174666e+04
4.059439e+02,1.175218e+04
4.088366e+02,1.176106e+04
4.117293e+02,1.175511e+04
4.146220e+02,1.177517e+04
4.175147e+02,1.178356e+04
4.204074e+02,1.179755e+04
4.233001e+02,1.181164e+04
4.261928e+02,1.184376e+04
4.290855e+02,1.179698e+04
4.319782e+02,1.186325e+04
4.348709e+02,1.188239e+04
4.377636e+02,1.188338e+04
4.406563e+02,1.190316e+04
4.435490e+02,1.191662e+04
4.464417e+02,1.190209e+04
4.493344e+02,1.191686e+04
4.522271e+02,1.192428e+04
4.551198e+02,1.197166e+04
4.580125e+02,1.197430e+04
4.609052e+02,1.194263e+04
4.637979e+02,1.195494e+04
4.666906e+02,1.196829e+04
4.695833e+02,1.202072e+04
4.724760e+02,1.201061e+04
4.753687e+02,1.199026e+04
4.782614e+02,1.198683e+04
4.811541e+02,1.198877e+04
4.840468e+02,1.204846e+04
4.869395e+02,1.204899e+04
4.898322e+02,1.204022e+04
4.927249e+02,1.202315e+04
4.956176e+02,1.205201e+04
4.985103e+02,1.208624e+04
5.014030e+02,1.209674e+04
5.042957e+02,1.208855e+04
5.071884e+02,1.209685e+04
5.100811e+02,1.208594e+04
5.129738e+02,1.211661e+04
5.158665e+02,1.213845e+04
5.187592e+02,1.220062e+04
5.216519e+02,1.213926e+04
5.245446e+02,1.218984e+04
5.274373e+02,1.217847e+04
5.303300e+02,1.217719e+04
5.332227e+02,1.219079e+04
5.361154e+02,1.217317e+04
5.390081e+02,1.224417e+04
5.419008e+02,1.228938e+04
5.447935e+02,1.235606e+04
5.476862e+02,1.233433e+04
5.505789e+02,1.232859e+04
5.534716e+02,1.232342e+04
5.563643e+02,1.236181e+04
5.592570e+02,1.242338e+04
5.621497e+02,1.238208e+04
5.650424e+02,1.235519e+04
5.679351e+02,1.222473e+04
5.708278e+02,1.218473e+04
5.737205e+02,1.221908e+04
5.766132e+02,1.221676e+04
5.795059e+02,1.224013e+04
5.823986e+02,1.219281e+04
5.852913e+02,1.220395e+04
5.881840e+02,1.220453e+04
5.910767e+02,1.224069e+04
5.939694e+02,1.225681e+04
5.968621e+02,1.229279e+04
5.997548e+02,1.226712e+04
6.026475e+02,1.227196e+04
6.055402e+02,1.225649e+04
6.084329e+02,1.231731e+04
6.113256e+02,1.239413e+04
6.142183e+02,1.237329e+04
6.171110e+02,1.224004e+04
6.200037e+02,1.222114e+04
6.228964e+02,1.217341e+04
6.257891e+02,1.223631e+04
6.286818e+02,1.221106e+04
6.315745e+02,1.217383e+04
6.344672e+02,1.219100e+04
6.373599e+02,1.218210e+04
6.402526e+02,1.219710e+04
6.431453e+02,1.215125e+04
6.460380e+02,1.211701e+04
6.489307e+02,1.213675e+04
6.518234e+02,1.214312e+04
6.547161e+02,1.216444e+04
6.576088e+02,1.209811e+04
6.605015e+02,1.208086e+04
6.633942e+02,1.209522e+04
6.662869e+02,1.209635e+04
6.691796e+02,1.207223e+04
6.720723e+02,1.208675e+04
6.749650e+02,1.206757e+04
6.778577e+02,1.205579e+04
6.807504e+02,1.207013e+04
6.836431e+02,1.207260e+04
6.865358e+02,1.203749e+04
6.894285e+02,1.200353e+04
6.923212e+02,1.202029e+04
6.952139e+02,1.195254e+04
6.981066e+02,1.201243e+04
7.009993e+02,1.195777e+04
7.038920e+02,1.193760e+04
7.067847e+02,1.193759e+04
7.096774e+02,1.195025e+04
7.125701e+02,1.193909e+04
7.154628e+02,1.192992e+04
7.183555e+02,1.191221e+04
7.212482e+02,1.189057e+04
7.241409e+02,1.188558e+04
7.270336e+02,1.184846e+04
7.299263e+02,1.186712e+04
7.328190e+02,1.185670e+04
7.357117e+02,1.181628e+04
7.386044e+02,1.184046e+04
7.414971e+02,1.177739e+04
7.443898e+02,1.180157e+04
7.472825e+02,1.180437e+04
7.501752e+02,1.175606e+04
7.530679e+02,1.173676e+04
7.559606e+02,1.175927e+04
7.588533e+02,1.177522e+04
7.617460e+02,1.177118e+04
7.646387e+02,1.174542e+04
7.675314e+02,1.172899e+04
7.704241e+02,1.170984e+04
7.733168e+02,1.167788e+04
7.762095e+02,1.175739e+04
7.791022e+02,1.175297e+04
7.819949e+02,1.170305e+04
7.848876e+02,1.165989e+04
7.877803e+02,1.168596e+04
7.906730e+02,1.167633e+04
7.935657e+02,1.169552e+04
7.964584e+02,1.162388e+04
7.993511e+02,1.160716e+04
8.022438e+02,1.156583e+04
8.051365e+02,1.153952e+04
8.080292e+02,1.150195e+04
8.109219e+02,1.148664e+04
8.138146e+02,1.151583e+04
8.167073e+02,1.147956e+04
8.196000e+02,1.145946e+04
8.224927e+02,1.147081e+04
8.253854e+02,1.142817e+04
8.282781e+02,1.141533e+04
8.311708e+02,1.139982e+04
8.340635e+02,1.142273e+04
8.369562e+02,1.138671e+04
8.398489e+02,1.136690e+04
8.427416e+02,1.137022e+04
8.456343e+02,1.136666e+04
8.485270e+02,1.131494e+04
8.514197e+02,1.130529e+04
8.543124e+02,1.131823e+04
8.572051e+02,1.129994e+04
8.600978e+02,1.124825e+04
8.629905e+02,1.125184e+04
8.658832e+02,1.123997e+04
8.687759e+02,1.122886e+04
8.716686e+02,1.119772e+04
8.745613e+02,1.114810e+04
8.774540e+02,1.112938e+04
8.803467e+02,1.113604e+04
8.832394e+02,1.114069e+04
8.861321e+02,1.113923e+04
8.890248e+02,1.109009e+04
8.919175e+02,1.103945e+04
8.948102e+02,1.106198e+04
8.977029e+02,1.104416e+04
9.005956e+02,1.100564e+04
9.034883e+02,1.101314e+04
9.063810e+02,1.095466e+04
9.092737e+02,1.095034e+04
9.121664e+02,1.092604e+04
9.150591e+02,1.093907e+04
9.179518e+02,1.087613e+04
9.208445e+02,1.085126e+04
9.237372e+02,1.080807e+04
9.266299e+02,1.082390e+04
9.295226e+02,1.078112e+04
9.324153e+02,1.081783e+04
9.353080e+02,1.076446e+04
9.382007e+02,1.073025e+04
9.410934e+02,1.073660e+04
9.439861e+02,1.072266e+04
9.468788e+02,1.070026e+04
9.497715e+02,1.065854e+04
9.526642e+02,1.063594e+04
9.555569e+02,1.060754e+04
9.584496e+02,1.057482e+04
9.613423e+02,1.060288e+04
9.642350e+02,1.056372e+04
9.671277e+02,1.054605e+04
9.700204e+02,1.047648e+04
9.729131e+02,1.048344e+04
9.758058e+02,1.048490e+04
9.786985e+02,1.050048e+04
9.815912e+02,1.046238e+04
9.844839e+02,1.039150e+04
9.873766e+02,1.040694e+04
9.902693e+02,1.038260e+04
9.931620e+02,1.040406e+04
9.960547e+02,1.037530e+04
9.989474e+02,1.035173e+04
1.001840e+03,1.027320e+04
1.004733e+03,1.026225e+04
1.007626e+03,1.027712e+04
1.010518e+03,1.030925e+04
1.013411e+03,1.021060e+04
1.016304e+03,1.017795e+04
1.019196e+03,1.016463e+04
1.022089e+03,1.017684e+04
1.024982e+03,1.012976e+04
1.027875e+03,1.015525e+04
1.030767e+03,1.010279e+04
1.033660e+03,1.010976e+04
1.036552e+03,1.007454e+04
1.039445e+03,1.005733e+04
1.042338e+03,1.002726e+04
1.045231e+03,1.003981e+04
1.048123e+03,1.000749e+04
1.051016e+03,9.991284e+03
1.053909e+03,1.000499e+04
1.056802e+03,9.966630e+03
1.059694e+03,9.961244e+03
1.062587e+03,9.913170e+03
1.065479e+03,9.918291e+03
1.068372e+03,9.908502e+03
1.071265e+03,9.923778e+03
1.074158e+03,9.893769e+03
1.077050e+03,9.852994e+03
1.079943e+03,9.837015e+03
1.082836e+03,9.859181e+03
1.085729e+03,9.833011e+03
1.088621e+03,9.828226e+03
1.091514e+03,9.774153e+03
1.094406e+03,9.720563e+03
1.097299e+03,9.710782e+03
1.100192e+03,9.679163e+03
1.103085e+03,9.678757e+03
1.105977e+03,9.626616e+03
1.108870e+03,9.597994e+03
1.111763e+03,9.591931e+03
1.114656e+03,9.589813e+03
1.117548e+03,9.595259e+03
1.120441e+03,9.547515e+03
1.123334e+03,9.513393e+03
1.126226e+03,9.498457e+03
1.129119e+03,9.477150e+03
1.132012e+03,9.446951e+03
1.134904e+03,9.445059e+03
1.137797e+03,9.416350e+03
1.140690e+03,9.409166e+03
1.143583e+03,9.388290e+03
1.146475e+03,9.351154e+03
1.149368e+03,9.343554e+03
1.152261e+03,9.334381e+03
1.155153e+03,9.268457e+03
1.158046e+03,9.250958e+03
1.160939e+03,9.249604e+03
1.163831e+03,9.251309e+03
1.166724e+03,9.224569e+03
1.169617e+03,9.193198e+03
1.172510e+03,9.151413e+03
1.175402e+03,9.156146e+03
1.178295e+03,9.148267e+03
1.181188e+03,9.162149e+03
1.184080e+03,9.091112e+03
1.186973e+03,9.090029e+03
1.189866e+03,9.091246e+03
1.192758e+03,9.072857e+03
1.195651e+03,9.060514e+03
1.198544e+03,9.040629e+03
1.201437e+03,8.953293e+03
1.204329e+03,8.961552e+03
1.207222e+03,8.949415e+03
1.210115e+03,8.939063e+03
1.213007e+03,8.922717e+03
1.215900e+03,8.870294e+03
1.218793e+03,8.885229e+03
1.221685e+03,8.879584e+03
1.224578e+03,8.877072e+03
1.227471e+03,8.853557e+03
1.230364e+03,8.818379e+03
1.233256e+03,8.779976e+03
1.236149e+03,8.792716e+03
1.239042e+03,8.721577e+03
1.241934e+03,8.743221e+03
1.244827e+03,8.713629e+03
1.247720e+03,8.692362e+03
1.250612e+03,8.663807e+03
1.253505e+03,8.634398e+03
1.256398e+03,8.601703e+03
1.259291e+03,8.618521e+03
1.262183e+03,8.579393e+03
1.265076e+03,8.572675e+03
1.267969e+03,8.528677e+03
1.270861e+03,8.526995e+03
1.273754e+03,8.525413e+03
1.276647e+03,8.533793e+03
1.279539e+03,8.478072e+03
1.282432e+03,8.455791e+03
1.285325e+03,8.444009e+03
1.288218e+03,8.426576e+03
1.291110e+03,8.411726e+03
1.294003e+03,8.414129e+03
1.296896e+03,8.383049e+03
1.299788e+03,8.358707e+03
1.302681e+03,8.368269e+03
1.305574e+03,8.364131e+03
1.308466e+03,8.362148e+03
1.311359e+03,8.308800e+03
1.314252e+03,8.288040e+03
1.317145e+03,8.297345e+03
1.320037e+03,8.297200e+03
1.322930e+03,8.251142e+03
1.325823e+03,8.221022e+03
1.328715e+03,8.226137e+03
1.331608e+03,8.200856e+03
1.334501e+03,8.224657e+03
1.337393e+03,8.192185e+03
1.340286e+03,8.148867e+03
1.343179e+03,8.104337e+03
1.346072e+03,8.115441e+03
1.348964e+03,8.118971e+03
1.351857e+03,8.087125e+03
1.354750e+03,8.091117e+03
1.357642e+03,8.080930e+03
1.360535e+03,8.026896e+03
1.363428e+03,8.049342e+03
1.366320e+03,8.052907e+03
1.369213e+03,8.014671e+03
1.372106e+03,7.971185e+03
1.374999e+03,7.955006e+03
1.377891e+03,7.966462e+03
1.380784e+03,7.938397e+03
1.383677e+03,7.920366e+03
1.386569e+03,7.868067e+03
1.389462e+03,7.893340e+03
1.392355e+03,7.865367e+03
1.395247e+03,7.819750e+03
1.398140e+03,7.862612e+03
1.401033e+03,7.809079e+03
1.403926e+03,7.783897e+03
1.406818e+03,7.766750e+03
1.409711e+03,7.772540e+03
1.412604e+03,7.762991e+03
1.415496e+03,7.724782e+03
1.418389e+03,7.700577e+03
1.421282e+03,7.688977e+03
1.424174e+03,7.686403e+03
1.427067e+03,7.712076e+03
1.429960e+03,7.659785e+03
1.432853e+03,7.628865e+03
1.435745e+03,7.633778e+03
1.438638e+03,7.618942e+03
1.441531e+03,7.617459e+03
1.444423e+03,7.575531e+03
1.447316e+03,7.574159e+03
1.450209e+03,7.578342e+03
1.453101e+03,7.577729e+03
1.455994e+03,7.562841e+03
1.458887e+03,7.552312e+03
1.461780e+03,7.556031e+03
1.464672e+03,7.504233e+03
1.467565e+03,7.494075e+03
1.470458e+03,7.476042e+03
1.473350e+03,7.445249e+03
1.476243e+03,7.449388e+03
1.479136e+03,7.448991e+03
1.482028e+03,7.418366e+03
1.484921e+03,7.413405e+03
1.487814e+03,7.416277e+03
1.490707e+03,7.377236e+03
1.493599e+03,7.390634e+03
1.496492e+03,7.341825e+03
1.499385e+03,7.321385e+03
1.502277e+03,7.315298e+03
1.505170e+03,7.325345e+03
1.508063e+03,7.315804e+03
1.510955e+03,7.299907e+03
1.513848e+03,7.256710e+03
1.516741e+03,7.267198e+03
1.519634e+03,7.271025e+03
1.522526e+03,7.252334e+03
1.525419e+03,7.215150e+03
1.528312e+03,7.188017e+03
1.531204e+03,7.172398e+03
1.534097e+03,7.140499e+03
1.536990e+03,7.131611e+03
1.539882e+03,7.111478e+03
1.542775e+03,7.115773e+03
1.545668e+03,7.072007e+03
1.548561e+03,7.074497e+03
1.551453e+03,7.090997e+03
1.554346e+03,7.092998e+03
1.557239e+03,7.095714e+03
1.560131e+03,7.098825e+03
1.563024e+03,7.087131e+03
1.565917e+03,7.180801e+03
1.568809e+03,7.221165e+03
1.571702e+03,7.286697e+03
1.574595e+03,7.238792e+03
1.577488e+03,7.189286e+03
1.580380e+03,7.125149e+03
1.583273e+03,7.115636e+03
1.586166e+03,7.107672e+03
1.589058e+03,7.026379e+03
1.591951e+03,6.959009e+03
1.594844e+03,6.927202e+03
1.597736e+03,6.927493e+03
1.600629e+03,6.914659e+03
1.603522e+03,6.886864e+03
1.606415e+03,6.864029e+03
1.609307e+03,6.856865e+03
1.612200e+03,6.834494e+03
1.615093e+03,6.832766e+03
1.617985e+03,6.777514e+03
1.620878e+03,6.774533e+03
1.623771e+03,6.771325e+03
1.626663e+03,6.781350e+03
1.629556e+03,6.798620e+03
1.632449e+03,6.758625e+03
1.635342e+03,6.726186e+03
1.638234e+03,6.703819e+03
1.641127e+03,6.695860e+03
1.644020e+03,6.681744e+03
1.646912e+03,6.682187e+03
1.649805e+03,6.625303e+03
1.652698e+03,6.659837e+03
1.655590e+03,6.603304e+03
1.658483e+03,6.604031e+03
1.661376e+03,6.598502e+03
1.664269e+03,6.570943e+03
1.667161e+03,6.561894e+03
1.670054e+03,6.552492e+03
1.672947e+03,6.553600e+03
1.675839e+03,6.564791e+03
1.678732e+03,6.523172e+03
1.681625e+03,6.516743e+03
1.684517e+03,6.482100e+03
1.687410e+03,6.487029e+03
1.690303e+03,6.476324e+03
1.693196e+03,6.429815e+03
1.696088e+03,6.416586e+03
1.698981e+03,6.445252e+03
1.701874e+03,6.440012e+03
1.704766e+03,6.399728e+03
1.707659e+03,6.404168e+03
1.710552e+03,6.362155e+03
1.713444e+03,6.339646e+03
1.716337e+03,6.327856e+03
1.719230e+03,6.326786e+03
1.722123e+03,6.289767e+03
1.725015e+03,6.297322e+03
1.727908e+03,6.280554e+03
1.730801e+03,6.276401e+03
1.733693e+03,6.280305e+03
1.736586e+03,6.236281e+03
1.739479e+03,6.251783e+03
1.742371e+03,6.221689e+03
1.745264e+03,6.215249e+03
1.748157e+03,6.172744e+03
1.751050e+03,6.207617e+03
1.753942e+03,6.176665e+03
1.756835e+03,6.216243e+03
1.759728e+03,6.140886e+03
1.762620e+03,6.117100e+03
1.765513e+03,6.141565e+03
1.768406e+03,6.084948e+03
1.771298e+03,6.089842e+03
1.774191e+03,6.081653e+03
1.777084e+03,6.062521e+03
1.779977e+03,6.055569e+03
1.782869e+03,6.045403e+03
1.785762e+03,6.057267e+03
1.788655e+03,6.047877e+03
1.791547e+03,5.985429e+03
1.794440e+03,5.971114e+03
1.797333e+03,5.998889e+03
1.800225e+03,5.965024e+03
1.803118e+03,5.963080e+03
1.806011e+03,5.937442e+03
1.808904e+03,5.931763e+03
1.811796e+03,5.902698e+03
1.814689e+03,5.908668e+03
1.817582e+03,5.907828e+03
1.820474e+03,5.886639e+03
1.823367e+03,5.881855e+03
1.826260e+03,5.846617e+03
1.829152e+03,5.818787e+03
1.832045e+03,5.826623e+03
1.834938e+03,5.787034e+03
1.837831e+03,5.817745e+03
1.840723e+03,5.791247e+03
1.843616e+03,5.780958e+03
1.846509e+03,5.750698e+03
1.849401e+03,5.730748e+03
1.852294e+03,5.703679e+03
1.855187e+03,5.674943e+03
1.858079e+03,5.669536e+03
1.860972e+03,5.666651e+03
1.863865e+03,5.697741e+03
1.866758e+03,5.672624e+03
1.869650e+03,5.644486e+03
1.872543e+03,5.633585e+03
1.875436e+03,5.632351e+03
1.878328e+03,5.624674e+03
1.881221e+03,5.603591e+03
1.884114e+03,5.573023e+03
1.887006e+03,5.562537e+03
1.889899e+03,5.534177e+03
1.892792e+03,5.589255e+03
1.895685e+03,5.535162e+03
1.898577e+03,5.535537e+03
1.901470e+03,5.498729e+03
1.904363e+03,5.467273e+03
1.907255e+03,5.480041e+03
1.910148e+03,5.453276e+03
1.913041e+03,5.427731e+03
1.915933e+03,5.431742e+03
1.918826e+03,5.416268e+03
1.921719e+03,5.409034e+03
1.924612e+03,5.392524e+03
1.927504e+03,5.375550e+03
1.930397e+03,5.345747e+03
1.933290e+03,5.343805e+03
1.936182e+03,5.371661e+03
1.939075e+03,5.317268e+03
1.941968e+03,5.310028e+03
1.944860e+03,5.281241e+03
1.947753e+03,5.251060e+03
1.950646e+03,5.295250e+03
1.953539e+03,5.252749e+03
1.956431e+03,5.263313e+03
1.959324e+03,5.273900e+03
1.962217e+03,5.248064e+03
1.965109e+03,5.224149e+03
1.968002e+03,5.211667e+03
1.970895e+03,5.179562e+03
1.973787e+03,5.199318e+03
1.976680e+03,5.169573e+03
1.979573e+03,5.131807e+03
1.982466e+03,5.181856e+03
1.985358e+03,5.120165e+03
1.988251e+03,5.132335e+03
1.991144e+03,5.112828e+03
1.994036e+03,5.067983e+03
1.996929e+03,5.082537e+03
1.999822e+03,5.049825e+03
2.002714e+03,5.076749e+03
2.005607e+03,5.067399e+03
2.008500e+03,5.020208e+03
2.011393e+03,4.992978e+03
2.014285e+03,5.000477e+03
2.017178e+03,4.995210e+03
2.020071e+03,4.971016e+03
2.022963e+03,4.974090e+03
2.025856e+03,4.932511e+03
2.028749e+03,4.926189e+03
2.031641e+03,4.915375e+03
2.034534e+03,4.943510e+03
2.037427e+03,4.903477e+03
2.040320e+03,4.857937e+03
2.043212e+03,4.861459e+03
2.046105e+03,4.853393e+03
2.048998e+03,4.839967e+03
2.051890e+03,4.804690e+03
2.054783e+03,4.798687e+03
2.057676e+03,4.809511e+03
2.060568e+03,4.800866e+03
2.063461e+03,4.777935e+03
2.066354e+03,4.742923e+03
2.069247e+03,4.742549e+03
2.072139e+03,4.701427e+03
2.075032e+03,4.705966e+03
2.077925e+03,4.704473e+03
2.080817e+03,4.704272e+03
2.083710e+03,4.697360e+03
2.086603e+03,4.634567e+03
2.089496e+03,4.668642e+03
2.092388e+03,4.606563e+03
2.095281e+03,4.645365e+03
2.098174e+03,4.589395e+03
2.101066e+03,4.602332e+03
2.103959e+03,4.585121e+03
2.106852e+03,4.542812e+03
2.109744e+03,4.597931e+03
2.112637e+03,4.515763e+03
2.115530e+03,4.511588e+03
2.118422e+03,4.471042e+03
2.121315e+03,4.523021e+03
2.124208e+03,4.499626e+03
2.127101e+03,4.471837e+03
2.129993e+03,4.444565e+03
2.132886e+03,4.470902e+03
2.135779e+03,4.438485e+03
2.138671e+03,4.445464e+03
2.141564e+03,4.367943e+03
2.144457e+03,4.396138e+03
2.147350e+03,4.368376e+03
2.150242e+03,4.373495e+03
2.153135e+03,4.375239e+03
2.156028e+03,4.333790e+03
2.158920e+03,4.325017e+03
2.161813e+03,4.313296e+03
2.164706e+03,4.332232e+03
2.167598e+03,4.286843e+03
2.170491e+03,4.305803e+03
2.173384e+03,4.285654e+03
2.176277e+03,4.274618e+03
2.179169e+03,4.237476e+03
2.182062e+03,4.229338e+03
2.184955e+03,4.226511e+03
2.187847e+03,4.206829e+03
2.190740e+03,4.198130e+03
2.193633e+03,4.175323e+03
2.196525e+03,4.135195e+03
2.199418e+03,4.157807e+03
2.202311e+03,4.130463e+03
2.205204e+03,4.146804e+03
2.208096e+03,4.130050e+03
2.210989e+03,4.073478e+03
2.213882e+03,4.100117e+03
2.216774e+03,4.081140e+03
2.219667e+03,4.057547e+03
2.222560e+03,4.047842e+03
2.225452e+03,4.006648e+03
2.228345e+03,3.983417e+03
2.231238e+03,4.020038e+03
2.234131e+03,3.994677e+03
2.237023e+03,3.987583e+03
2.239916e+03,3.969650e+03
2.242809e+03,3.933719e+03
2.245701e+03,3.924304e+03
2.248594e+03,3.921008e+03
2.251487e+03,3.918290e+03
2.254379e+03,3.923884e+03
2.257272e+03,3.853067e+03
2.260165e+03,3.838173e+03
2.263058e+03,3.853544e+03
2.265950e+03,3.829984e+03
2.268843e+03,3.818239e+03
2.271736e+03,3.799267e+03
2.274628e+03,3.783826e+03
2.277521e+03,3.802247e+03
2.280414e+03,3.789215e+03
2.283306e+03,3.779570e+03
2.286199e+03,3.743847e+03
2.289092e+03,3.730946e+03
2.291985e+03,3.732789e+03
2.294877e+03,3.711260e+03
2.297770e+03,3.721910e+03
2.300663e+03,3.697973e+03
2.303555e+03,3.679842e+03
2.306448e+03,3.702300e+03
2.309341e+03,3.680339e+03
2.312233e+03,3.678287e+03
2.315126e+03,3.645695e+03
2.318019e+03,3.642651e+03
2.320912e+03,3.617748e+03
2.323804e+03,3.612774e+03
2.326697e+03,3.595703e+03
2.329590e+03,3.597848e+03
2.332482e+03,3.582882e+03
2.335375e+03,3.555093e+03
2.338268e+03,3.566047e+03
2.341160e+03,3.567598e+03
2.344053e+03,3.532981e+03
2.346946e+03,3.539131e+03
2.349839e+03,3.494833e+03
2.352731e+03,3.494502e+03
2.355624e+03,3.500547e+03
2.358517e+03,3.481994e+03
2.361409e+03,3.502767e+03
2.364302e+03,3.465359e+03
2.367195e+03,3.424011e+03
2.370087e+03,3.427003e+03
2.372980e+03,3.405811e+03
2.375873e+03,3.419900e+03
2.378766e+03,3.426717e+03
2.381658e+03,3.385608e+03
2.384551e+03,3.380756e+03
2.387444e+03,3.359357e+03
2.390336e+03,3.385108e+03
2.393229e+03,3.371256e+03
2.396122e+03,3.344354e+03
2.399014e+03,3.332411e+03
2.401907e+03,3.325089e+03
2.404800e+03,3.309862e+03
2.407693e+03,3.313393e+03
2.410585e+03,3.298534e+03
2.413478e+03,3.289282e+03
2.416371e+03,3.256115e+03
2.419263e+03,3.247011e+03
2.422156e+03,3.257772e+03
2.425049e+03,3.280868e+03
2.427941e+03,3.217210e+03
2.430834e+03,3.235124e+03
2.433727e+03,3.207815e+03
2.436620e+03,3.210059e+03
2.439512e+03,3.186979e+03
2.442405e+03,3.180361e+03
2.445298e+03,3.178987e+03
2.448190e+03,3.152814e+03
2.451083e+03,3.157448e+03
2.453976e+03,3.180995e+03
2.456868e+03,3.124284e+03
2.459761e+03,3.126691e+03
2.462654e+03,3.111099e+03
2.465547e+03,3.091538e+03
2.468439e+03,3.096522e+03
2.471332e+03,3.073354e+03
2.474225e+03,3.088715e+03
2.477117e+03,3.074325e+03
2.480010e+03,3.067208e+03
2.482903e+03,3.056099e+03
2.485795e+03,3.041682e+03
2.488688e+03,3.031141e+03
2.491581e+03,3.020700e+03
2.494474e+03,3.042606e+03
2.497366e+03,2.991598e+03
2.500259e+03,2.997402e+03
2.503152e+03,2.988073e+03
2.506044e+03,2.973000e+03
2.508937e+03,2.945900e+03
2.511830e+03,2.965590e+03
2.514722e+03,2.945556e+03
2.517615e+03,2.946669e+03
2.520508e+03,2.928982e+03
2.523401e+03,2.926806e+03
2.526293e+03,2.919650e+03
2.529186e+03,2.921376e+03
2.532079e+03,2.912134e+03
2.534971e+03,2.879009e+03
2.537864e+03,2.909721e+03
2.540757e+03,2.879404e+03
2.543649e+03,2.877894e+03
2.546542e+03,2.868581e+03
2.549435e+03,2.848924e+03
2.552328e+03,2.848180e+03
2.555220e+03,2.835402e+03
2.558113e+03,2.795309e+03
2.561006e+03,2.829612e+03
2.563898e+03,2.836699e+03
2.566791e+03,2.828318e+03
2.569684e+03,2.818717e+03
2.572576e+03,2.794383e+03
2.575469e+03,2.793519e+03
2.578362e+03,2.781832e+03
2.581255e+03,2.768210e+03
2.584147e+03,2.763557e+03
2.587040e+03,2.732969e+03
2.589933e+03,2.736355e+03
2.592825e+03,2.730211e+03
2.595718e+03,2.735228e+03
2.598611e+03,2.714644e+03
2.601503e+03,2.711577e+03
2.604396e+03,2.691469e+03
2.607289e+03,2.729774e+03
2.610182e+03,2.686359e+03
2.613074e+03,2.672360e+03
2.615967e+03,2.652796e+03
2.618860e+03,2.652392e+03
2.621752e+03,2.677531e+03
2.624645e+03,2.636161e+03
2.627538e+03,2.609913e+03
2.630430e+03,2.615009e+03
2.633323e+03,2.622552e+03
2.636216e+03,2.622771e+03
2.639109e+03,2.601749e+03
2.642001e+03,2.609887e+03
2.644894e+03,2.614617e+03
2.647787e+03,2.578057e+03
2.650679e+03,2.599884e+03
2.653572e+03,2.586902e+03
2.656465e+03,2.580656e+03
2.659357e+03,2.551484e+03
2.662250e+03,2.549965e+03
2.665143e+03,2.541454e+03
2.668036e+03,2.559111e+03
2.670928e+03,2.554906e+03
2.673821e+03,2.522865e+03
2.676714e+03,2.496487e+03
2.679606e+03,2.520134e+03
2.682499e+03,2.511393e+03
2.685392e+03,2.508856e+03
2.688284e+03,2.491641e+03
2.691177e+03,2.496584e+03
2.694070e+03,2.472621e+03
2.696963e+03,2.468090e+03
2.699855e+03,2.465645e+03
2.702748e+03,2.476523e+03
2.705641e+03,2.472516e+03
2.708533e+03,2.471538e+03
2.711426e+03,2.462495e+03
2.714319e+03,2.441379e+03
2.717211e+03,2.416622e+03
2.720104e+03,2.407132e+03
2.722997e+03,2.421355e+03
2.725890e+03,2.394996e+03
2.728782e+03,2.417269e+03
2.731675e+03,2.381638e+03
2.734568e+03,2.405412e+03
2.737460e+03,2.390806e+03
2.740353e+03,2.351000e+03
2.743246e+03,2.384265e+03
2.746138e+03,2.369412e+03
2.749031e+03,2.353477e+03
2.751924e+03,2.367065e+03
2.754817e+03,2.332145e+03
2.757709e+03,2.359750e+03
2.760602e+03,2.320028e+03
2.763495e+03,2.354219e+03
2.766387e+03,2.335201e+03
2.769280e+03,2.319793e+03
2.772173e+03,2.318326e+03
2.775065e+03,2.304619e+03
2.777958e+03,2.319754e+03
2.780851e+03,2.308167e+03
2.783744e+03,2.280799e+03
2.786636e+03,2.303837e+03
2.789529e+03,2.285731e+03
2.792422e+03,2.269630e+03
2.795314e+03,2.285875e+03
2.798207e+03,2.287513e+03
2.801100e+03,2.286539e+03
2.803992e+03,2.258183e+03
2.806885e+03,2.253524e+03
2.809778e+03,2.238049e+03
2.812671e+03,2.244006e+03
2.815563e+03,2.200949e+03
2.818456e+03,2.214605e+03
2.821349e+03,2.236602e+03
2.824241e+03,2.211314e+03
2.827134e+03,2.204618e+03
2.830027e+03,2.218448e+03
2.832919e+03,2.225652e+03
2.835812e+03,2.213730e+03
2.838705e+03,2.172146e+03
2.841598e+03,2.207794e+03
2.844490e+03,2.188538e+03
2.847383e+03,2.202126e+03
2.850276e+03,2.191652e+03
2.853168e+03,2.190708e+03
2.856061e+03,2.208293e+03
2.858954e+03,2.173310e+03
2.861846e+03,2.174464e+03
2.864739e+03,2.155244e+03
2.867632e+03,2.171258e+03
2.870525e+03,2.170003e+03
2.873417e+03,2.193775e+03
2.876310e+03,2.175474e+03
2.879203e+03,2.137798e+03
2.882095e+03,2.167113e+03
2.884988e+03,2.134855e+03
2.887881e+03,2.182156e+03
2.890773e+03,2.164351e+03
2.893666e+03,2.159562e+03
2.896559e+03,2.144039e+03
2.899452e+03,2.143822e+03
2.902344e+03,2.132996e+03
2.905237e+03,2.087587e+03
2.908130e+03,2.111076e+03
2.911022e+03,2.086162e+03
2.913915e+03,2.114556e+03
2.916808e+03,2.067230e+03
2.919700e+03,2.132395e+03
2.922593e+03,2.073894e+03
2.925486e+03,2.072190e+03
2.928379e+03,2.087396e+03
2.931271e+03,2.045516e+03
2.934164e+03,2.109346e+03
2.937057e+03,2.032736e+03
2.939949e+03,2.076337e+03
2.942842e+03,2.013218e+03
2.945735e+03,2.030843e+03
2.948627e+03,2.037544e+03
2.951520e+03,2.059752e+03
2.954413e+03,2.030830e+03
2.957306e+03,2.056689e+03
2.960198e+03,2.063862e+03
2.963091e+03,2.043367e+03
2.965984e+03,1.984141e+03
2.968876e+03,2.008413e+03
2.971769e+03,2.006016e+03
2.974662e+03,1.975175e+03
2.977554e+03,1.976919e+03
2.980447e+03,1.976787e+03
2.983340e+03,2.008898e+03
2.986233e+03,1.965456e+03
2.989125e+03,1.997667e+03
2.992018e+03,1.955074e+03
2.994911e+03,1.959896e+03
2.997803e+03,1.959737e+03
3.000696e+03,1.994985e+03
3.003589e+03,1.947900e+03
3.006481e+03,1.928642e+03
3.009374e+03,1.895604e+03
3.012267e+03,1.936653e+03
3.015160e+03,1.915564e+03
3.018052e+03,1.908264e+03
3.020945e+03,1.946356e+03
3.023838e+03,1.902998e+03
3.026730e+03,1.892556e+03
3.029623e+03,1.906436e+03
3.032516e+03,1.922267e+03
3.035408e+03,1.866807e+03
3.038301e+03,1.950203e+03
3.041194e+03,1.884620e+03
3.044087e+03,1.899426e+03
3.046979e+03,1.904831e+03
3.049872e+03,1.885274e+03
3.052765e+03,1.868025e+03
3.055657e+03,1.893427e+03
3.058550e+03,1.885280e+03
3.061443e+03,1.868614e+03
3.064335e+03,1.919033e+03
3.067228e+03,1.835963e+03
3.070121e+03,1.887202e+03
3.073014e+03,1.854497e+03
3.075906e+03,1.858215e+03
3.078799e+03,1.882726e+03
3.081692e+03,1.885381e+03
3.084584e+03,1.842520e+03
3.087477e+03,1.880376e+03
3.090370e+03,1.858636e+03
3.093262e+03,1.863225e+03
3.096155e+03,1.850345e+03
3.099048e+03,1.854883e+03
3.101941e+03,1.829903e+03
3.104833e+03,1.867321e+03
3.107726e+03,1.843203e+03
3.110619e+03,1.883545e+03
3.113511e+03,1.812212e+03
3.116404e+03,1.860234e+03
3.119297e+03,1.791700e+03
3.122189e+03,1.820213e+03
3.125082e+03,1.872055e+03
3.127975e+03,1.821855e+03
3.130868e+03,1.871040e+03
3.133760e+03,1.845577e+03
3.136653e+03,1.829592e+03
3.139546e+03,1.807758e+03
3.142438e+03,1.871208e+03
3.145331e+03,1.793116e+03
3.148224e+03,1.813492e+03
3.151116e+03,1.838072e+03
3.154009e+03,1.837242e+03
3.156902e+03,1.820688e+03
3.159795e+03,1.831218e+03
3.162687e+03,1.837260e+03
3.165580e+03,1.845150e+03
3.168473e+03,1.853746e+03
3.171365e+03,1.821675e+03
3.174258e+03,1.853523e+03
3.177151e+03,1.875365e+03
3.180043e+03,1.841267e+03
3.182936e+03,1.855394e+03
3.185829e+03,1.885597e+03
3.188722e+03,1.776205e+03
3.191614e+03,1.885911e+03
3.194507e+03,1.808760e+03
3.197400e+03,1.849977e+03
3.200292e+03,1.909878e+03
3.203185e+03,0.000000e+00
3.206078e+03,0.000000e+00
3.208970e+03,0.000000e+00
3.211863e+03,0.000000e+00
3.214756e+03,0.000000e+00
3.217649e+03,0.000000e+00
3.220541e+03,0.000000e+00
3.223434e+03,0.000000e+00
3.226327e+03,0.000000e+00
3.229219e+03,0.000000e+00
3.232112e+03,0.000000e+00
3.235005e+03,0.000000e+00
3.237897e+03,0.000000e+00
3.240790e+03,0.000000e+00
3.243683e+03,0.000000e+00
3.246576e+03,0.000000e+00
3.249468e+03,0.000000e+00
3.252361e+03,0.000000e+00
3.255254e+03,0.000000e+00
3.258146e+03,0.000000e+00
3.261039e+03,0.000000e+00
3.263932e+03,0.000000e+00
3.266824e+03,0.000000e+00
3.269717e+03,0.000000e+00
3.272610e+03,0.000000e+00
3.275503e+03,0.000000e+00
3.278395e+03,0.000000e+00
3.281288e+03,0.000000e+00
3.284181e+03,0.000000e+00
3.287073e+03,0.000000e+00
3.289966e+03,0.000000e+00
3.292859e+03,0.000000e+00
3.295751e+03,0.000000e+00
3.298644e+03,0.000000e+00
3.301537e+03,0.000000e+00
3.304430e+03,0.000000e+00
3.307322e+03,0.000000e+00
3.310215e+03,0.000000e+00
3.313108e+03,0.000000e+00
3.316000e+03,0.000000e+00
3.318893e+03,0.000000e+00
3.321786e+03,0.000000e+00
3.324678e+03,0.000000e+00
3.327571e+03,0.000000e+00
3.330464e+03,0.000000e+00
3.333357e+03,0.000000e+00
3.336249e+03,0.000000e+00
3.339142e+03,0.000000e+00
3.342035e+03,0.000000e+00
3.344927e+03,0.000000e+00
3.347820e+03,0.000000e+00
3.350713e+03,0.000000e+00
3.353605e+03,0.000000e+00
3.356498e+03,0.000000e+00
3.359391e+03,0.000000e+00
3.362284e+03,0.000000e+00
3.365176e+03,0.000000e+00
3.368069e+03,0.000000e+00
3.370962e+03,0.000000e+00
3.373854e+03,0.000000e+00
3.376747e+03,0.000000e+00
3.379640e+03,0.000000e+00
3.382532e+03,0.000000e+00
3.385425e+03,0.000000e+00
3.388318e+03,0.000000e+00
3.391211e+03,0.000000e+00
3.394103e+03,0.000000e+00
3.396996e+03,0.000000e+00
3.399889e+03,0.000000e+00
3.402781e+03,0.000000e+00
3.405674e+03,0.000000e+00
3.408567e+03,0.000000e+00
3.411459e+03,0.000000e+00
3.414352e+03,0.000000e+00
3.417245e+03,0.000000e+00
3.420138e+03,0.000000e+00
3.423030e+03,0.000000e+00
3.425923e+03,0.000000e+00
3.428816e+03,0.000000e+00
3.431708e+03,0.000000e+00
3.434601e+03,0.000000e+00
3.437494e+03,0.000000e+00
3.440386e+03,0.000000e+00
3.443279e+03,0.000000e+00
3.446172e+03,0.000000e+00
3.449065e+03,0.000000e+00
3.451957e+03,0.000000e+00
3.454850e+03,0.000000e+00
3.457743e+03,0.000000e+00
3.460635e+03,0.000000e+00
3.463528e+03,0.000000e+00
3.466421e+03,0.000000e+00
3.469313e+03,0.000000e+00
3.472206e+03,0.000000e+00
3.475099e+03,0.000000e+00
3.477992e+03,0.000000e+00
3.480884e+03,0.000000e+00
3.483777e+03,0.000000e+00
3.486670e+03,0.000000e+00
3.489563e+03,0.000000e+00
3.492455e+03,0.000000e+00
3.495348e+03,0.000000e+00
3.498240e+03,0.000000e+00
3.500169e+03,0.000000e+00