File: RAMAN_data/20012023_r3/blue fibre2.CSV
9.931763e+01,0.000000e+00
1.022103e+02,0.000000e+00
1.051030e+02,0.000000e+00
1.079957e+02,0.000000e+00
1.108884e+02,0.000000e+00
1.137811e+02,0.000000e+00
1.166738e+02,0.000000e+00
1.195665e+02,0.000000e+00
1.224592e+02,0.000000e+00
1.253519e+02,0.000000e+00
1.282446e+02,0.000000e+00
1.311373e+02,0.000000e+00
1.340300e+02,0.000000e+00
1.369227e+02,0.000000e+00
1.398154e+02,0.000000e+00
1.427081e+02,0.000000e+00
1.456008e+02,0.000000e+00
1.484935e+02,0.000000e+00
1.513862e+02,0.000000e+00
1.542789e+02,0.000000e+00
1.571716e+02,0.000000e+00
1.600643e+02,0.000000e+00
1.629570e+02,0.000000e+00
1.658497e+02,0.000000e+00
1.687424e+02,0.000000e+00
1.716351e+02,0.000000e+00
1.745278e+02,0.000000e+00
1.774205e+02,0.000000e+00
1.803132e+02,0.000000e+00
1.832059e+02,0.000000e+00
1.860986e+02,0.000000e+00
1.889913e+02,0.000000e+00
1.918840e+02,0.000000e+00
1.947767e+02,0.000000e+00
1.976694e+02,0.000000e+00
2.005621e+02,6.612398e+03
2.034548e+02,6.636783e+03
2.063475e+02,6.647070e+03
2.092402e+02,6.641995e+03
2.121329e+02,6.627690e+03
2.150256e+02,6.646509e+03
2.179183e+02,6.649101e+03
2.208110e+02,6.686339e+03
2.237037e+02,6.690541e+03
2.265964e+02,6.664792e+03
2.294892e+02,6.678428e+03
2.323819e+02,6.701404e+03
2.352746e+02,6.707506e+03
2.381673e+02,6.721285e+03
2.410600e+02,6.708181e+03
2.439527e+02,6.695398e+03
2.468454e+02,6.753458e+03
2.497381e+02,6.766510e+03
2.526308e+02,6.764957e+03
2.555235e+02,6.759776e+03
2.584161e+02,6.763224e+03
2.613088e+02,6.770964e+03
2.642015e+02,6.801403e+03
2.670942e+02,6.799620e+03
2.699869e+02,6.822117e+03
2.728796e+02,6.822300e+03
2.757723e+02,6.834950e+03
2.786650e+02,6.841937e+03
2.815577e+02,6.853478e+03
2.844504e+02,6.868885e+03
2.873431e+02,6.857000e+03
2.902358e+02,6.848032e+03
2.931285e+02,6.861424e+03
2.960212e+02,6.869115e+03
2.989139e+02,6.856528e+03
3.018066e+02,6.858542e+03
3.046993e+02,6.867045e+03
3.075920e+02,6.874252e+03
3.104847e+02,6.895130e+03
3.133774e+02,6.894252e+03
3.162701e+02,6.887208e+03
3.191628e+02,6.906159e+03
3.220555e+02,6.909733e+03
3.249482e+02,6.934874e+03
3.278409e+02,6.919311e+03
3.307336e+02,6.913385e+03
3.336263e+02,6.927587e+03
3.365190e+02,6.912414e+03
3.394117e+02,6.925262e+03
3.423044e+02,6.932523e+03
3.451971e+02,6.939010e+03
3.480898e+02,6.936881e+03
3.509825e+02,6.941828e+03
3.538752e+02,6.947790e+03
3.567680e+02,6.947162e+03
3.596607e+02,6.962067e+03
3.625534e+02,6.974127e+03
3.654461e+02,6.933095e+03
3.683388e+02,6.952074e+03
3.712315e+02,6.988321e+03
3.741242e+02,6.966853e+03
3.770169e+02,7.007378e+03
3.799096e+02,6.986670e+03
3.828023e+02,6.989257e+03
3.856950e+02,6.986266e+03
3.885877e+02,6.992651e+03
3.914804e+02,6.995001e+03
3.943731e+02,7.001606e+03
3.972658e+02,6.976266e+03
4.001585e+02,6.960994e+03
4.030512e+02,6.985092e+03
4.059439e+02,6.985427e+03
4.088366e+02,6.990085e+03
4.117293e+02,6.983259e+03
4.146220e+02,6.990750e+03
4.175147e+02,7.000421e+03
4.204074e+02,6.991634e+03
4.233001e+02,6.970345e+03
4.261928e+02,6.988459e+03
4.290855e+02,6.975837e+03
4.319782e+02,6.978860e+03
4.348709e+02,6.990729e+03
4.377636e+02,7.007126e+03
4.406563e+02,7.002958e+03
4.435490e+02,7.025478e+03
4.464417e+02,6.994061e+03
4.493344e+02,6.994227e+03
4.522271e+02,6.974744e+03
4.551198e+02,7.003834e+03
4.580125e+02,7.000376e+03
4.609052e+02,6.997289e+03
4.637979e+02,6.967695e+03
4.666906e+02,6.969151e+03
4.695833e+02,6.988361e+03
4.724760e+02,6.963151e+03
4.753687e+02,6.978828e+03
4.782614e+02,6.977706e+03
4.811541e+02,6.972098e+03
4.840468e+02,7.012422e+03
4.869395e+02,7.001931e+03
4.898322e+02,6.995403e+03
4.927249e+02,6.990203e+03
4.956176e+02,6.973765e+03
4.985103e+02,6.989991e+03
5.014030e+02,6.995144e+03
5.042957e+02,6.968201e+03
5.071884e+02,6.942408e+03
5.100811e+02,6.940429e+03
5.129738e+02,6.958969e+03
5.158665e+02,6.999270e+03
5.187592e+02,6.936203e+03
5.216519e+02,6.942354e+03
5.245446e+02,6.958193e+03
5.274373e+02,6.952519e+03
5.303300e+02,6.968927e+03
5.332227e+02,6.941382e+03
5.361154e+02,6.929322e+03
5.390081e+02,6.934316e+03
5.419008e+02,6.950216e+03
5.447935e+02,6.975071e+03
5.476862e+02,6.968923e+03
5.505789e+02,6.939255e+03
5.534716e+02,6.923596e+03
5.563643e+02,6.915075e+03
5.592570e+02,6.919206e+03
5.621497e+02,6.932617e+03
5.650424e+02,6.912130e+03
5.679351e+02,6.930050e+03
5.708278e+02,6.897604e+03
5.737205e+02,6.897345e+03
5.766132e+02,6.934998e+03
5.795059e+02,6.904347e+03
5.823986e+02,6.893101e+03
5.852913e+02,6.925897e+03
5.881840e+02,6.925715e+03
5.910767e+02,6.896876e+03
5.939694e+02,6.888495e+03
5.968621e+02,6.885868e+03
5.997548e+02,6.892963e+03
6.026475e+02,6.850977e+03
6.055402e+02,6.912934e+03
6.084329e+02,6.880002e+03
6.113256e+02,6.882610e+03
6.142183e+02,6.869146e+03
6.171110e+02,6.871921e+03
6.200037e+02,6.875607e+03
6.228964e+02,6.852300e+03
6.257891e+02,6.855746e+03
6.286818e+02,6.852250e+03
6.315745e+02,6.846339e+03
6.344672e+02,6.831921e+03
6.373599e+02,6.848260e+03
6.402526e+02,6.838021e+03
6.431453e+02,6.805808e+03
6.460380e+02,6.809388e+03
6.489307e+02,6.806606e+03
6.518234e+02,6.791456e+03
6.547161e+02,6.796303e+03
6.576088e+02,6.793841e+03
6.605015e+02,6.771598e+03
6.633942e+02,6.769569e+03
6.662869e+02,6.786703e+03
6.691796e+02,6.779770e+03
6.720723e+02,6.772147e+03
6.749650e+02,6.782286e+03
6.778577e+02,6.759831e+03
6.807504e+02,6.772951e+03
6.836431e+02,6.766677e+03
6.865358e+02,6.723549e+03
6.894285e+02,6.721669e+03
6.923212e+02,6.722683e+03
6.952139e+02,6.752255e+03
6.981066e+02,6.756651e+03
7.009993e+02,6.727443e+03
7.038920e+02,6.720325e+03
7.067847e+02,6.711249e+03
7.096774e+02,6.684233e+03
7.125701e+02,6.700886e+03
7.154628e+02,6.708897e+03
7.183555e+02,6.703942e+03
7.212482e+02,6.686553e+03
7.241409e+02,6.670958e+03
7.270336e+02,6.679096e+03
7.299263e+02,6.670283e+03
7.328190e+02,6.635716e+03
7.357117e+02,6.645208e+03
7.386044e+02,6.642782e+03
7.414971e+02,6.634940e+03
7.443898e+02,6.646793e+03
7.472825e+02,6.640371e+03
7.501752e+02,6.627551e+03
7.530679e+02,6.608540e+03
7.559606e+02,6.607560e+03
7.588533e+02,6.636100e+03
7.617460e+02,6.639060e+03
7.646387e+02,6.602623e+03
7.675314e+02,6.595101e+03
7.704241e+02,6.575316e+03
7.733168e+02,6.574842e+03
7.762095e+02,6.583882e+03
7.791022e+02,6.568038e+03
7.819949e+02,6.576209e+03
7.848876e+02,6.575420e+03
7.877803e+02,6.559723e+03
7.906730e+02,6.565263e+03
7.935657e+02,6.553076e+03
7.964584e+02,6.539601e+03
7.993511e+02,6.523190e+03
8.022438e+02,6.520469e+03
8.051365e+02,6.515421e+03
8.080292e+02,6.521117e+03
8.109219e+02,6.517951e+03
8.138146e+02,6.513735e+03
8.167073e+02,6.499083e+03
8.196000e+02,6.495153e+03
8.224927e+02,6.505156e+03
8.253854e+02,6.474873e+03
8.282781e+02,6.486669e+03
8.311708e+02,6.467452e+03
8.340635e+02,6.475244e+03
8.369562e+02,6.485412e+03
8.398489e+02,6.471719e+03
8.427416e+02,6.469486e+03
8.456343e+02,6.436239e+03
8.485270e+02,6.432537e+03
8.514197e+02,6.465047e+03
8.543124e+02,6.480560e+03
8.572051e+02,6.433824e+03
8.600978e+02,6.425180e+03
8.629905e+02,6.425002e+03
8.658832e+02,6.406417e+03
8.687759e+02,6.423698e+03
8.716686e+02,6.434463e+03
8.745613e+02,6.400979e+03
8.774540e+02,6.373437e+03
8.803467e+02,6.362750e+03
8.832394e+02,6.388394e+03
8.861321e+02,6.401120e+03
8.890248e+02,6.401757e+03
8.919175e+02,6.355417e+03
8.948102e+02,6.374332e+03
8.977029e+02,6.366855e+03
9.005956e+02,6.363081e+03
9.034883e+02,6.361818e+03
9.063810e+02,6.331021e+03
9.092737e+02,6.348548e+03
9.121664e+02,6.348631e+03
9.150591e+02,6.340412e+03
9.179518e+02,6.311093e+03
9.208445e+02,6.305427e+03
9.237372e+02,6.288047e+03
9.266299e+02,6.283392e+03
9.295226e+02,6.282909e+03
9.324153e+02,6.288386e+03
9.353080e+02,6.299904e+03
9.382007e+02,6.295346e+03
9.410934e+02,6.277618e+03
9.439861e+02,6.285672e+03
9.468788e+02,6.265996e+03
9.497715e+02,6.258282e+03
9.526642e+02,6.263046e+03
9.555569e+02,6.237858e+03
9.584496e+02,6.222610e+03
9.613423e+02,6.211661e+03
9.642350e+02,6.246058e+03
9.671277e+02,6.232204e+03
9.700204e+02,6.214824e+03
9.729131e+02,6.201612e+03
9.758058e+02,6.216812e+03
9.786985e+02,6.207162e+03
9.815912e+02,6.202769e+03
9.844839e+02,6.192760e+03
9.873766e+02,6.182700e+03
9.902693e+02,6.166194e+03
9.931620e+02,6.191618e+03
9.960547e+02,6.186614e+03
9.989474e+02,6.171788e+03
1.001840e+03,6.173075e+03
1.004733e+03,6.151592e+03
1.007626e+03,6.161405e+03
1.010518e+03,6.181345e+03
1.013411e+03,6.146474e+03
1.016304e+03,6.139558e+03
1.019196e+03,6.131426e+03
1.022089e+03,6.161492e+03
1.024982e+03,6.156492e+03
1.027875e+03,6.128679e+03
1.030767e+03,6.105640e+03
1.033660e+03,6.118943e+03
1.036552e+03,6.119273e+03
1.039445e+03,6.118876e+03
1.042338e+03,6.128811e+03
1.045231e+03,6.112096e+03
1.048123e+03,6.110865e+03
1.051016e+03,6.095202e+03
1.053909e+03,6.090105e+03
1.056802e+03,6.110156e+03
1.059694e+03,6.102934e+03
1.062587e+03,6.088141e+03
1.065479e+03,6.087936e+03
1.068372e+03,6.098731e+03
1.071265e+03,6.097025e+03
1.074158e+03,6.109538e+03
1.077050e+03,6.082033e+03
1.079943e+03,6.073774e+03
1.082836e+03,6.092912e+03
1.085729e+03,6.077567e+03
1.088621e+03,6.113189e+03
1.091514e+03,6.106978e+03
1.094406e+03,6.078964e+03
1.097299e+03,6.078876e+03
1.100192e+03,6.075195e+03
1.103085e+03,6.081984e+03
1.105977e+03,6.066361e+03
1.108870e+03,6.032149e+03
1.111763e+03,6.046474e+03
1.114656e+03,6.024740e+03
1.117548e+03,6.068362e+03
1.120441e+03,6.064521e+03
1.123334e+03,6.068755e+03
1.126226e+03,6.025959e+03
1.129119e+03,6.041389e+03
1.132012e+03,6.045763e+03
1.134904e+03,6.047776e+03
1.137797e+03,6.025583e+03
1.140690e+03,6.018341e+03
1.143583e+03,6.031134e+03
1.146475e+03,6.032463e+03
1.149368e+03,6.034166e+03
1.152261e+03,6.025067e+03
1.155153e+03,6.018108e+03
1.158046e+03,6.018432e+03
1.160939e+03,6.005704e+03
1.163831e+03,6.019769e+03
1.166724e+03,5.996852e+03
1.169617e+03,6.012198e+03
1.172510e+03,5.975053e+03
1.175402e+03,5.984375e+03
1.178295e+03,5.977697e+03
1.181188e+03,5.988363e+03
1.184080e+03,6.012339e+03
1.186973e+03,5.974161e+03
1.189866e+03,5.975404e+03
1.192758e+03,6.005610e+03
1.195651e+03,5.992833e+03
1.198544e+03,5.993390e+03
1.201437e+03,5.952833e+03
1.204329e+03,5.951081e+03
1.207222e+03,5.958343e+03
1.210115e+03,5.983000e+03
1.213007e+03,5.987195e+03
1.215900e+03,5.984338e+03
1.218793e+03,5.979021e+03
1.221685e+03,5.992884e+03
1.224578e+03,5.986330e+03
1.227471e+03,5.993837e+03
1.230364e+03,5.970733e+03
1.233256e+03,5.960833e+03
1.236149e+03,5.954757e+03
1.239042e+03,5.939142e+03
1.241934e+03,5.960275e+03
1.244827e+03,5.950657e+03
1.247720e+03,5.941552e+03
1.250612e+03,5.942755e+03
1.253505e+03,5.956726e+03
1.256398e+03,5.962545e+03
1.259291e+03,5.945931e+03
1.262183e+03,5.938761e+03
1.265076e+03,5.946115e+03
1.267969e+03,5.937213e+03
1.270861e+03,5.955787e+03
1.273754e+03,5.944552e+03
1.276647e+03,5.959162e+03
1.279539e+03,5.936095e+03
1.282432e+03,5.936596e+03
1.285325e+03,5.916591e+03
1.288218e+03,5.931399e+03
1.291110e+03,5.942745e+03
1.294003e+03,5.942438e+03
1.296896e+03,5.925410e+03
1.299788e+03,5.900056e+03
1.302681e+03,5.899153e+03
1.305574e+03,5.933099e+03
1.308466e+03,5.920478e+03
1.311359e+03,5.907921e+03
1.314252e+03,5.905856e+03
1.317145e+03,5.911239e+03
1.320037e+03,5.924717e+03
1.322930e+03,5.916093e+03
1.325823e+03,5.907467e+03
1.328715e+03,5.888144e+03
1.331608e+03,5.910645e+03
1.334501e+03,5.903648e+03
1.337393e+03,5.929255e+03
1.340286e+03,5.912414e+03
1.343179e+03,5.885468e+03
1.346072e+03,5.886740e+03
1.348964e+03,5.882439e+03
1.351857e+03,5.906263e+03
1.354750e+03,5.886787e+03
1.357642e+03,5.866791e+03
1.360535e+03,5.860042e+03
1.363428e+03,5.879954e+03
1.366320e+03,5.874222e+03
1.369213e+03,5.871320e+03
1.372106e+03,5.855047e+03
1.374999e+03,5.834508e+03
1.377891e+03,5.855709e+03
1.380784e+03,5.843287e+03
1.383677e+03,5.844636e+03
1.386569e+03,5.846377e+03
1.389462e+03,5.825121e+03
1.392355e+03,5.823371e+03
1.395247e+03,5.808278e+03
1.398140e+03,5.826231e+03
1.401033e+03,5.803334e+03
1.403926e+03,5.800088e+03
1.406818e+03,5.790240e+03
1.409711e+03,5.796525e+03
1.412604e+03,5.801897e+03
1.415496e+03,5.810143e+03
1.418389e+03,5.759251e+03
1.421282e+03,5.785836e+03
1.424174e+03,5.768622e+03
1.427067e+03,5.757737e+03
1.429960e+03,5.764293e+03
1.432853e+03,5.773892e+03
1.435745e+03,5.747568e+03
1.438638e+03,5.724178e+03
1.441531e+03,5.721526e+03
1.444423e+03,5.731107e+03
1.447316e+03,5.744994e+03
1.450209e+03,5.691194e+03
1.453101e+03,5.692935e+03
1.455994e+03,5.702298e+03
1.458887e+03,5.743243e+03
1.461780e+03,5.712198e+03
1.464672e+03,5.685301e+03
1.467565e+03,5.693325e+03
1.470458e+03,5.692110e+03
1.473350e+03,5.680491e+03
1.476243e+03,5.701805e+03
1.479136e+03,5.681856e+03
1.482028e+03,5.652414e+03
1.484921e+03,5.659913e+03
1.487814e+03,5.681367e+03
1.490707e+03,5.651260e+03
1.493599e+03,5.648603e+03
1.496492e+03,5.633468e+03
1.499385e+03,5.633678e+03
1.502277e+03,5.638731e+03
1.505170e+03,5.648390e+03
1.508063e+03,5.650512e+03
1.510955e+03,5.625425e+03
1.513848e+03,5.604417e+03
1.516741e+03,5.613125e+03
1.519634e+03,5.617969e+03
1.522526e+03,5.578413e+03
1.525419e+03,5.609005e+03
1.528312e+03,5.597846e+03
1.531204e+03,5.578373e+03
1.534097e+03,5.612334e+03
1.536990e+03,5.570380e+03
1.539882e+03,5.586462e+03
1.542775e+03,5.561057e+03
1.545668e+03,5.584036e+03
1.548561e+03,5.594991e+03
1.551453e+03,5.593954e+03
1.554346e+03,5.599037e+03
1.557239e+03,5.591101e+03
1.560131e+03,5.580431e+03
1.563024e+03,5.569935e+03
1.565917e+03,5.581476e+03
1.568809e+03,5.604367e+03
1.571702e+03,5.593212e+03
1.574595e+03,5.566502e+03
1.577488e+03,5.572298e+03
1.580380e+03,5.561695e+03
1.583273e+03,5.591481e+03
1.586166e+03,5.579073e+03
1.589058e+03,5.566461e+03
1.591951e+03,5.553728e+03
1.594844e+03,5.553867e+03
1.597736e+03,5.533972e+03
1.600629e+03,5.523792e+03
1.603522e+03,5.531655e+03
1.606415e+03,5.497697e+03
1.609307e+03,5.510666e+03
1.612200e+03,5.470236e+03
1.615093e+03,5.461188e+03
1.617985e+03,5.451863e+03
1.620878e+03,5.461618e+03
1.623771e+03,5.435752e+03
1.626663e+03,5.408544e+03
1.629556e+03,5.438567e+03
1.632449e+03,5.427726e+03
1.635342e+03,5.371444e+03
1.638234e+03,5.388447e+03
1.641127e+03,5.364286e+03
1.644020e+03,5.377766e+03
1.646912e+03,5.351038e+03
1.649805e+03,5.351609e+03
1.652698e+03,5.347225e+03
1.655590e+03,5.346122e+03
1.658483e+03,5.349077e+03
1.661376e+03,5.311729e+03
1.664269e+03,5.327275e+03
1.667161e+03,5.327056e+03
1.670054e+03,5.273849e+03
1.672947e+03,5.285733e+03
1.675839e+03,5.275673e+03
1.678732e+03,5.285944e+03
1.681625e+03,5.288575e+03
1.684517e+03,5.235803e+03
1.687410e+03,5.271013e+03
1.690303e+03,5.248130e+03
1.693196e+03,5.252643e+03
1.696088e+03,5.243720e+03
1.698981e+03,5.241834e+03
1.701874e+03,5.210528e+03
1.704766e+03,5.222929e+03
1.707659e+03,5.205843e+03
1.710552e+03,5.214956e+03
1.713444e+03,5.177177e+03
1.716337e+03,5.174966e+03
1.719230e+03,5.200229e+03
1.722123e+03,5.191494e+03
1.725015e+03,5.160466e+03
1.727908e+03,5.134412e+03
1.730801e+03,5.134933e+03
1.733693e+03,5.126167e+03
1.736586e+03,5.134711e+03
1.739479e+03,5.145649e+03
1.742371e+03,5.121628e+03
1.745264e+03,5.097039e+03
1.748157e+03,5.097833e+03
1.751050e+03,5.099481e+03
1.753942e+03,5.071060e+03
1.756835e+03,5.086743e+03
1.759728e+03,5.046286e+03
1.762620e+03,5.047701e+03
1.765513e+03,5.057625e+03
1.768406e+03,5.064881e+03
1.771298e+03,5.041313e+03
1.774191e+03,5.029833e+03
1.777084e+03,5.029901e+03
1.779977e+03,5.028010e+03
1.782869e+03,5.005076e+03
1.785762e+03,4.998518e+03
1.788655e+03,4.985782e+03
1.791547e+03,4.939882e+03
1.794440e+03,4.976460e+03
1.797333e+03,4.959918e+03
1.800225e+03,4.956888e+03
1.803118e+03,4.934538e+03
1.806011e+03,4.941322e+03
1.808904e+03,4.907048e+03
1.811796e+03,4.921231e+03
1.814689e+03,4.909420e+03
1.817582e+03,4.916952e+03
1.820474e+03,4.905141e+03
1.823367e+03,4.909899e+03
1.826260e+03,4.884570e+03
1.829152e+03,4.862974e+03
1.832045e+03,4.895417e+03
1.834938e+03,4.865147e+03
1.837831e+03,4.835585e+03
1.840723e+03,4.825497e+03
1.843616e+03,4.856091e+03
1.846509e+03,4.835891e+03
1.849401e+03,4.823243e+03
1.852294e+03,4.794951e+03
1.855187e+03,4.791631e+03
1.858079e+03,4.788775e+03
1.860972e+03,4.742185e+03
1.863865e+03,4.756607e+03
1.866758e+03,4.757282e+03
1.869650e+03,4.773862e+03
1.872543e+03,4.769962e+03
1.875436e+03,4.754542e+03
1.878328e+03,4.747397e+03
1.881221e+03,4.714533e+03
1.884114e+03,4.702958e+03
1.887006e+03,4.697733e+03
1.889899e+03,4.695664e+03
1.892792e+03,4.692614e+03
1.895685e+03,4.690258e+03
1.898577e+03,4.673448e+03
1.901470e+03,4.676158e+03
1.904363e+03,4.631234e+03
1.907255e+03,4.670436e+03
1.910148e+03,4.646372e+03
1.913041e+03,4.634019e+03
1.915933e+03,4.589569e+03
1.918826e+03,4.642038e+03
1.921719e+03,4.621906e+03
1.924612e+03,4.561556e+03
1.927504e+03,4.598830e+03
1.930397e+03,4.588401e+03
1.933290e+03,4.569305e+03
1.936182e+03,4.545903e+03
1.939075e+03,4.567515e+03
1.941968e+03,4.551607e+03
1.944860e+03,4.555623e+03
1.947753e+03,4.533297e+03
1.950646e+03,4.524744e+03
1.953539e+03,4.522497e+03
1.956431e+03,4.498244e+03
1.959324e+03,4.527432e+03
1.962217e+03,4.504198e+03
1.965109e+03,4.454296e+03
1.968002e+03,4.493995e+03
1.970895e+03,4.465495e+03
1.973787e+03,4.477456e+03
1.976680e+03,4.455619e+03
1.979573e+03,4.424829e+03
1.982466e+03,4.442311e+03
1.985358e+03,4.398289e+03
1.988251e+03,4.396837e+03
1.991144e+03,4.405484e+03
1.994036e+03,4.371859e+03
1.996929e+03,4.405208e+03
1.999822e+03,4.372319e+03
2.002714e+03,4.390174e+03
2.005607e+03,4.339231e+03
2.008500e+03,4.342473e+03
2.011393e+03,4.303636e+03
2.014285e+03,4.325664e+03
2.017178e+03,4.308279e+03
2.020071e+03,4.317475e+03
2.022963e+03,4.314750e+03
2.025856e+03,4.261278e+03
2.028749e+03,4.293917e+03
2.031641e+03,4.266733e+03
2.034534e+03,4.255276e+03
2.037427e+03,4.232199e+03
2.040320e+03,4.251117e+03
2.043212e+03,4.231240e+03
2.046105e+03,4.221896e+03
2.048998e+03,4.239758e+03
2.051890e+03,4.216662e+03
2.054783e+03,4.161794e+03
2.057676e+03,4.189833e+03
2.060568e+03,4.169206e+03
2.063461e+03,4.187103e+03
2.066354e+03,4.152615e+03
2.069247e+03,4.139609e+03
2.072139e+03,4.140214e+03
2.075032e+03,4.119713e+03
2.077925e+03,4.136763e+03
2.080817e+03,4.108096e+03
2.083710e+03,4.101962e+03
2.086603e+03,4.078837e+03
2.089496e+03,4.127379e+03
2.092388e+03,4.091759e+03
2.095281e+03,4.063112e+03
2.098174e+03,4.086339e+03
2.101066e+03,4.070654e+03
2.103959e+03,4.045661e+03
2.106852e+03,4.030698e+03
2.109744e+03,4.050501e+03
2.112637e+03,4.038777e+03
2.115530e+03,3.992392e+03
2.118422e+03,3.989334e+03
2.121315e+03,4.043785e+03
2.124208e+03,3.993222e+03
2.127101e+03,3.968575e+03
2.129993e+03,3.970455e+03
2.132886e+03,3.962839e+03
2.135779e+03,3.943857e+03
2.138671e+03,3.965226e+03
2.141564e+03,3.923616e+03
2.144457e+03,3.898745e+03
2.147350e+03,3.880168e+03
2.150242e+03,3.909818e+03
2.153135e+03,3.916608e+03
2.156028e+03,3.896600e+03
2.158920e+03,3.870931e+03
2.161813e+03,3.879288e+03
2.164706e+03,3.852012e+03
2.167598e+03,3.854763e+03
2.170491e+03,3.858504e+03
2.173384e+03,3.841522e+03
2.176277e+03,3.824271e+03
2.179169e+03,3.812217e+03
2.182062e+03,3.804379e+03
2.184955e+03,3.817181e+03
2.187847e+03,3.823108e+03
2.190740e+03,3.800965e+03
2.193633e+03,3.774909e+03
2.196525e+03,3.774824e+03
2.199418e+03,3.774961e+03
2.202311e+03,3.781246e+03
2.205204e+03,3.749011e+03
2.208096e+03,3.741483e+03
2.210989e+03,3.706029e+03
2.213882e+03,3.672800e+03
2.216774e+03,3.725036e+03
2.219667e+03,3.705660e+03
2.222560e+03,3.687079e+03
2.225452e+03,3.678444e+03
2.228345e+03,3.653401e+03
2.231238e+03,3.681908e+03
2.234131e+03,3.689041e+03
2.237023e+03,3.636817e+03
2.239916e+03,3.623015e+03
2.242809e+03,3.608831e+03
2.245701e+03,3.633960e+03
2.248594e+03,3.613476e+03
2.251487e+03,3.600130e+03
2.254379e+03,3.594717e+03
2.257272e+03,3.596841e+03
2.260165e+03,3.579983e+03
2.263058e+03,3.590831e+03
2.265950e+03,3.553756e+03
2.268843e+03,3.565109e+03
2.271736e+03,3.500990e+03
2.274628e+03,3.507586e+03
2.277521e+03,3.536493e+03
2.280414e+03,3.523413e+03
2.283306e+03,3.527419e+03
2.286199e+03,3.472680e+03
2.289092e+03,3.474195e+03
2.291985e+03,3.480186e+03
2.294877e+03,3.491865e+03
2.297770e+03,3.485177e+03
2.300663e+03,3.493118e+03
2.303555e+03,3.443615e+03
2.306448e+03,3.454806e+03
2.309341e+03,3.434264e+03
2.312233e+03,3.431071e+03
2.315126e+03,3.434845e+03
2.318019e+03,3.425738e+03
2.320912e+03,3.433894e+03
2.323804e+03,3.439991e+03
2.326697e+03,3.436184e+03
2.329590e+03,3.432607e+03
2.332482e+03,3.387831e+03
2.335375e+03,3.396580e+03
2.338268e+03,3.404798e+03
2.341160e+03,3.363077e+03
2.344053e+03,3.376444e+03
2.346946e+03,3.366677e+03
2.349839e+03,3.358666e+03
2.352731e+03,3.310400e+03
2.355624e+03,3.318762e+03
2.358517e+03,3.350899e+03
2.361409e+03,3.343945e+03
2.364302e+03,3.304052e+03
2.367195e+03,3.298220e+03
2.370087e+03,3.279102e+03
2.372980e+03,3.287511e+03
2.375873e+03,3.295105e+03
2.378766e+03,3.272250e+03
2.381658e+03,3.266042e+03
2.384551e+03,3.273251e+03
2.387444e+03,3.266622e+03
2.390336e+03,3.255805e+03
2.393229e+03,3.259746e+03
2.396122e+03,3.236699e+03
2.399014e+03,3.226989e+03
2.401907e+03,3.229213e+03
2.404800e+03,3.221677e+03
2.407693e+03,3.222614e+03
2.410585e+03,3.204493e+03
2.413478e+03,3.186750e+03
2.416371e+03,3.184980e+03
2.419263e+03,3.206697e+03
2.422156e+03,3.186212e+03
2.425049e+03,3.128658e+03
2.427941e+03,3.150680e+03
2.430834e+03,3.166889e+03
2.433727e+03,3.158397e+03
2.436620e+03,3.170760e+03
2.439512e+03,3.145110e+03
2.442405e+03,3.120874e+03
2.445298e+03,3.125664e+03
2.448190e+03,3.139731e+03
2.451083e+03,3.085670e+03
2.453976e+03,3.109857e+03
2.456868e+03,3.104238e+03
2.459761e+03,3.071168e+03
2.462654e+03,3.083254e+03
2.465547e+03,3.112565e+03
2.468439e+03,3.062532e+03
2.471332e+03,3.077132e+03
2.474225e+03,3.052633e+03
2.477117e+03,3.041234e+03
2.480010e+03,3.045083e+03
2.482903e+03,3.050052e+03
2.485795e+03,3.042810e+03
2.488688e+03,3.013944e+03
2.491581e+03,3.024236e+03
2.494474e+03,3.037377e+03
2.497366e+03,3.034285e+03
2.500259e+03,3.017022e+03
2.503152e+03,3.021160e+03
2.506044e+03,3.020174e+03
2.508937e+03,3.008219e+03
2.511830e+03,2.990094e+03
2.514722e+03,2.974112e+03
2.517615e+03,2.980958e+03
2.520508e+03,2.993764e+03
2.523401e+03,2.948047e+03
2.526293e+03,2.957245e+03
2.529186e+03,2.962805e+03
2.532079e+03,2.937511e+03
2.534971e+03,2.949173e+03
2.537864e+03,2.926877e+03
2.540757e+03,2.933789e+03
2.543649e+03,2.946706e+03
2.546542e+03,2.947126e+03
2.549435e+03,2.946565e+03
2.552328e+03,2.916834e+03
2.555220e+03,2.891439e+03
2.558113e+03,2.906043e+03
2.561006e+03,2.917135e+03
2.563898e+03,2.898263e+03
2.566791e+03,2.864564e+03
2.569684e+03,2.877141e+03
2.572576e+03,2.896209e+03
2.575469e+03,2.867438e+03
2.578362e+03,2.889627e+03
2.581255e+03,2.885967e+03
2.584147e+03,2.861861e+03
2.587040e+03,2.821407e+03
2.589933e+03,2.855217e+03
2.592825e+03,2.848318e+03
2.595718e+03,2.831667e+03
2.598611e+03,2.824881e+03
2.601503e+03,2.820033e+03
2.604396e+03,2.820085e+03
2.607289e+03,2.826583e+03
2.610182e+03,2.828869e+03
2.613074e+03,2.811208e+03
2.615967e+03,2.811747e+03
2.618860e+03,2.800281e+03
2.621752e+03,2.795223e+03
2.624645e+03,2.781375e+03
2.627538e+03,2.787806e+03
2.630430e+03,2.787844e+03
2.633323e+03,2.769908e+03
2.636216e+03,2.765358e+03
2.639109e+03,2.745389e+03
2.642001e+03,2.770520e+03
2.644894e+03,2.749909e+03
2.647787e+03,2.738937e+03
2.650679e+03,2.765522e+03
2.653572e+03,2.733556e+03
2.656465e+03,2.743222e+03
2.659357e+03,2.741855e+03
2.662250e+03,2.708641e+03
2.665143e+03,2.716633e+03
2.668036e+03,2.731917e+03
2.670928e+03,2.737924e+03
2.673821e+03,2.697625e+03
2.676714e+03,2.680078e+03
2.679606e+03,2.671848e+03
2.682499e+03,2.675176e+03
2.685392e+03,2.705040e+03
2.688284e+03,2.684997e+03
2.691177e+03,2.692272e+03
2.694070e+03,2.664613e+03
2.696963e+03,2.639348e+03
2.699855e+03,2.675565e+03
2.702748e+03,2.675165e+03
2.705641e+03,2.641714e+03
2.708533e+03,2.652238e+03
2.711426e+03,2.613024e+03
2.714319e+03,2.648497e+03
2.717211e+03,2.662491e+03
2.720104e+03,2.653448e+03
2.722997e+03,2.593519e+03
2.725890e+03,2.618460e+03
2.728782e+03,2.603438e+03
2.731675e+03,2.611071e+03
2.734568e+03,2.626188e+03
2.737460e+03,2.610964e+03
2.740353e+03,2.597142e+03
2.743246e+03,2.591515e+03
2.746138e+03,2.606130e+03
2.749031e+03,2.595911e+03
2.751924e+03,2.580906e+03
2.754817e+03,2.558971e+03
2.757709e+03,2.567203e+03
2.760602e+03,2.586475e+03
2.763495e+03,2.586383e+03
2.766387e+03,2.567048e+03
2.769280e+03,2.546228e+03
2.772173e+03,2.560367e+03
2.775065e+03,2.543290e+03
2.777958e+03,2.560207e+03
2.780851e+03,2.570501e+03
2.783744e+03,2.546114e+03
2.786636e+03,2.504890e+03
2.789529e+03,2.531464e+03
2.792422e+03,2.533056e+03
2.795314e+03,2.498402e+03
2.798207e+03,2.493615e+03
2.801100e+03,2.515750e+03
2.803992e+03,2.491016e+03
2.806885e+03,2.480946e+03
2.809778e+03,2.491521e+03
2.812671e+03,2.507915e+03
2.815563e+03,2.480200e+03
2.818456e+03,2.484870e+03
2.821349e+03,2.450039e+03
2.824241e+03,2.485756e+03
2.827134e+03,2.464542e+03
2.830027e+03,2.457708e+03
2.832919e+03,2.451646e+03
2.835812e+03,2.436709e+03
2.838705e+03,2.468621e+03
2.841598e+03,2.454984e+03
2.844490e+03,2.441270e+03
2.847383e+03,2.480330e+03
2.850276e+03,2.464027e+03
2.853168e+03,2.424444e+03
2.856061e+03,2.434886e+03
2.858954e+03,2.390160e+03
2.861846e+03,2.441706e+03
2.864739e+03,2.422093e+03
2.867632e+03,2.455674e+03
2.870525e+03,2.420714e+03
2.873417e+03,2.455272e+03
2.876310e+03,2.422640e+03
2.879203e+03,2.420772e+03
2.882095e+03,2.425910e+03
2.884988e+03,2.433572e+03
2.887881e+03,2.416866e+03
2.890773e+03,2.415166e+03
2.893666e+03,2.436257e+03
2.896559e+03,2.393492e+03
2.899452e+03,2.424899e+03
2.902344e+03,2.360721e+03
2.905237e+03,2.405442e+03
2.908130e+03,2.371063e+03
2.911022e+03,2.356212e+03
2.913915e+03,2.380050e+03
2.916808e+03,2.385061e+03
2.919700e+03,2.357334e+03
2.922593e+03,2.343782e+03
2.925486e+03,2.336693e+03
2.928379e+03,2.392546e+03
2.931271e+03,2.335554e+03
2.934164e+03,2.338046e+03
2.937057e+03,2.289474e+03
2.939949e+03,2.339603e+03
2.942842e+03,2.326440e+03
2.945735e+03,2.377363e+03
2.948627e+03,2.335066e+03
2.951520e+03,2.335092e+03
2.954413e+03,2.286320e+03
2.957306e+03,2.317139e+03
2.960198e+03,2.317528e+03
2.963091e+03,2.336604e+03
2.965984e+03,2.305258e+03
2.968876e+03,2.267965e+03
2.971769e+03,2.260536e+03
2.974662e+03,2.262961e+03
2.977554e+03,2.273806e+03
2.980447e+03,2.271100e+03
2.983340e+03,2.262356e+03
2.986233e+03,2.290961e+03
2.989125e+03,2.264763e+03
2.992018e+03,2.280964e+03
2.994911e+03,2.235370e+03
2.997803e+03,2.235835e+03
3.000696e+03,2.211389e+03
3.003589e+03,2.288534e+03
3.006481e+03,2.275132e+03
3.009374e+03,2.249717e+03
3.012267e+03,2.242740e+03
3.015160e+03,2.204703e+03
3.018052e+03,2.241531e+03
3.020945e+03,2.204829e+03
3.023838e+03,2.215609e+03
3.026730e+03,2.228580e+03
3.029623e+03,2.204112e+03
3.032516e+03,2.150123e+03
3.035408e+03,2.177556e+03
3.038301e+03,2.204175e+03
3.041194e+03,2.208607e+03
3.044087e+03,2.194895e+03
3.046979e+03,2.208491e+03
3.049872e+03,2.212449e+03
3.052765e+03,2.145987e+03
3.055657e+03,2.165446e+03
3.058550e+03,2.224375e+03
3.061443e+03,2.183923e+03
3.064335e+03,2.187313e+03
3.067228e+03,2.164972e+03
3.070121e+03,2.126616e+03
3.073014e+03,2.152047e+03
3.075906e+03,2.199586e+03
3.078799e+03,2.176082e+03
3.081692e+03,2.176954e+03
3.084584e+03,2.152567e+03
3.087477e+03,2.122792e+03
3.090370e+03,2.161619e+03
3.093262e+03,2.127555e+03
3.096155e+03,2.186232e+03
3.099048e+03,2.084500e+03
3.101941e+03,2.138639e+03
3.104833e+03,2.176912e+03
3.107726e+03,2.117798e+03
3.110619e+03,2.136042e+03
3.113511e+03,2.142532e+03
3.116404e+03,2.128652e+03
3.119297e+03,2.114016e+03
3.122189e+03,2.104742e+03
3.125082e+03,2.162273e+03
3.127975e+03,2.133076e+03
3.130868e+03,2.089882e+03
3.133760e+03,2.091910e+03
3.136653e+03,2.138546e+03
3.139546e+03,2.084371e+03
3.142438e+03,2.085795e+03
3.145331e+03,2.097935e+03
3.148224e+03,2.069749e+03
3.151116e+03,2.106803e+03
3.154009e+03,2.131011e+03
3.156902e+03,2.086799e+03
3.159795e+03,2.086144e+03
3.162687e+03,2.112571e+03
3.165580e+03,2.112868e+03
3.168473e+03,2.068722e+03
3.171365e+03,2.075163e+03
3.174258e+03,2.139015e+03
3.177151e+03,2.072685e+03
3.180043e+03,2.098545e+03
3.182936e+03,2.096734e+03
3.185829e+03,2.108560e+03
3.188722e+03,2.079103e+03
3.191614e+03,2.126167e+03
3.194507e+03,2.167018e+03
3.197400e+03,2.064462e+03
3.200292e+03,2.069632e+03
3.203185e+03,0.000000e+00
3.206078e+03,0.000000e+00
3.208970e+03,0.000000e+00
3.211863e+03,0.000000e+00
3.214756e+03,0.000000e+00
3.217649e+03,0.000000e+00
3.220541e+03,0.000000e+00
3.223434e+03,0.000000e+00
3.226327e+03,0.000000e+00
3.229219e+03,0.000000e+00
3.232112e+03,0.000000e+00
3.235005e+03,0.000000e+00
3.237897e+03,0.000000e+00
3.240790e+03,0.000000e+00
3.243683e+03,0.000000e+00
3.246576e+03,0.000000e+00
3.249468e+03,0.000000e+00
3.252361e+03,0.000000e+00
3.255254e+03,0.000000e+00
3.258146e+03,0.000000e+00
3.261039e+03,0.000000e+00
3.263932e+03,0.000000e+00
3.266824e+03,0.000000e+00
3.269717e+03,0.000000e+00
3.272610e+03,0.000000e+00
3.275503e+03,0.000000e+00
3.278395e+03,0.000000e+00
3.281288e+03,0.000000e+00
3.284181e+03,0.000000e+00
3.287073e+03,0.000000e+00
3.289966e+03,0.000000e+00
3.292859e+03,0.000000e+00
3.295751e+03,0.000000e+00
3.298644e+03,0.000000e+00
3.301537e+03,0.000000e+00
3.304430e+03,0.000000e+00
3.307322e+03,0.000000e+00
3.310215e+03,0.000000e+00
3.313108e+03,0.000000e+00
3.316000e+03,0.000000e+00
3.318893e+03,0.000000e+00
3.321786e+03,0.000000e+00
3.324678e+03,0.000000e+00
3.327571e+03,0.000000e+00
3.330464e+03,0.000000e+00
3.333357e+03,0.000000e+00
3.336249e+03,0.000000e+00
3.339142e+03,0.000000e+00
3.342035e+03,0.000000e+00
3.344927e+03,0.000000e+00
3.347820e+03,0.000000e+00
3.350713e+03,0.000000e+00
3.353605e+03,0.000000e+00
3.356498e+03,0.000000e+00
3.359391e+03,0.000000e+00
3.362284e+03,0.000000e+00
3.365176e+03,0.000000e+00
3.368069e+03,0.000000e+00
3.370962e+03,0.000000e+00
3.373854e+03,0.000000e+00
3.376747e+03,0.000000e+00
3.379640e+03,0.000000e+00
3.382532e+03,0.000000e+00
3.385425e+03,0.000000e+00
3.388318e+03,0.000000e+00
3.391211e+03,0.000000e+00
3.394103e+03,0.000000e+00
3.396996e+03,0.000000e+00
3.399889e+03,0.000000e+00
3.402781e+03,0.000000e+00
3.405674e+03,0.000000e+00
3.408567e+03,0.000000e+00
3.411459e+03,0.000000e+00
3.414352e+03,0.000000e+00
3.417245e+03,0.000000e+00
3.420138e+03,0.000000e+00
3.423030e+03,0.000000e+00
3.425923e+03,0.000000e+00
3.428816e+03,0.000000e+00
3.431708e+03,0.000000e+00
3.434601e+03,0.000000e+00
3.437494e+03,0.000000e+00
3.440386e+03,0.000000e+00
3.443279e+03,0.000000e+00
3.446172e+03,0.000000e+00
3.449065e+03,0.000000e+00
3.451957e+03,0.000000e+00
3.454850e+03,0.000000e+00
3.457743e+03,0.000000e+00
3.460635e+03,0.000000e+00
3.463528e+03,0.000000e+00
3.466421e+03,0.000000e+00
3.469313e+03,0.000000e+00
3.472206e+03,0.000000e+00
3.475099e+03,0.000000e+00
3.477992e+03,0.000000e+00
3.480884e+03,0.000000e+00
3.483777e+03,0.000000e+00
3.486670e+03,0.000000e+00
3.489563e+03,0.000000e+00
3.492455e+03,0.000000e+00
3.495348e+03,0.000000e+00
3.498240e+03,0.000000e+00
3.500169e+03,0.000000e+00