File: RAMAN_data/20012023_r3/blue fibre11.CSV
9.931763e+01,0.000000e+00
1.022103e+02,0.000000e+00
1.051030e+02,0.000000e+00
1.079957e+02,0.000000e+00
1.108884e+02,0.000000e+00
1.137811e+02,0.000000e+00
1.166738e+02,0.000000e+00
1.195665e+02,0.000000e+00
1.224592e+02,0.000000e+00
1.253519e+02,0.000000e+00
1.282446e+02,0.000000e+00
1.311373e+02,0.000000e+00
1.340300e+02,0.000000e+00
1.369227e+02,0.000000e+00
1.398154e+02,0.000000e+00
1.427081e+02,0.000000e+00
1.456008e+02,0.000000e+00
1.484935e+02,0.000000e+00
1.513862e+02,0.000000e+00
1.542789e+02,0.000000e+00
1.571716e+02,0.000000e+00
1.600643e+02,0.000000e+00
1.629570e+02,0.000000e+00
1.658497e+02,0.000000e+00
1.687424e+02,0.000000e+00
1.716351e+02,0.000000e+00
1.745278e+02,0.000000e+00
1.774205e+02,0.000000e+00
1.803132e+02,0.000000e+00
1.832059e+02,0.000000e+00
1.860986e+02,0.000000e+00
1.889913e+02,0.000000e+00
1.918840e+02,0.000000e+00
1.947767e+02,0.000000e+00
1.976694e+02,0.000000e+00
2.005621e+02,6.162532e+03
2.034548e+02,6.171958e+03
2.063475e+02,6.199353e+03
2.092402e+02,6.189024e+03
2.121329e+02,6.172928e+03
2.150256e+02,6.201817e+03
2.179183e+02,6.197634e+03
2.208110e+02,6.227752e+03
2.237037e+02,6.207972e+03
2.265964e+02,6.199416e+03
2.294892e+02,6.201994e+03
2.323819e+02,6.224701e+03
2.352746e+02,6.265528e+03
2.381673e+02,6.261430e+03
2.410600e+02,6.254900e+03
2.439527e+02,6.254565e+03
2.468454e+02,6.281866e+03
2.497381e+02,6.281404e+03
2.526308e+02,6.287702e+03
2.555235e+02,6.291842e+03
2.584161e+02,6.286865e+03
2.613088e+02,6.276624e+03
2.642015e+02,6.311866e+03
2.670942e+02,6.329165e+03
2.699869e+02,6.332067e+03
2.728796e+02,6.320971e+03
2.757723e+02,6.336661e+03
2.786650e+02,6.329987e+03
2.815577e+02,6.338767e+03
2.844504e+02,6.328127e+03
2.873431e+02,6.350896e+03
2.902358e+02,6.367852e+03
2.931285e+02,6.364625e+03
2.960212e+02,6.360468e+03
2.989139e+02,6.359404e+03
3.018066e+02,6.348702e+03
3.046993e+02,6.359554e+03
3.075920e+02,6.339902e+03
3.104847e+02,6.377477e+03
3.133774e+02,6.401856e+03
3.162701e+02,6.393463e+03
3.191628e+02,6.374532e+03
3.220555e+02,6.373296e+03
3.249482e+02,6.397012e+03
3.278409e+02,6.390609e+03
3.307336e+02,6.385308e+03
3.336263e+02,6.413430e+03
3.365190e+02,6.396509e+03
3.394117e+02,6.399935e+03
3.423044e+02,6.408316e+03
3.451971e+02,6.417545e+03
3.480898e+02,6.419113e+03
3.509825e+02,6.385783e+03
3.538752e+02,6.402583e+03
3.567680e+02,6.420216e+03
3.596607e+02,6.424079e+03
3.625534e+02,6.417715e+03
3.654461e+02,6.411370e+03
3.683388e+02,6.425660e+03
3.712315e+02,6.436778e+03
3.741242e+02,6.450980e+03
3.770169e+02,6.467585e+03
3.799096e+02,6.451463e+03
3.828023e+02,6.436916e+03
3.856950e+02,6.449986e+03
3.885877e+02,6.447187e+03
3.914804e+02,6.451471e+03
3.943731e+02,6.432564e+03
3.972658e+02,6.437283e+03
4.001585e+02,6.424773e+03
4.030512e+02,6.437320e+03
4.059439e+02,6.452181e+03
4.088366e+02,6.451903e+03
4.117293e+02,6.431223e+03
4.146220e+02,6.447664e+03
4.175147e+02,6.442233e+03
4.204074e+02,6.463323e+03
4.233001e+02,6.469673e+03
4.261928e+02,6.434823e+03
4.290855e+02,6.429029e+03
4.319782e+02,6.471021e+03
4.348709e+02,6.451070e+03
4.377636e+02,6.449590e+03
4.406563e+02,6.441045e+03
4.435490e+02,6.457569e+03
4.464417e+02,6.443851e+03
4.493344e+02,6.437841e+03
4.522271e+02,6.485537e+03
4.551198e+02,6.475177e+03
4.580125e+02,6.467370e+03
4.609052e+02,6.467359e+03
4.637979e+02,6.463221e+03
4.666906e+02,6.473682e+03
4.695833e+02,6.456781e+03
4.724760e+02,6.456609e+03
4.753687e+02,6.480000e+03
4.782614e+02,6.452585e+03
4.811541e+02,6.455196e+03
4.840468e+02,6.480522e+03
4.869395e+02,6.464081e+03
4.898322e+02,6.444175e+03
4.927249e+02,6.476447e+03
4.956176e+02,6.479143e+03
4.985103e+02,6.486041e+03
5.014030e+02,6.487122e+03
5.042957e+02,6.476284e+03
5.071884e+02,6.471935e+03
5.100811e+02,6.462806e+03
5.129738e+02,6.491229e+03
5.158665e+02,6.495680e+03
5.187592e+02,6.487485e+03
5.216519e+02,6.467389e+03
5.245446e+02,6.481722e+03
5.274373e+02,6.475268e+03
5.303300e+02,6.479320e+03
5.332227e+02,6.467686e+03
5.361154e+02,6.488077e+03
5.390081e+02,6.466251e+03
5.419008e+02,6.471065e+03
5.447935e+02,6.480779e+03
5.476862e+02,6.490202e+03
5.505789e+02,6.474766e+03
5.534716e+02,6.453894e+03
5.563643e+02,6.456810e+03
5.592570e+02,6.470811e+03
5.621497e+02,6.476544e+03
5.650424e+02,6.485628e+03
5.679351e+02,6.451103e+03
5.708278e+02,6.439092e+03
5.737205e+02,6.461422e+03
5.766132e+02,6.481767e+03
5.795059e+02,6.459195e+03
5.823986e+02,6.477930e+03
5.852913e+02,6.447094e+03
5.881840e+02,6.466992e+03
5.910767e+02,6.465420e+03
5.939694e+02,6.458101e+03
5.968621e+02,6.450964e+03
5.997548e+02,6.471919e+03
6.026475e+02,6.487136e+03
6.055402e+02,6.451689e+03
6.084329e+02,6.448694e+03
6.113256e+02,6.450383e+03
6.142183e+02,6.432889e+03
6.171110e+02,6.453331e+03
6.200037e+02,6.447356e+03
6.228964e+02,6.429111e+03
6.257891e+02,6.430651e+03
6.286818e+02,6.438693e+03
6.315745e+02,6.436602e+03
6.344672e+02,6.433796e+03
6.373599e+02,6.422170e+03
6.402526e+02,6.448010e+03
6.431453e+02,6.433291e+03
6.460380e+02,6.412296e+03
6.489307e+02,6.417485e+03
6.518234e+02,6.423599e+03
6.547161e+02,6.444534e+03
6.576088e+02,6.433015e+03
6.605015e+02,6.421314e+03
6.633942e+02,6.393925e+03
6.662869e+02,6.419645e+03
6.691796e+02,6.414212e+03
6.720723e+02,6.413411e+03
6.749650e+02,6.394382e+03
6.778577e+02,6.415605e+03
6.807504e+02,6.388249e+03
6.836431e+02,6.385136e+03
6.865358e+02,6.366541e+03
6.894285e+02,6.386772e+03
6.923212e+02,6.394194e+03
6.952139e+02,6.358635e+03
6.981066e+02,6.383779e+03
7.009993e+02,6.395891e+03
7.038920e+02,6.377402e+03
7.067847e+02,6.378520e+03
7.096774e+02,6.388048e+03
7.125701e+02,6.413594e+03
7.154628e+02,6.397588e+03
7.183555e+02,6.387122e+03
7.212482e+02,6.387206e+03
7.241409e+02,6.399653e+03
7.270336e+02,6.370565e+03
7.299263e+02,6.387721e+03
7.328190e+02,6.398890e+03
7.357117e+02,6.352703e+03
7.386044e+02,6.367806e+03
7.414971e+02,6.387873e+03
7.443898e+02,6.424284e+03
7.472825e+02,6.461063e+03
7.501752e+02,6.409091e+03
7.530679e+02,6.383302e+03
7.559606e+02,6.357496e+03
7.588533e+02,6.358415e+03
7.617460e+02,6.361747e+03
7.646387e+02,6.346788e+03
7.675314e+02,6.341904e+03
7.704241e+02,6.338672e+03
7.733168e+02,6.321922e+03
7.762095e+02,6.334451e+03
7.791022e+02,6.368934e+03
7.819949e+02,6.322623e+03
7.848876e+02,6.317404e+03
7.877803e+02,6.317985e+03
7.906730e+02,6.309395e+03
7.935657e+02,6.319255e+03
7.964584e+02,6.295534e+03
7.993511e+02,6.283957e+03
8.022438e+02,6.303708e+03
8.051365e+02,6.296349e+03
8.080292e+02,6.290235e+03
8.109219e+02,6.278684e+03
8.138146e+02,6.265661e+03
8.167073e+02,6.276737e+03
8.196000e+02,6.285363e+03
8.224927e+02,6.271264e+03
8.253854e+02,6.273477e+03
8.282781e+02,6.300641e+03
8.311708e+02,6.254810e+03
8.340635e+02,6.292644e+03
8.369562e+02,6.279144e+03
8.398489e+02,6.262104e+03
8.427416e+02,6.259955e+03
8.456343e+02,6.253500e+03
8.485270e+02,6.240238e+03
8.514197e+02,6.245951e+03
8.543124e+02,6.263604e+03
8.572051e+02,6.251353e+03
8.600978e+02,6.230177e+03
8.629905e+02,6.224495e+03
8.658832e+02,6.225083e+03
8.687759e+02,6.233524e+03
8.716686e+02,6.218696e+03
8.745613e+02,6.246856e+03
8.774540e+02,6.232097e+03
8.803467e+02,6.215456e+03
8.832394e+02,6.220201e+03
8.861321e+02,6.231236e+03
8.890248e+02,6.228425e+03
8.919175e+02,6.183519e+03
8.948102e+02,6.178889e+03
8.977029e+02,6.207565e+03
9.005956e+02,6.174734e+03
9.034883e+02,6.171588e+03
9.063810e+02,6.183568e+03
9.092737e+02,6.186711e+03
9.121664e+02,6.159993e+03
9.150591e+02,6.161358e+03
9.179518e+02,6.177508e+03
9.208445e+02,6.130627e+03
9.237372e+02,6.147744e+03
9.266299e+02,6.121915e+03
9.295226e+02,6.163794e+03
9.324153e+02,6.131911e+03
9.353080e+02,6.126158e+03
9.382007e+02,6.102382e+03
9.410934e+02,6.106247e+03
9.439861e+02,6.106683e+03
9.468788e+02,6.114262e+03
9.497715e+02,6.121694e+03
9.526642e+02,6.090803e+03
9.555569e+02,6.104040e+03
9.584496e+02,6.092741e+03
9.613423e+02,6.106022e+03
9.642350e+02,6.103019e+03
9.671277e+02,6.104333e+03
9.700204e+02,6.098192e+03
9.729131e+02,6.076002e+03
9.758058e+02,6.078394e+03
9.786985e+02,6.088609e+03
9.815912e+02,6.055921e+03
9.844839e+02,6.044553e+03
9.873766e+02,6.043335e+03
9.902693e+02,6.034497e+03
9.931620e+02,6.048688e+03
9.960547e+02,6.062036e+03
9.989474e+02,6.025979e+03
1.001840e+03,5.992875e+03
1.004733e+03,6.007491e+03
1.007626e+03,6.036076e+03
1.010518e+03,6.052336e+03
1.013411e+03,5.998829e+03
1.016304e+03,5.992913e+03
1.019196e+03,5.990225e+03
1.022089e+03,5.989787e+03
1.024982e+03,6.002442e+03
1.027875e+03,6.004081e+03
1.030767e+03,5.995459e+03
1.033660e+03,5.991393e+03
1.036552e+03,5.999566e+03
1.039445e+03,5.971492e+03
1.042338e+03,5.995046e+03
1.045231e+03,5.978438e+03
1.048123e+03,5.961098e+03
1.051016e+03,5.976610e+03
1.053909e+03,6.004142e+03
1.056802e+03,5.983873e+03
1.059694e+03,5.966998e+03
1.062587e+03,5.962933e+03
1.065479e+03,5.944704e+03
1.068372e+03,5.964964e+03
1.071265e+03,5.963767e+03
1.074158e+03,5.973099e+03
1.077050e+03,5.932479e+03
1.079943e+03,5.926336e+03
1.082836e+03,5.936096e+03
1.085729e+03,5.937182e+03
1.088621e+03,5.967373e+03
1.091514e+03,5.933730e+03
1.094406e+03,5.917261e+03
1.097299e+03,5.924950e+03
1.100192e+03,5.936489e+03
1.103085e+03,5.922173e+03
1.105977e+03,5.929250e+03
1.108870e+03,5.905097e+03
1.111763e+03,5.904991e+03
1.114656e+03,5.906967e+03
1.117548e+03,5.915890e+03
1.120441e+03,5.901917e+03
1.123334e+03,5.903552e+03
1.126226e+03,5.881328e+03
1.129119e+03,5.875023e+03
1.132012e+03,5.896692e+03
1.134904e+03,5.869459e+03
1.137797e+03,5.868013e+03
1.140690e+03,5.878500e+03
1.143583e+03,5.903081e+03
1.146475e+03,5.887547e+03
1.149368e+03,5.896739e+03
1.152261e+03,5.885158e+03
1.155153e+03,5.878769e+03
1.158046e+03,5.845936e+03
1.160939e+03,5.852847e+03
1.163831e+03,5.883393e+03
1.166724e+03,5.858911e+03
1.169617e+03,5.849988e+03
1.172510e+03,5.831575e+03
1.175402e+03,5.817006e+03
1.178295e+03,5.846669e+03
1.181188e+03,5.838194e+03
1.184080e+03,5.829108e+03
1.186973e+03,5.821276e+03
1.189866e+03,5.849343e+03
1.192758e+03,5.819998e+03
1.195651e+03,5.833550e+03
1.198544e+03,5.833506e+03
1.201437e+03,5.778751e+03
1.204329e+03,5.790644e+03
1.207222e+03,5.777901e+03
1.210115e+03,5.798719e+03
1.213007e+03,5.776142e+03
1.215900e+03,5.759583e+03
1.218793e+03,5.768281e+03
1.221685e+03,5.753628e+03
1.224578e+03,5.753799e+03
1.227471e+03,5.767956e+03
1.230364e+03,5.739729e+03
1.233256e+03,5.722365e+03
1.236149e+03,5.738769e+03
1.239042e+03,5.722979e+03
1.241934e+03,5.744682e+03
1.244827e+03,5.722361e+03
1.247720e+03,5.717813e+03
1.250612e+03,5.720188e+03
1.253505e+03,5.706997e+03
1.256398e+03,5.726905e+03
1.259291e+03,5.731411e+03
1.262183e+03,5.711995e+03
1.265076e+03,5.713880e+03
1.267969e+03,5.709075e+03
1.270861e+03,5.701893e+03
1.273754e+03,5.703459e+03
1.276647e+03,5.730922e+03
1.279539e+03,5.690625e+03
1.282432e+03,5.676107e+03
1.285325e+03,5.683583e+03
1.288218e+03,5.674745e+03
1.291110e+03,5.675180e+03
1.294003e+03,5.680279e+03
1.296896e+03,5.647302e+03
1.299788e+03,5.677958e+03
1.302681e+03,5.676193e+03
1.305574e+03,5.677982e+03
1.308466e+03,5.686553e+03
1.311359e+03,5.674822e+03
1.314252e+03,5.661866e+03
1.317145e+03,5.652856e+03
1.320037e+03,5.665903e+03
1.322930e+03,5.650759e+03
1.325823e+03,5.652819e+03
1.328715e+03,5.640482e+03
1.331608e+03,5.660521e+03
1.334501e+03,5.679768e+03
1.337393e+03,5.712332e+03
1.340286e+03,5.673531e+03
1.343179e+03,5.644915e+03
1.346072e+03,5.625786e+03
1.348964e+03,5.654358e+03
1.351857e+03,5.590595e+03
1.354750e+03,5.602493e+03
1.357642e+03,5.545908e+03
1.360535e+03,5.547322e+03
1.363428e+03,5.561924e+03
1.366320e+03,5.536099e+03
1.369213e+03,5.509829e+03
1.372106e+03,5.509306e+03
1.374999e+03,5.503288e+03
1.377891e+03,5.517781e+03
1.380784e+03,5.495652e+03
1.383677e+03,5.492022e+03
1.386569e+03,5.490405e+03
1.389462e+03,5.472198e+03
1.392355e+03,5.462103e+03
1.395247e+03,5.473000e+03
1.398140e+03,5.473579e+03
1.401033e+03,5.459461e+03
1.403926e+03,5.442891e+03
1.406818e+03,5.441120e+03
1.409711e+03,5.457911e+03
1.412604e+03,5.433595e+03
1.415496e+03,5.438101e+03
1.418389e+03,5.421406e+03
1.421282e+03,5.399125e+03
1.424174e+03,5.416056e+03
1.427067e+03,5.421495e+03
1.429960e+03,5.396071e+03
1.432853e+03,5.410968e+03
1.435745e+03,5.373063e+03
1.438638e+03,5.372588e+03
1.441531e+03,5.372298e+03
1.444423e+03,5.368298e+03
1.447316e+03,5.336373e+03
1.450209e+03,5.342862e+03
1.453101e+03,5.347478e+03
1.455994e+03,5.348557e+03
1.458887e+03,5.343680e+03
1.461780e+03,5.339132e+03
1.464672e+03,5.330653e+03
1.467565e+03,5.303225e+03
1.470458e+03,5.298144e+03
1.473350e+03,5.303363e+03
1.476243e+03,5.297229e+03
1.479136e+03,5.299522e+03
1.482028e+03,5.267215e+03
1.484921e+03,5.284666e+03
1.487814e+03,5.265024e+03
1.490707e+03,5.264504e+03
1.493599e+03,5.257770e+03
1.496492e+03,5.271536e+03
1.499385e+03,5.246702e+03
1.502277e+03,5.242950e+03
1.505170e+03,5.234511e+03
1.508063e+03,5.235990e+03
1.510955e+03,5.231986e+03
1.513848e+03,5.239396e+03
1.516741e+03,5.203127e+03
1.519634e+03,5.241616e+03
1.522526e+03,5.238172e+03
1.525419e+03,5.259500e+03
1.528312e+03,5.238724e+03
1.531204e+03,5.251647e+03
1.534097e+03,5.257281e+03
1.536990e+03,5.285346e+03
1.539882e+03,5.309186e+03
1.542775e+03,5.298451e+03
1.545668e+03,5.277005e+03
1.548561e+03,5.268243e+03
1.551453e+03,5.250820e+03
1.554346e+03,5.226492e+03
1.557239e+03,5.203992e+03
1.560131e+03,5.206495e+03
1.563024e+03,5.199012e+03
1.565917e+03,5.162458e+03
1.568809e+03,5.199253e+03
1.571702e+03,5.185866e+03
1.574595e+03,5.175675e+03
1.577488e+03,5.135136e+03
1.580380e+03,5.156729e+03
1.583273e+03,5.177655e+03
1.586166e+03,5.180230e+03
1.589058e+03,5.148102e+03
1.591951e+03,5.149115e+03
1.594844e+03,5.169546e+03
1.597736e+03,5.150657e+03
1.600629e+03,5.143061e+03
1.603522e+03,5.126032e+03
1.606415e+03,5.108635e+03
1.609307e+03,5.105666e+03
1.612200e+03,5.099279e+03
1.615093e+03,5.086161e+03
1.617985e+03,5.068982e+03
1.620878e+03,5.058074e+03
1.623771e+03,5.042205e+03
1.626663e+03,5.045554e+03
1.629556e+03,5.013267e+03
1.632449e+03,4.997425e+03
1.635342e+03,5.009411e+03
1.638234e+03,5.005545e+03
1.641127e+03,4.989798e+03
1.644020e+03,4.979037e+03
1.646912e+03,4.979752e+03
1.649805e+03,4.979600e+03
1.652698e+03,4.954862e+03
1.655590e+03,4.955960e+03
1.658483e+03,4.921768e+03
1.661376e+03,4.930475e+03
1.664269e+03,4.927890e+03
1.667161e+03,4.914318e+03
1.670054e+03,4.923977e+03
1.672947e+03,4.923040e+03
1.675839e+03,4.903170e+03
1.678732e+03,4.901604e+03
1.681625e+03,4.873857e+03
1.684517e+03,4.872023e+03
1.687410e+03,4.884790e+03
1.690303e+03,4.866134e+03
1.693196e+03,4.873075e+03
1.696088e+03,4.857201e+03
1.698981e+03,4.830750e+03
1.701874e+03,4.843416e+03
1.704766e+03,4.830181e+03
1.707659e+03,4.820783e+03
1.710552e+03,4.839856e+03
1.713444e+03,4.830942e+03
1.716337e+03,4.812292e+03
1.719230e+03,4.815429e+03
1.722123e+03,4.814381e+03
1.725015e+03,4.811770e+03
1.727908e+03,4.807459e+03
1.730801e+03,4.803123e+03
1.733693e+03,4.805234e+03
1.736586e+03,4.819950e+03
1.739479e+03,4.780417e+03
1.742371e+03,4.803025e+03
1.745264e+03,4.785140e+03
1.748157e+03,4.748768e+03
1.751050e+03,4.768100e+03
1.753942e+03,4.771964e+03
1.756835e+03,4.757873e+03
1.759728e+03,4.738229e+03
1.762620e+03,4.733988e+03
1.765513e+03,4.746381e+03
1.768406e+03,4.733421e+03
1.771298e+03,4.751139e+03
1.774191e+03,4.700496e+03
1.777084e+03,4.731967e+03
1.779977e+03,4.731124e+03
1.782869e+03,4.743907e+03
1.785762e+03,4.726464e+03
1.788655e+03,4.699015e+03
1.791547e+03,4.694762e+03
1.794440e+03,4.709976e+03
1.797333e+03,4.695997e+03
1.800225e+03,4.695384e+03
1.803118e+03,4.686159e+03
1.806011e+03,4.660460e+03
1.808904e+03,4.665500e+03
1.811796e+03,4.675481e+03
1.814689e+03,4.662450e+03
1.817582e+03,4.661775e+03
1.820474e+03,4.686404e+03
1.823367e+03,4.636114e+03
1.826260e+03,4.641765e+03
1.829152e+03,4.621034e+03
1.832045e+03,4.643016e+03
1.834938e+03,4.631893e+03
1.837831e+03,4.636263e+03
1.840723e+03,4.612331e+03
1.843616e+03,4.604622e+03
1.846509e+03,4.627218e+03
1.849401e+03,4.585708e+03
1.852294e+03,4.574478e+03
1.855187e+03,4.589241e+03
1.858079e+03,4.590111e+03
1.860972e+03,4.558831e+03
1.863865e+03,4.573189e+03
1.866758e+03,4.539288e+03
1.869650e+03,4.512722e+03
1.872543e+03,4.546291e+03
1.875436e+03,4.556826e+03
1.878328e+03,4.570750e+03
1.881221e+03,4.525096e+03
1.884114e+03,4.507062e+03
1.887006e+03,4.518632e+03
1.889899e+03,4.524705e+03
1.892792e+03,4.523037e+03
1.895685e+03,4.501667e+03
1.898577e+03,4.496395e+03
1.901470e+03,4.527116e+03
1.904363e+03,4.479673e+03
1.907255e+03,4.468610e+03
1.910148e+03,4.486757e+03
1.913041e+03,4.488524e+03
1.915933e+03,4.502210e+03
1.918826e+03,4.461597e+03
1.921719e+03,4.462072e+03
1.924612e+03,4.429564e+03
1.927504e+03,4.473086e+03
1.930397e+03,4.416690e+03
1.933290e+03,4.423450e+03
1.936182e+03,4.412989e+03
1.939075e+03,4.407455e+03
1.941968e+03,4.411843e+03
1.944860e+03,4.405906e+03
1.947753e+03,4.380565e+03
1.950646e+03,4.411090e+03
1.953539e+03,4.389039e+03
1.956431e+03,4.382695e+03
1.959324e+03,4.377738e+03
1.962217e+03,4.347299e+03
1.965109e+03,4.365743e+03
1.968002e+03,4.356179e+03
1.970895e+03,4.361828e+03
1.973787e+03,4.301093e+03
1.976680e+03,4.306907e+03
1.979573e+03,4.346950e+03
1.982466e+03,4.275618e+03
1.985358e+03,4.324483e+03
1.988251e+03,4.325156e+03
1.991144e+03,4.295812e+03
1.994036e+03,4.298020e+03
1.996929e+03,4.320138e+03
1.999822e+03,4.280970e+03
2.002714e+03,4.271961e+03
2.005607e+03,4.293050e+03
2.008500e+03,4.276372e+03
2.011393e+03,4.292605e+03
2.014285e+03,4.268856e+03
2.017178e+03,4.296687e+03
2.020071e+03,4.257410e+03
2.022963e+03,4.256602e+03
2.025856e+03,4.229088e+03
2.028749e+03,4.228296e+03
2.031641e+03,4.235586e+03
2.034534e+03,4.243496e+03
2.037427e+03,4.236594e+03
2.040320e+03,4.208706e+03
2.043212e+03,4.225710e+03
2.046105e+03,4.186514e+03
2.048998e+03,4.196656e+03
2.051890e+03,4.172002e+03
2.054783e+03,4.147220e+03
2.057676e+03,4.149314e+03
2.060568e+03,4.162410e+03
2.063461e+03,4.183519e+03
2.066354e+03,4.143321e+03
2.069247e+03,4.152991e+03
2.072139e+03,4.117785e+03
2.075032e+03,4.116270e+03
2.077925e+03,4.110970e+03
2.080817e+03,4.110905e+03
2.083710e+03,4.099325e+03
2.086603e+03,4.046855e+03
2.089496e+03,4.087456e+03
2.092388e+03,4.087525e+03
2.095281e+03,4.069279e+03
2.098174e+03,4.046144e+03
2.101066e+03,4.047025e+03
2.103959e+03,4.045421e+03
2.106852e+03,4.047611e+03
2.109744e+03,4.067836e+03
2.112637e+03,4.043222e+03
2.115530e+03,4.030490e+03
2.118422e+03,4.009920e+03
2.121315e+03,4.054226e+03
2.124208e+03,4.026401e+03
2.127101e+03,3.972817e+03
2.129993e+03,4.004068e+03
2.132886e+03,4.007117e+03
2.135779e+03,3.992770e+03
2.138671e+03,3.987585e+03
2.141564e+03,3.968411e+03
2.144457e+03,3.990337e+03
2.147350e+03,3.936897e+03
2.150242e+03,3.939954e+03
2.153135e+03,3.963312e+03
2.156028e+03,3.931126e+03
2.158920e+03,3.932957e+03
2.161813e+03,3.921282e+03
2.164706e+03,3.930982e+03
2.167598e+03,3.890604e+03
2.170491e+03,3.887744e+03
2.173384e+03,3.913279e+03
2.176277e+03,3.892658e+03
2.179169e+03,3.874161e+03
2.182062e+03,3.865940e+03
2.184955e+03,3.873609e+03
2.187847e+03,3.860328e+03
2.190740e+03,3.838759e+03
2.193633e+03,3.829241e+03
2.196525e+03,3.834805e+03
2.199418e+03,3.832070e+03
2.202311e+03,3.817750e+03
2.205204e+03,3.829376e+03
2.208096e+03,3.819850e+03
2.210989e+03,3.756035e+03
2.213882e+03,3.772779e+03
2.216774e+03,3.783169e+03
2.219667e+03,3.787102e+03
2.222560e+03,3.786282e+03
2.225452e+03,3.724295e+03
2.228345e+03,3.743889e+03
2.231238e+03,3.733278e+03
2.234131e+03,3.719894e+03
2.237023e+03,3.740827e+03
2.239916e+03,3.699586e+03
2.242809e+03,3.695315e+03
2.245701e+03,3.701084e+03
2.248594e+03,3.681411e+03
2.251487e+03,3.702054e+03
2.254379e+03,3.683973e+03
2.257272e+03,3.638117e+03
2.260165e+03,3.645444e+03
2.263058e+03,3.673583e+03
2.265950e+03,3.646316e+03
2.268843e+03,3.641306e+03
2.271736e+03,3.625317e+03
2.274628e+03,3.620008e+03
2.277521e+03,3.617896e+03
2.280414e+03,3.616915e+03
2.283306e+03,3.631363e+03
2.286199e+03,3.600266e+03
2.289092e+03,3.573367e+03
2.291985e+03,3.589655e+03
2.294877e+03,3.593181e+03
2.297770e+03,3.565794e+03
2.300663e+03,3.556507e+03
2.303555e+03,3.554378e+03
2.306448e+03,3.532735e+03
2.309341e+03,3.557730e+03
2.312233e+03,3.531599e+03
2.315126e+03,3.546636e+03
2.318019e+03,3.520820e+03
2.320912e+03,3.492438e+03
2.323804e+03,3.498322e+03
2.326697e+03,3.497668e+03
2.329590e+03,3.501441e+03
2.332482e+03,3.466885e+03
2.335375e+03,3.464667e+03
2.338268e+03,3.435014e+03
2.341160e+03,3.468059e+03
2.344053e+03,3.459380e+03
2.346946e+03,3.444349e+03
2.349839e+03,3.441272e+03
2.352731e+03,3.421407e+03
2.355624e+03,3.421445e+03
2.358517e+03,3.449208e+03
2.361409e+03,3.428172e+03
2.364302e+03,3.399664e+03
2.367195e+03,3.369525e+03
2.370087e+03,3.368740e+03
2.372980e+03,3.397871e+03
2.375873e+03,3.384429e+03
2.378766e+03,3.371870e+03
2.381658e+03,3.347114e+03
2.384551e+03,3.346223e+03
2.387444e+03,3.349581e+03
2.390336e+03,3.325703e+03
2.393229e+03,3.308585e+03
2.396122e+03,3.312184e+03
2.399014e+03,3.309384e+03
2.401907e+03,3.320125e+03
2.404800e+03,3.299367e+03
2.407693e+03,3.313784e+03
2.410585e+03,3.290640e+03
2.413478e+03,3.283758e+03
2.416371e+03,3.258573e+03
2.419263e+03,3.276591e+03
2.422156e+03,3.266743e+03
2.425049e+03,3.255347e+03
2.427941e+03,3.240853e+03
2.430834e+03,3.221180e+03
2.433727e+03,3.233291e+03
2.436620e+03,3.243165e+03
2.439512e+03,3.217347e+03
2.442405e+03,3.196900e+03
2.445298e+03,3.197902e+03
2.448190e+03,3.207661e+03
2.451083e+03,3.198569e+03
2.453976e+03,3.178324e+03
2.456868e+03,3.172254e+03
2.459761e+03,3.187412e+03
2.462654e+03,3.176984e+03
2.465547e+03,3.186401e+03
2.468439e+03,3.168358e+03
2.471332e+03,3.152514e+03
2.474225e+03,3.137106e+03
2.477117e+03,3.158276e+03
2.480010e+03,3.118470e+03
2.482903e+03,3.126466e+03
2.485795e+03,3.141293e+03
2.488688e+03,3.115126e+03
2.491581e+03,3.111229e+03
2.494474e+03,3.099294e+03
2.497366e+03,3.116850e+03
2.500259e+03,3.097386e+03
2.503152e+03,3.087785e+03
2.506044e+03,3.085978e+03
2.508937e+03,3.075306e+03
2.511830e+03,3.050168e+03
2.514722e+03,3.069800e+03
2.517615e+03,3.072238e+03
2.520508e+03,3.045925e+03
2.523401e+03,3.045325e+03
2.526293e+03,3.033147e+03
2.529186e+03,3.018194e+03
2.532079e+03,3.048323e+03
2.534971e+03,3.036380e+03
2.537864e+03,3.020596e+03
2.540757e+03,3.027566e+03
2.543649e+03,3.033011e+03
2.546542e+03,3.042143e+03
2.549435e+03,3.024155e+03
2.552328e+03,2.975395e+03
2.555220e+03,3.001215e+03
2.558113e+03,2.997787e+03
2.561006e+03,2.975944e+03
2.563898e+03,2.984198e+03
2.566791e+03,2.973936e+03
2.569684e+03,3.001228e+03
2.572576e+03,2.944323e+03
2.575469e+03,2.967092e+03
2.578362e+03,2.989737e+03
2.581255e+03,2.975597e+03
2.584147e+03,2.945930e+03
2.587040e+03,2.946777e+03
2.589933e+03,2.944813e+03
2.592825e+03,2.927627e+03
2.595718e+03,2.968235e+03
2.598611e+03,2.923122e+03
2.601503e+03,2.917054e+03
2.604396e+03,2.907747e+03
2.607289e+03,2.894669e+03
2.610182e+03,2.883161e+03
2.613074e+03,2.888802e+03
2.615967e+03,2.885690e+03
2.618860e+03,2.886265e+03
2.621752e+03,2.882438e+03
2.624645e+03,2.872438e+03
2.627538e+03,2.868793e+03
2.630430e+03,2.871933e+03
2.633323e+03,2.883385e+03
2.636216e+03,2.860649e+03
2.639109e+03,2.858407e+03
2.642001e+03,2.842848e+03
2.644894e+03,2.844464e+03
2.647787e+03,2.855719e+03
2.650679e+03,2.826183e+03
2.653572e+03,2.834451e+03
2.656465e+03,2.823888e+03
2.659357e+03,2.806174e+03
2.662250e+03,2.799422e+03
2.665143e+03,2.836009e+03
2.668036e+03,2.786928e+03
2.670928e+03,2.815701e+03
2.673821e+03,2.808613e+03
2.676714e+03,2.791383e+03
2.679606e+03,2.799806e+03
2.682499e+03,2.788680e+03
2.685392e+03,2.780246e+03
2.688284e+03,2.800151e+03
2.691177e+03,2.783894e+03
2.694070e+03,2.771678e+03
2.696963e+03,2.786918e+03
2.699855e+03,2.741850e+03
2.702748e+03,2.763970e+03
2.705641e+03,2.743734e+03
2.708533e+03,2.774552e+03
2.711426e+03,2.760630e+03
2.714319e+03,2.747862e+03
2.717211e+03,2.754037e+03
2.720104e+03,2.767695e+03
2.722997e+03,2.755605e+03
2.725890e+03,2.732550e+03
2.728782e+03,2.718237e+03
2.731675e+03,2.730605e+03
2.734568e+03,2.733292e+03
2.737460e+03,2.703344e+03
2.740353e+03,2.714142e+03
2.743246e+03,2.723685e+03
2.746138e+03,2.707787e+03
2.749031e+03,2.687626e+03
2.751924e+03,2.708336e+03
2.754817e+03,2.677670e+03
2.757709e+03,2.701217e+03
2.760602e+03,2.675656e+03
2.763495e+03,2.678823e+03
2.766387e+03,2.650591e+03
2.769280e+03,2.638490e+03
2.772173e+03,2.707618e+03
2.775065e+03,2.651426e+03
2.777958e+03,2.658116e+03
2.780851e+03,2.664560e+03
2.783744e+03,2.653125e+03
2.786636e+03,2.670812e+03
2.789529e+03,2.653943e+03
2.792422e+03,2.673208e+03
2.795314e+03,2.627677e+03
2.798207e+03,2.641941e+03
2.801100e+03,2.645989e+03
2.803992e+03,2.668250e+03
2.806885e+03,2.629884e+03
2.809778e+03,2.636954e+03
2.812671e+03,2.608234e+03
2.815563e+03,2.605976e+03
2.818456e+03,2.633530e+03
2.821349e+03,2.642783e+03
2.824241e+03,2.620735e+03
2.827134e+03,2.632368e+03
2.830027e+03,2.608478e+03
2.832919e+03,2.605519e+03
2.835812e+03,2.602808e+03
2.838705e+03,2.568261e+03
2.841598e+03,2.609788e+03
2.844490e+03,2.574839e+03
2.847383e+03,2.608306e+03
2.850276e+03,2.594173e+03
2.853168e+03,2.568001e+03
2.856061e+03,2.615767e+03
2.858954e+03,2.598897e+03
2.861846e+03,2.589699e+03
2.864739e+03,2.592271e+03
2.867632e+03,2.581145e+03
2.870525e+03,2.580653e+03
2.873417e+03,2.591345e+03
2.876310e+03,2.576126e+03
2.879203e+03,2.537468e+03
2.882095e+03,2.567058e+03
2.884988e+03,2.536822e+03
2.887881e+03,2.553295e+03
2.890773e+03,2.555082e+03
2.893666e+03,2.550727e+03
2.896559e+03,2.541349e+03
2.899452e+03,2.572091e+03
2.902344e+03,2.534958e+03
2.905237e+03,2.510995e+03
2.908130e+03,2.548282e+03
2.911022e+03,2.552137e+03
2.913915e+03,2.491309e+03
2.916808e+03,2.543507e+03
2.919700e+03,2.509765e+03
2.922593e+03,2.510680e+03
2.925486e+03,2.539788e+03
2.928379e+03,2.515518e+03
2.931271e+03,2.503802e+03
2.934164e+03,2.499401e+03
2.937057e+03,2.498190e+03
2.939949e+03,2.480206e+03
2.942842e+03,2.514979e+03
2.945735e+03,2.485049e+03
2.948627e+03,2.497620e+03
2.951520e+03,2.479366e+03
2.954413e+03,2.504492e+03
2.957306e+03,2.532508e+03
2.960198e+03,2.474894e+03
2.963091e+03,2.501452e+03
2.965984e+03,2.495987e+03
2.968876e+03,2.468106e+03
2.971769e+03,2.456473e+03
2.974662e+03,2.449734e+03
2.977554e+03,2.425051e+03
2.980447e+03,2.473475e+03
2.983340e+03,2.477155e+03
2.986233e+03,2.425626e+03
2.989125e+03,2.423799e+03
2.992018e+03,2.437121e+03
2.994911e+03,2.440360e+03
2.997803e+03,2.439768e+03
3.000696e+03,2.474416e+03
3.003589e+03,2.447151e+03
3.006481e+03,2.443453e+03
3.009374e+03,2.449588e+03
3.012267e+03,2.459970e+03
3.015160e+03,2.428265e+03
3.018052e+03,2.382458e+03
3.020945e+03,2.426024e+03
3.023838e+03,2.400265e+03
3.026730e+03,2.386450e+03
3.029623e+03,2.395311e+03
3.032516e+03,2.451125e+03
3.035408e+03,2.357153e+03
3.038301e+03,2.404498e+03
3.041194e+03,2.389521e+03
3.044087e+03,2.390203e+03
3.046979e+03,2.347710e+03
3.049872e+03,2.382386e+03
3.052765e+03,2.392771e+03
3.055657e+03,2.410621e+03
3.058550e+03,2.391933e+03
3.061443e+03,2.337360e+03
3.064335e+03,2.422076e+03
3.067228e+03,2.387061e+03
3.070121e+03,2.393080e+03
3.073014e+03,2.373092e+03
3.075906e+03,2.369230e+03
3.078799e+03,2.393419e+03
3.081692e+03,2.375768e+03
3.084584e+03,2.319360e+03
3.087477e+03,2.377373e+03
3.090370e+03,2.370520e+03
3.093262e+03,2.428836e+03
3.096155e+03,2.383586e+03
3.099048e+03,2.341038e+03
3.101941e+03,2.407094e+03
3.104833e+03,2.374819e+03
3.107726e+03,2.391484e+03
3.110619e+03,2.372430e+03
3.113511e+03,2.328829e+03
3.116404e+03,2.381288e+03
3.119297e+03,2.360821e+03
3.122189e+03,2.378829e+03
3.125082e+03,2.336084e+03
3.127975e+03,2.364944e+03
3.130868e+03,2.384481e+03
3.133760e+03,2.417487e+03
3.136653e+03,2.318709e+03
3.139546e+03,2.358623e+03
3.142438e+03,2.309112e+03
3.145331e+03,2.341703e+03
3.148224e+03,2.339452e+03
3.151116e+03,2.339165e+03
3.154009e+03,2.378571e+03
3.156902e+03,2.387696e+03
3.159795e+03,2.351830e+03
3.162687e+03,2.376817e+03
3.165580e+03,2.391106e+03
3.168473e+03,2.353216e+03
3.171365e+03,2.419730e+03
3.174258e+03,2.341900e+03
3.177151e+03,2.335882e+03
3.180043e+03,2.374903e+03
3.182936e+03,2.385984e+03
3.185829e+03,2.357431e+03
3.188722e+03,2.364589e+03
3.191614e+03,2.397729e+03
3.194507e+03,2.333846e+03
3.197400e+03,2.267735e+03
3.200292e+03,2.414367e+03
3.203185e+03,0.000000e+00
3.206078e+03,0.000000e+00
3.208970e+03,0.000000e+00
3.211863e+03,0.000000e+00
3.214756e+03,0.000000e+00
3.217649e+03,0.000000e+00
3.220541e+03,0.000000e+00
3.223434e+03,0.000000e+00
3.226327e+03,0.000000e+00
3.229219e+03,0.000000e+00
3.232112e+03,0.000000e+00
3.235005e+03,0.000000e+00
3.237897e+03,0.000000e+00
3.240790e+03,0.000000e+00
3.243683e+03,0.000000e+00
3.246576e+03,0.000000e+00
3.249468e+03,0.000000e+00
3.252361e+03,0.000000e+00
3.255254e+03,0.000000e+00
3.258146e+03,0.000000e+00
3.261039e+03,0.000000e+00
3.263932e+03,0.000000e+00
3.266824e+03,0.000000e+00
3.269717e+03,0.000000e+00
3.272610e+03,0.000000e+00
3.275503e+03,0.000000e+00
3.278395e+03,0.000000e+00
3.281288e+03,0.000000e+00
3.284181e+03,0.000000e+00
3.287073e+03,0.000000e+00
3.289966e+03,0.000000e+00
3.292859e+03,0.000000e+00
3.295751e+03,0.000000e+00
3.298644e+03,0.000000e+00
3.301537e+03,0.000000e+00
3.304430e+03,0.000000e+00
3.307322e+03,0.000000e+00
3.310215e+03,0.000000e+00
3.313108e+03,0.000000e+00
3.316000e+03,0.000000e+00
3.318893e+03,0.000000e+00
3.321786e+03,0.000000e+00
3.324678e+03,0.000000e+00
3.327571e+03,0.000000e+00
3.330464e+03,0.000000e+00
3.333357e+03,0.000000e+00
3.336249e+03,0.000000e+00
3.339142e+03,0.000000e+00
3.342035e+03,0.000000e+00
3.344927e+03,0.000000e+00
3.347820e+03,0.000000e+00
3.350713e+03,0.000000e+00
3.353605e+03,0.000000e+00
3.356498e+03,0.000000e+00
3.359391e+03,0.000000e+00
3.362284e+03,0.000000e+00
3.365176e+03,0.000000e+00
3.368069e+03,0.000000e+00
3.370962e+03,0.000000e+00
3.373854e+03,0.000000e+00
3.376747e+03,0.000000e+00
3.379640e+03,0.000000e+00
3.382532e+03,0.000000e+00
3.385425e+03,0.000000e+00
3.388318e+03,0.000000e+00
3.391211e+03,0.000000e+00
3.394103e+03,0.000000e+00
3.396996e+03,0.000000e+00
3.399889e+03,0.000000e+00
3.402781e+03,0.000000e+00
3.405674e+03,0.000000e+00
3.408567e+03,0.000000e+00
3.411459e+03,0.000000e+00
3.414352e+03,0.000000e+00
3.417245e+03,0.000000e+00
3.420138e+03,0.000000e+00
3.423030e+03,0.000000e+00
3.425923e+03,0.000000e+00
3.428816e+03,0.000000e+00
3.431708e+03,0.000000e+00
3.434601e+03,0.000000e+00
3.437494e+03,0.000000e+00
3.440386e+03,0.000000e+00
3.443279e+03,0.000000e+00
3.446172e+03,0.000000e+00
3.449065e+03,0.000000e+00
3.451957e+03,0.000000e+00
3.454850e+03,0.000000e+00
3.457743e+03,0.000000e+00
3.460635e+03,0.000000e+00
3.463528e+03,0.000000e+00
3.466421e+03,0.000000e+00
3.469313e+03,0.000000e+00
3.472206e+03,0.000000e+00
3.475099e+03,0.000000e+00
3.477992e+03,0.000000e+00
3.480884e+03,0.000000e+00
3.483777e+03,0.000000e+00
3.486670e+03,0.000000e+00
3.489563e+03,0.000000e+00
3.492455e+03,0.000000e+00
3.495348e+03,0.000000e+00
3.498240e+03,0.000000e+00
3.500169e+03,0.000000e+00