File: RAMAN_data/20012023_r3/blue fibre13.CSV
9.931763e+01,0.000000e+00
1.022103e+02,0.000000e+00
1.051030e+02,0.000000e+00
1.079957e+02,0.000000e+00
1.108884e+02,0.000000e+00
1.137811e+02,0.000000e+00
1.166738e+02,0.000000e+00
1.195665e+02,0.000000e+00
1.224592e+02,0.000000e+00
1.253519e+02,0.000000e+00
1.282446e+02,0.000000e+00
1.311373e+02,0.000000e+00
1.340300e+02,0.000000e+00
1.369227e+02,0.000000e+00
1.398154e+02,0.000000e+00
1.427081e+02,0.000000e+00
1.456008e+02,0.000000e+00
1.484935e+02,0.000000e+00
1.513862e+02,0.000000e+00
1.542789e+02,0.000000e+00
1.571716e+02,0.000000e+00
1.600643e+02,0.000000e+00
1.629570e+02,0.000000e+00
1.658497e+02,0.000000e+00
1.687424e+02,0.000000e+00
1.716351e+02,0.000000e+00
1.745278e+02,0.000000e+00
1.774205e+02,0.000000e+00
1.803132e+02,0.000000e+00
1.832059e+02,0.000000e+00
1.860986e+02,0.000000e+00
1.889913e+02,0.000000e+00
1.918840e+02,0.000000e+00
1.947767e+02,0.000000e+00
1.976694e+02,0.000000e+00
2.005621e+02,5.857206e+03
2.034548e+02,5.877933e+03
2.063475e+02,5.897120e+03
2.092402e+02,5.912011e+03
2.121329e+02,5.894562e+03
2.150256e+02,5.936053e+03
2.179183e+02,5.959560e+03
2.208110e+02,5.990514e+03
2.237037e+02,6.012467e+03
2.265964e+02,6.003690e+03
2.294892e+02,6.022967e+03
2.323819e+02,6.077013e+03
2.352746e+02,6.098748e+03
2.381673e+02,6.118850e+03
2.410600e+02,6.143847e+03
2.439527e+02,6.157792e+03
2.468454e+02,6.190679e+03
2.497381e+02,6.246465e+03
2.526308e+02,6.251071e+03
2.555235e+02,6.274499e+03
2.584161e+02,6.266720e+03
2.613088e+02,6.334424e+03
2.642015e+02,6.344310e+03
2.670942e+02,6.349280e+03
2.699869e+02,6.388502e+03
2.728796e+02,6.414107e+03
2.757723e+02,6.469394e+03
2.786650e+02,6.506581e+03
2.815577e+02,6.535713e+03
2.844504e+02,6.561875e+03
2.873431e+02,6.525595e+03
2.902358e+02,6.527858e+03
2.931285e+02,6.490554e+03
2.960212e+02,6.525897e+03
2.989139e+02,6.556251e+03
3.018066e+02,6.550470e+03
3.046993e+02,6.561521e+03
3.075920e+02,6.573974e+03
3.104847e+02,6.547554e+03
3.133774e+02,6.594611e+03
3.162701e+02,6.598869e+03
3.191628e+02,6.585269e+03
3.220555e+02,6.603183e+03
3.249482e+02,6.635479e+03
3.278409e+02,6.663278e+03
3.307336e+02,6.664598e+03
3.336263e+02,6.668125e+03
3.365190e+02,6.664828e+03
3.394117e+02,6.672859e+03
3.423044e+02,6.697915e+03
3.451971e+02,6.729655e+03
3.480898e+02,6.759327e+03
3.509825e+02,6.748690e+03
3.538752e+02,6.785021e+03
3.567680e+02,6.780416e+03
3.596607e+02,6.805396e+03
3.625534e+02,6.803134e+03
3.654461e+02,6.785286e+03
3.683388e+02,6.792920e+03
3.712315e+02,6.862842e+03
3.741242e+02,6.892721e+03
3.770169e+02,6.865179e+03
3.799096e+02,6.899150e+03
3.828023e+02,6.869717e+03
3.856950e+02,6.899436e+03
3.885877e+02,6.886379e+03
3.914804e+02,6.913042e+03
3.943731e+02,6.932922e+03
3.972658e+02,6.913377e+03
4.001585e+02,6.922367e+03
4.030512e+02,6.922275e+03
4.059439e+02,6.929982e+03
4.088366e+02,6.936335e+03
4.117293e+02,6.933143e+03
4.146220e+02,6.957687e+03
4.175147e+02,6.963222e+03
4.204074e+02,6.972250e+03
4.233001e+02,6.956099e+03
4.261928e+02,6.997989e+03
4.290855e+02,6.963563e+03
4.319782e+02,6.983859e+03
4.348709e+02,7.005378e+03
4.377636e+02,7.026538e+03
4.406563e+02,7.014814e+03
4.435490e+02,7.001546e+03
4.464417e+02,7.038003e+03
4.493344e+02,7.033688e+03
4.522271e+02,7.032347e+03
4.551198e+02,7.028669e+03
4.580125e+02,7.058192e+03
4.609052e+02,7.053523e+03
4.637979e+02,7.054652e+03
4.666906e+02,7.069378e+03
4.695833e+02,7.072562e+03
4.724760e+02,7.089971e+03
4.753687e+02,7.019272e+03
4.782614e+02,7.063205e+03
4.811541e+02,7.062846e+03
4.840468e+02,7.078869e+03
4.869395e+02,7.060761e+03
4.898322e+02,7.084580e+03
4.927249e+02,7.076372e+03
4.956176e+02,7.093919e+03
4.985103e+02,7.105448e+03
5.014030e+02,7.081176e+03
5.042957e+02,7.087381e+03
5.071884e+02,7.087325e+03
5.100811e+02,7.095620e+03
5.129738e+02,7.090042e+03
5.158665e+02,7.134935e+03
5.187592e+02,7.147433e+03
5.216519e+02,7.102527e+03
5.245446e+02,7.100482e+03
5.274373e+02,7.147006e+03
5.303300e+02,7.129829e+03
5.332227e+02,7.123646e+03
5.361154e+02,7.146275e+03
5.390081e+02,7.155322e+03
5.419008e+02,7.188501e+03
5.447935e+02,7.209036e+03
5.476862e+02,7.205524e+03
5.505789e+02,7.247020e+03
5.534716e+02,7.246143e+03
5.563643e+02,7.297833e+03
5.592570e+02,7.320480e+03
5.621497e+02,7.287927e+03
5.650424e+02,7.232557e+03
5.679351e+02,7.175254e+03
5.708278e+02,7.127659e+03
5.737205e+02,7.149085e+03
5.766132e+02,7.151615e+03
5.795059e+02,7.109165e+03
5.823986e+02,7.112873e+03
5.852913e+02,7.102882e+03
5.881840e+02,7.097787e+03
5.910767e+02,7.126989e+03
5.939694e+02,7.129602e+03
5.968621e+02,7.130583e+03
5.997548e+02,7.129411e+03
6.026475e+02,7.147344e+03
6.055402e+02,7.146909e+03
6.084329e+02,7.167860e+03
6.113256e+02,7.231183e+03
6.142183e+02,7.200751e+03
6.171110e+02,7.150004e+03
6.200037e+02,7.096985e+03
6.228964e+02,7.077949e+03
6.257891e+02,7.067321e+03
6.286818e+02,7.052326e+03
6.315745e+02,7.083018e+03
6.344672e+02,7.046568e+03
6.373599e+02,7.061643e+03
6.402526e+02,7.039347e+03
6.431453e+02,7.010097e+03
6.460380e+02,7.030193e+03
6.489307e+02,7.021070e+03
6.518234e+02,7.026352e+03
6.547161e+02,6.998079e+03
6.576088e+02,6.980339e+03
6.605015e+02,6.991807e+03
6.633942e+02,6.953854e+03
6.662869e+02,6.981370e+03
6.691796e+02,6.973930e+03
6.720723e+02,6.944916e+03
6.749650e+02,6.938233e+03
6.778577e+02,6.931516e+03
6.807504e+02,6.915951e+03
6.836431e+02,6.947174e+03
6.865358e+02,6.922742e+03
6.894285e+02,6.880188e+03
6.923212e+02,6.901672e+03
6.952139e+02,6.845023e+03
6.981066e+02,6.864252e+03
7.009993e+02,6.866763e+03
7.038920e+02,6.821561e+03
7.067847e+02,6.814334e+03
7.096774e+02,6.822910e+03
7.125701e+02,6.816273e+03
7.154628e+02,6.833792e+03
7.183555e+02,6.816539e+03
7.212482e+02,6.780789e+03
7.241409e+02,6.779808e+03
7.270336e+02,6.755904e+03
7.299263e+02,6.758686e+03
7.328190e+02,6.754057e+03
7.357117e+02,6.738189e+03
7.386044e+02,6.727307e+03
7.414971e+02,6.712233e+03
7.443898e+02,6.723820e+03
7.472825e+02,6.738742e+03
7.501752e+02,6.687221e+03
7.530679e+02,6.716994e+03
7.559606e+02,6.704063e+03
7.588533e+02,6.695255e+03
7.617460e+02,6.698363e+03
7.646387e+02,6.626405e+03
7.675314e+02,6.671883e+03
7.704241e+02,6.618415e+03
7.733168e+02,6.634021e+03
7.762095e+02,6.633106e+03
7.791022e+02,6.646853e+03
7.819949e+02,6.629317e+03
7.848876e+02,6.650393e+03
7.877803e+02,6.627419e+03
7.906730e+02,6.624458e+03
7.935657e+02,6.610306e+03
7.964584e+02,6.559607e+03
7.993511e+02,6.561668e+03
8.022438e+02,6.525907e+03
8.051365e+02,6.532731e+03
8.080292e+02,6.507542e+03
8.109219e+02,6.467852e+03
8.138146e+02,6.471016e+03
8.167073e+02,6.458452e+03
8.196000e+02,6.453791e+03
8.224927e+02,6.459933e+03
8.253854e+02,6.445981e+03
8.282781e+02,6.404893e+03
8.311708e+02,6.391948e+03
8.340635e+02,6.394505e+03
8.369562e+02,6.404518e+03
8.398489e+02,6.406673e+03
8.427416e+02,6.389370e+03
8.456343e+02,6.366148e+03
8.485270e+02,6.356210e+03
8.514197e+02,6.331958e+03
8.543124e+02,6.330448e+03
8.572051e+02,6.308607e+03
8.600978e+02,6.280541e+03
8.629905e+02,6.282415e+03
8.658832e+02,6.269226e+03
8.687759e+02,6.276759e+03
8.716686e+02,6.256225e+03
8.745613e+02,6.235972e+03
8.774540e+02,6.221081e+03
8.803467e+02,6.210103e+03
8.832394e+02,6.203616e+03
8.861321e+02,6.199320e+03
8.890248e+02,6.175421e+03
8.919175e+02,6.176589e+03
8.948102e+02,6.166245e+03
8.977029e+02,6.162418e+03
9.005956e+02,6.121367e+03
9.034883e+02,6.134509e+03
9.063810e+02,6.102036e+03
9.092737e+02,6.074691e+03
9.121664e+02,6.073431e+03
9.150591e+02,6.076048e+03
9.179518e+02,6.038443e+03
9.208445e+02,6.010651e+03
9.237372e+02,6.002628e+03
9.266299e+02,6.011239e+03
9.295226e+02,5.965175e+03
9.324153e+02,5.943990e+03
9.353080e+02,5.962209e+03
9.382007e+02,5.935900e+03
9.410934e+02,5.923911e+03
9.439861e+02,5.917478e+03
9.468788e+02,5.911454e+03
9.497715e+02,5.887362e+03
9.526642e+02,5.885613e+03
9.555569e+02,5.853274e+03
9.584496e+02,5.842034e+03
9.613423e+02,5.820783e+03
9.642350e+02,5.823544e+03
9.671277e+02,5.806383e+03
9.700204e+02,5.799312e+03
9.729131e+02,5.754500e+03
9.758058e+02,5.768610e+03
9.786985e+02,5.762253e+03
9.815912e+02,5.737275e+03
9.844839e+02,5.693177e+03
9.873766e+02,5.686348e+03
9.902693e+02,5.692756e+03
9.931620e+02,5.692856e+03
9.960547e+02,5.688029e+03
9.989474e+02,5.651024e+03
1.001840e+03,5.627052e+03
1.004733e+03,5.618336e+03
1.007626e+03,5.626302e+03
1.010518e+03,5.606804e+03
1.013411e+03,5.619919e+03
1.016304e+03,5.578127e+03
1.019196e+03,5.568971e+03
1.022089e+03,5.558494e+03
1.024982e+03,5.537128e+03
1.027875e+03,5.539767e+03
1.030767e+03,5.529963e+03
1.033660e+03,5.524334e+03
1.036552e+03,5.499467e+03
1.039445e+03,5.477081e+03
1.042338e+03,5.483051e+03
1.045231e+03,5.453987e+03
1.048123e+03,5.444714e+03
1.051016e+03,5.430691e+03
1.053909e+03,5.426717e+03
1.056802e+03,5.414236e+03
1.059694e+03,5.428834e+03
1.062587e+03,5.366380e+03
1.065479e+03,5.379442e+03
1.068372e+03,5.373091e+03
1.071265e+03,5.400785e+03
1.074158e+03,5.405855e+03
1.077050e+03,5.383579e+03
1.079943e+03,5.367568e+03
1.082836e+03,5.369704e+03
1.085729e+03,5.341334e+03
1.088621e+03,5.382670e+03
1.091514e+03,5.325975e+03
1.094406e+03,5.318678e+03
1.097299e+03,5.296028e+03
1.100192e+03,5.250389e+03
1.103085e+03,5.262691e+03
1.105977e+03,5.221383e+03
1.108870e+03,5.186484e+03
1.111763e+03,5.182580e+03
1.114656e+03,5.193109e+03
1.117548e+03,5.193208e+03
1.120441e+03,5.170388e+03
1.123334e+03,5.154679e+03
1.126226e+03,5.122100e+03
1.129119e+03,5.103158e+03
1.132012e+03,5.111698e+03
1.134904e+03,5.103634e+03
1.137797e+03,5.057928e+03
1.140690e+03,5.054188e+03
1.143583e+03,5.050728e+03
1.146475e+03,5.058713e+03
1.149368e+03,5.034689e+03
1.152261e+03,5.013552e+03
1.155153e+03,4.986682e+03
1.158046e+03,4.956667e+03
1.160939e+03,4.974300e+03
1.163831e+03,4.966096e+03
1.166724e+03,4.953365e+03
1.169617e+03,4.941664e+03
1.172510e+03,4.927959e+03
1.175402e+03,4.902403e+03
1.178295e+03,4.913004e+03
1.181188e+03,4.912634e+03
1.184080e+03,4.906206e+03
1.186973e+03,4.884057e+03
1.189866e+03,4.864919e+03
1.192758e+03,4.863218e+03
1.195651e+03,4.877197e+03
1.198544e+03,4.858897e+03
1.201437e+03,4.795761e+03
1.204329e+03,4.811148e+03
1.207222e+03,4.776423e+03
1.210115e+03,4.786569e+03
1.213007e+03,4.771687e+03
1.215900e+03,4.738997e+03
1.218793e+03,4.735915e+03
1.221685e+03,4.738880e+03
1.224578e+03,4.748683e+03
1.227471e+03,4.761079e+03
1.230364e+03,4.731741e+03
1.233256e+03,4.693369e+03
1.236149e+03,4.685967e+03
1.239042e+03,4.684806e+03
1.241934e+03,4.693320e+03
1.244827e+03,4.650708e+03
1.247720e+03,4.643371e+03
1.250612e+03,4.636978e+03
1.253505e+03,4.606392e+03
1.256398e+03,4.599635e+03
1.259291e+03,4.599138e+03
1.262183e+03,4.581797e+03
1.265076e+03,4.563749e+03
1.267969e+03,4.541371e+03
1.270861e+03,4.540229e+03
1.273754e+03,4.545856e+03
1.276647e+03,4.536509e+03
1.279539e+03,4.503220e+03
1.282432e+03,4.495227e+03
1.285325e+03,4.491159e+03
1.288218e+03,4.480337e+03
1.291110e+03,4.482390e+03
1.294003e+03,4.451416e+03
1.296896e+03,4.444326e+03
1.299788e+03,4.431948e+03
1.302681e+03,4.432034e+03
1.305574e+03,4.423635e+03
1.308466e+03,4.416787e+03
1.311359e+03,4.425456e+03
1.314252e+03,4.418923e+03
1.317145e+03,4.390563e+03
1.320037e+03,4.384880e+03
1.322930e+03,4.366722e+03
1.325823e+03,4.361723e+03
1.328715e+03,4.340996e+03
1.331608e+03,4.344675e+03
1.334501e+03,4.366353e+03
1.337393e+03,4.334529e+03
1.340286e+03,4.324518e+03
1.343179e+03,4.290077e+03
1.346072e+03,4.292116e+03
1.348964e+03,4.295154e+03
1.351857e+03,4.288718e+03
1.354750e+03,4.286888e+03
1.357642e+03,4.269483e+03
1.360535e+03,4.269583e+03
1.363428e+03,4.250185e+03
1.366320e+03,4.249351e+03
1.369213e+03,4.253271e+03
1.372106e+03,4.200150e+03
1.374999e+03,4.197457e+03
1.377891e+03,4.198823e+03
1.380784e+03,4.188331e+03
1.383677e+03,4.199108e+03
1.386569e+03,4.159081e+03
1.389462e+03,4.169336e+03
1.392355e+03,4.145216e+03
1.395247e+03,4.146584e+03
1.398140e+03,4.151378e+03
1.401033e+03,4.120341e+03
1.403926e+03,4.107972e+03
1.406818e+03,4.085513e+03
1.409711e+03,4.099809e+03
1.412604e+03,4.104377e+03
1.415496e+03,4.069621e+03
1.418389e+03,4.074443e+03
1.421282e+03,4.039686e+03
1.424174e+03,4.044598e+03
1.427067e+03,4.046685e+03
1.429960e+03,4.025172e+03
1.432853e+03,4.019323e+03
1.435745e+03,4.019521e+03
1.438638e+03,3.982417e+03
1.441531e+03,3.994517e+03
1.444423e+03,3.993282e+03
1.447316e+03,3.998616e+03
1.450209e+03,3.995002e+03
1.453101e+03,3.993421e+03
1.455994e+03,4.018840e+03
1.458887e+03,3.993778e+03
1.461780e+03,3.958238e+03
1.464672e+03,3.955482e+03
1.467565e+03,3.936327e+03
1.470458e+03,3.920427e+03
1.473350e+03,3.900588e+03
1.476243e+03,3.908793e+03
1.479136e+03,3.905319e+03
1.482028e+03,3.905154e+03
1.484921e+03,3.886282e+03
1.487814e+03,3.901673e+03
1.490707e+03,3.883740e+03
1.493599e+03,3.855731e+03
1.496492e+03,3.873390e+03
1.499385e+03,3.847032e+03
1.502277e+03,3.865291e+03
1.505170e+03,3.853209e+03
1.508063e+03,3.854318e+03
1.510955e+03,3.857578e+03
1.513848e+03,3.845510e+03
1.516741e+03,3.825824e+03
1.519634e+03,3.826706e+03
1.522526e+03,3.798617e+03
1.525419e+03,3.796939e+03
1.528312e+03,3.776335e+03
1.531204e+03,3.755047e+03
1.534097e+03,3.749584e+03
1.536990e+03,3.758751e+03
1.539882e+03,3.737639e+03
1.542775e+03,3.739262e+03
1.545668e+03,3.734026e+03
1.548561e+03,3.707060e+03
1.551453e+03,3.746429e+03
1.554346e+03,3.718347e+03
1.557239e+03,3.736523e+03
1.560131e+03,3.722783e+03
1.563024e+03,3.723926e+03
1.565917e+03,3.761217e+03
1.568809e+03,3.787437e+03
1.571702e+03,3.828726e+03
1.574595e+03,3.790857e+03
1.577488e+03,3.770052e+03
1.580380e+03,3.747979e+03
1.583273e+03,3.751693e+03
1.586166e+03,3.725063e+03
1.589058e+03,3.717908e+03
1.591951e+03,3.661823e+03
1.594844e+03,3.657224e+03
1.597736e+03,3.624709e+03
1.600629e+03,3.613301e+03
1.603522e+03,3.612699e+03
1.606415e+03,3.609298e+03
1.609307e+03,3.588433e+03
1.612200e+03,3.594707e+03
1.615093e+03,3.566111e+03
1.617985e+03,3.565035e+03
1.620878e+03,3.565813e+03
1.623771e+03,3.562725e+03
1.626663e+03,3.549251e+03
1.629556e+03,3.569504e+03
1.632449e+03,3.548344e+03
1.635342e+03,3.536269e+03
1.638234e+03,3.522879e+03
1.641127e+03,3.536753e+03
1.644020e+03,3.504785e+03
1.646912e+03,3.474784e+03
1.649805e+03,3.475431e+03
1.652698e+03,3.458960e+03
1.655590e+03,3.456720e+03
1.658483e+03,3.456805e+03
1.661376e+03,3.456121e+03
1.664269e+03,3.435761e+03
1.667161e+03,3.439837e+03
1.670054e+03,3.438896e+03
1.672947e+03,3.440450e+03
1.675839e+03,3.416075e+03
1.678732e+03,3.415892e+03
1.681625e+03,3.384439e+03
1.684517e+03,3.398089e+03
1.687410e+03,3.382207e+03
1.690303e+03,3.371043e+03
1.693196e+03,3.370747e+03
1.696088e+03,3.349708e+03
1.698981e+03,3.344676e+03
1.701874e+03,3.354301e+03
1.704766e+03,3.333071e+03
1.707659e+03,3.298423e+03
1.710552e+03,3.320228e+03
1.713444e+03,3.306236e+03
1.716337e+03,3.313611e+03
1.719230e+03,3.286588e+03
1.722123e+03,3.288829e+03
1.725015e+03,3.277054e+03
1.727908e+03,3.281355e+03
1.730801e+03,3.252290e+03
1.733693e+03,3.255567e+03
1.736586e+03,3.261802e+03
1.739479e+03,3.234671e+03
1.742371e+03,3.234605e+03
1.745264e+03,3.233120e+03
1.748157e+03,3.219531e+03
1.751050e+03,3.219267e+03
1.753942e+03,3.208854e+03
1.756835e+03,3.206835e+03
1.759728e+03,3.201487e+03
1.762620e+03,3.184477e+03
1.765513e+03,3.170073e+03
1.768406e+03,3.160383e+03
1.771298e+03,3.163477e+03
1.774191e+03,3.167137e+03
1.777084e+03,3.145304e+03
1.779977e+03,3.135192e+03
1.782869e+03,3.149274e+03
1.785762e+03,3.117762e+03
1.788655e+03,3.106375e+03
1.791547e+03,3.107797e+03
1.794440e+03,3.100252e+03
1.797333e+03,3.113721e+03
1.800225e+03,3.095286e+03
1.803118e+03,3.090227e+03
1.806011e+03,3.080511e+03
1.808904e+03,3.070636e+03
1.811796e+03,3.056333e+03
1.814689e+03,3.041854e+03
1.817582e+03,3.056555e+03
1.820474e+03,3.033427e+03
1.823367e+03,3.033375e+03
1.826260e+03,3.034303e+03
1.829152e+03,3.020515e+03
1.832045e+03,3.043877e+03
1.834938e+03,2.985811e+03
1.837831e+03,2.988855e+03
1.840723e+03,2.966854e+03
1.843616e+03,3.000168e+03
1.846509e+03,2.980435e+03
1.849401e+03,2.958818e+03
1.852294e+03,2.942984e+03
1.855187e+03,2.975941e+03
1.858079e+03,2.943910e+03
1.860972e+03,2.933758e+03
1.863865e+03,2.945543e+03
1.866758e+03,2.947315e+03
1.869650e+03,2.916578e+03
1.872543e+03,2.915844e+03
1.875436e+03,2.931323e+03
1.878328e+03,2.914833e+03
1.881221e+03,2.884458e+03
1.884114e+03,2.888513e+03
1.887006e+03,2.873158e+03
1.889899e+03,2.873283e+03
1.892792e+03,2.848595e+03
1.895685e+03,2.852110e+03
1.898577e+03,2.840452e+03
1.901470e+03,2.845427e+03
1.904363e+03,2.849081e+03
1.907255e+03,2.836566e+03
1.910148e+03,2.831917e+03
1.913041e+03,2.813161e+03
1.915933e+03,2.813340e+03
1.918826e+03,2.824784e+03
1.921719e+03,2.776556e+03
1.924612e+03,2.794312e+03
1.927504e+03,2.787183e+03
1.930397e+03,2.780915e+03
1.933290e+03,2.751522e+03
1.936182e+03,2.750985e+03
1.939075e+03,2.745226e+03
1.941968e+03,2.749218e+03
1.944860e+03,2.744093e+03
1.947753e+03,2.737987e+03
1.950646e+03,2.710131e+03
1.953539e+03,2.715333e+03
1.956431e+03,2.731738e+03
1.959324e+03,2.693743e+03
1.962217e+03,2.696531e+03
1.965109e+03,2.689002e+03
1.968002e+03,2.691671e+03
1.970895e+03,2.666652e+03
1.973787e+03,2.662352e+03
1.976680e+03,2.658635e+03
1.979573e+03,2.663929e+03
1.982466e+03,2.651280e+03
1.985358e+03,2.643960e+03
1.988251e+03,2.619315e+03
1.991144e+03,2.613544e+03
1.994036e+03,2.601913e+03
1.996929e+03,2.610201e+03
1.999822e+03,2.613529e+03
2.002714e+03,2.591660e+03
2.005607e+03,2.588454e+03
2.008500e+03,2.577511e+03
2.011393e+03,2.548129e+03
2.014285e+03,2.556317e+03
2.017178e+03,2.565414e+03
2.020071e+03,2.541097e+03
2.022963e+03,2.544857e+03
2.025856e+03,2.527968e+03
2.028749e+03,2.527684e+03
2.031641e+03,2.505573e+03
2.034534e+03,2.506706e+03
2.037427e+03,2.512968e+03
2.040320e+03,2.497777e+03
2.043212e+03,2.483811e+03
2.046105e+03,2.477277e+03
2.048998e+03,2.451730e+03
2.051890e+03,2.466825e+03
2.054783e+03,2.456390e+03
2.057676e+03,2.445914e+03
2.060568e+03,2.428488e+03
2.063461e+03,2.458321e+03
2.066354e+03,2.450488e+03
2.069247e+03,2.410974e+03
2.072139e+03,2.411415e+03
2.075032e+03,2.405943e+03
2.077925e+03,2.388038e+03
2.080817e+03,2.406937e+03
2.083710e+03,2.402765e+03
2.086603e+03,2.368410e+03
2.089496e+03,2.382352e+03
2.092388e+03,2.365337e+03
2.095281e+03,2.361124e+03
2.098174e+03,2.338483e+03
2.101066e+03,2.327097e+03
2.103959e+03,2.335710e+03
2.106852e+03,2.318840e+03
2.109744e+03,2.312563e+03
2.112637e+03,2.320485e+03
2.115530e+03,2.290381e+03
2.118422e+03,2.285128e+03
2.121315e+03,2.308317e+03
2.124208e+03,2.289282e+03
2.127101e+03,2.265083e+03
2.129993e+03,2.276694e+03
2.132886e+03,2.257747e+03
2.135779e+03,2.258585e+03
2.138671e+03,2.266753e+03
2.141564e+03,2.243096e+03
2.144457e+03,2.241842e+03
2.147350e+03,2.214182e+03
2.150242e+03,2.222224e+03
2.153135e+03,2.246847e+03
2.156028e+03,2.211884e+03
2.158920e+03,2.209434e+03
2.161813e+03,2.203102e+03
2.164706e+03,2.179556e+03
2.167598e+03,2.156358e+03
2.170491e+03,2.173913e+03
2.173384e+03,2.161953e+03
2.176277e+03,2.167394e+03
2.179169e+03,2.150865e+03
2.182062e+03,2.156332e+03
2.184955e+03,2.136418e+03
2.187847e+03,2.141639e+03
2.190740e+03,2.121082e+03
2.193633e+03,2.111301e+03
2.196525e+03,2.114650e+03
2.199418e+03,2.116128e+03
2.202311e+03,2.112020e+03
2.205204e+03,2.083422e+03
2.208096e+03,2.087722e+03
2.210989e+03,2.060165e+03
2.213882e+03,2.055075e+03
2.216774e+03,2.072312e+03
2.219667e+03,2.054777e+03
2.222560e+03,2.053824e+03
2.225452e+03,2.035564e+03
2.228345e+03,2.032719e+03
2.231238e+03,2.043304e+03
2.234131e+03,2.024149e+03
2.237023e+03,2.031529e+03
2.239916e+03,2.021470e+03
2.242809e+03,1.999037e+03
2.245701e+03,1.993831e+03
2.248594e+03,1.991151e+03
2.251487e+03,1.986792e+03
2.254379e+03,1.977062e+03
2.257272e+03,1.965001e+03
2.260165e+03,1.952296e+03
2.263058e+03,1.962582e+03
2.265950e+03,1.950183e+03
2.268843e+03,1.931484e+03
2.271736e+03,1.920246e+03
2.274628e+03,1.916892e+03
2.277521e+03,1.933676e+03
2.280414e+03,1.931615e+03
2.283306e+03,1.928778e+03
2.286199e+03,1.894214e+03
2.289092e+03,1.888542e+03
2.291985e+03,1.901621e+03
2.294877e+03,1.886716e+03
2.297770e+03,1.899951e+03
2.300663e+03,1.880508e+03
2.303555e+03,1.870117e+03
2.306448e+03,1.827877e+03
2.309341e+03,1.861719e+03
2.312233e+03,1.861627e+03
2.315126e+03,1.844370e+03
2.318019e+03,1.830767e+03
2.320912e+03,1.840331e+03
2.323804e+03,1.837180e+03
2.326697e+03,1.832528e+03
2.329590e+03,1.837312e+03
2.332482e+03,1.804573e+03
2.335375e+03,1.804569e+03
2.338268e+03,1.800362e+03
2.341160e+03,1.781644e+03
2.344053e+03,1.797956e+03
2.346946e+03,1.792024e+03
2.349839e+03,1.781621e+03
2.352731e+03,1.759929e+03
2.355624e+03,1.764844e+03
2.358517e+03,1.759569e+03
2.361409e+03,1.764991e+03
2.364302e+03,1.749471e+03
2.367195e+03,1.743410e+03
2.370087e+03,1.738774e+03
2.372980e+03,1.723390e+03
2.375873e+03,1.722630e+03
2.378766e+03,1.713360e+03
2.381658e+03,1.713977e+03
2.384551e+03,1.717907e+03
2.387444e+03,1.718758e+03
2.390336e+03,1.707531e+03
2.393229e+03,1.678334e+03
2.396122e+03,1.689932e+03
2.399014e+03,1.685938e+03
2.401907e+03,1.657593e+03
2.404800e+03,1.669212e+03
2.407693e+03,1.668123e+03
2.410585e+03,1.668591e+03
2.413478e+03,1.647176e+03
2.416371e+03,1.635171e+03
2.419263e+03,1.639778e+03
2.422156e+03,1.633729e+03
2.425049e+03,1.637875e+03
2.427941e+03,1.631600e+03
2.430834e+03,1.629979e+03
2.433727e+03,1.622598e+03
2.436620e+03,1.617284e+03
2.439512e+03,1.595618e+03
2.442405e+03,1.598605e+03
2.445298e+03,1.603588e+03
2.448190e+03,1.584966e+03
2.451083e+03,1.599110e+03
2.453976e+03,1.587888e+03
2.456868e+03,1.582993e+03
2.459761e+03,1.576343e+03
2.462654e+03,1.585654e+03
2.465547e+03,1.541508e+03
2.468439e+03,1.561320e+03
2.471332e+03,1.555810e+03
2.474225e+03,1.537911e+03
2.477117e+03,1.551451e+03
2.480010e+03,1.539823e+03
2.482903e+03,1.526570e+03
2.485795e+03,1.530796e+03
2.488688e+03,1.521295e+03
2.491581e+03,1.520658e+03
2.494474e+03,1.511694e+03
2.497366e+03,1.523120e+03
2.500259e+03,1.516917e+03
2.503152e+03,1.508286e+03
2.506044e+03,1.501568e+03
2.508937e+03,1.502120e+03
2.511830e+03,1.498696e+03
2.514722e+03,1.471144e+03
2.517615e+03,1.479974e+03
2.520508e+03,1.489912e+03
2.523401e+03,1.466483e+03
2.526293e+03,1.444078e+03
2.529186e+03,1.474238e+03
2.532079e+03,1.458236e+03
2.534971e+03,1.472818e+03
2.537864e+03,1.442741e+03
2.540757e+03,1.438193e+03
2.543649e+03,1.429315e+03
2.546542e+03,1.451031e+03
2.549435e+03,1.448990e+03
2.552328e+03,1.423652e+03
2.555220e+03,1.439828e+03
2.558113e+03,1.414033e+03
2.561006e+03,1.420901e+03
2.563898e+03,1.418443e+03
2.566791e+03,1.403515e+03
2.569684e+03,1.409807e+03
2.572576e+03,1.411158e+03
2.575469e+03,1.409107e+03
2.578362e+03,1.392380e+03
2.581255e+03,1.392323e+03
2.584147e+03,1.376745e+03
2.587040e+03,1.372781e+03
2.589933e+03,1.388828e+03
2.592825e+03,1.369095e+03
2.595718e+03,1.367236e+03
2.598611e+03,1.370161e+03
2.601503e+03,1.368869e+03
2.604396e+03,1.362706e+03
2.607289e+03,1.374402e+03
2.610182e+03,1.352497e+03
2.613074e+03,1.351770e+03
2.615967e+03,1.335578e+03
2.618860e+03,1.331787e+03
2.621752e+03,1.340724e+03
2.624645e+03,1.328665e+03
2.627538e+03,1.332909e+03
2.630430e+03,1.320883e+03
2.633323e+03,1.317857e+03
2.636216e+03,1.319106e+03
2.639109e+03,1.321127e+03
2.642001e+03,1.309081e+03
2.644894e+03,1.298440e+03
2.647787e+03,1.288243e+03
2.650679e+03,1.309298e+03
2.653572e+03,1.335216e+03
2.656465e+03,1.290007e+03
2.659357e+03,1.283292e+03
2.662250e+03,1.307204e+03
2.665143e+03,1.279494e+03
2.668036e+03,1.286989e+03
2.670928e+03,1.262915e+03
2.673821e+03,1.284272e+03
2.676714e+03,1.249366e+03
2.679606e+03,1.249542e+03
2.682499e+03,1.270765e+03
2.685392e+03,1.245810e+03
2.688284e+03,1.241818e+03
2.691177e+03,1.240808e+03
2.694070e+03,1.223958e+03
2.696963e+03,1.241178e+03
2.699855e+03,1.247584e+03
2.702748e+03,1.243301e+03
2.705641e+03,1.233376e+03
2.708533e+03,1.227037e+03
2.711426e+03,1.216004e+03
2.714319e+03,1.222495e+03
2.717211e+03,1.219581e+03
2.720104e+03,1.223269e+03
2.722997e+03,1.224125e+03
2.725890e+03,1.195162e+03
2.728782e+03,1.219021e+03
2.731675e+03,1.200018e+03
2.734568e+03,1.206617e+03
2.737460e+03,1.204431e+03
2.740353e+03,1.206086e+03
2.743246e+03,1.191910e+03
2.746138e+03,1.204174e+03
2.749031e+03,1.222454e+03
2.751924e+03,1.168772e+03
2.754817e+03,1.196615e+03
2.757709e+03,1.196295e+03
2.760602e+03,1.187017e+03
2.763495e+03,1.175468e+03
2.766387e+03,1.173783e+03
2.769280e+03,1.149696e+03
2.772173e+03,1.151343e+03
2.775065e+03,1.186742e+03
2.777958e+03,1.170426e+03
2.780851e+03,1.152547e+03
2.783744e+03,1.126794e+03
2.786636e+03,1.148785e+03
2.789529e+03,1.160496e+03
2.792422e+03,1.146303e+03
2.795314e+03,1.145623e+03
2.798207e+03,1.151667e+03
2.801100e+03,1.121558e+03
2.803992e+03,1.151100e+03
2.806885e+03,1.138158e+03
2.809778e+03,1.138957e+03
2.812671e+03,1.125430e+03
2.815563e+03,1.130193e+03
2.818456e+03,1.113192e+03
2.821349e+03,1.127056e+03
2.824241e+03,1.120818e+03
2.827134e+03,1.117647e+03
2.830027e+03,1.114090e+03
2.832919e+03,1.122006e+03
2.835812e+03,1.085818e+03
2.838705e+03,1.102708e+03
2.841598e+03,1.101082e+03
2.844490e+03,1.099754e+03
2.847383e+03,1.113601e+03
2.850276e+03,1.100259e+03
2.853168e+03,1.096124e+03
2.856061e+03,1.122299e+03
2.858954e+03,1.104558e+03
2.861846e+03,1.099949e+03
2.864739e+03,1.087829e+03
2.867632e+03,1.106637e+03
2.870525e+03,1.098639e+03
2.873417e+03,1.112820e+03
2.876310e+03,1.077599e+03
2.879203e+03,1.091487e+03
2.882095e+03,1.088869e+03
2.884988e+03,1.105371e+03
2.887881e+03,1.084061e+03
2.890773e+03,1.087375e+03
2.893666e+03,1.101915e+03
2.896559e+03,1.090045e+03
2.899452e+03,1.089261e+03
2.902344e+03,1.078407e+03
2.905237e+03,1.092328e+03
2.908130e+03,1.077184e+03
2.911022e+03,1.081786e+03
2.913915e+03,1.027700e+03
2.916808e+03,1.039894e+03
2.919700e+03,1.051563e+03
2.922593e+03,1.023931e+03
2.925486e+03,1.054021e+03
2.928379e+03,1.018537e+03
2.931271e+03,1.077525e+03
2.934164e+03,1.049841e+03
2.937057e+03,1.053133e+03
2.939949e+03,1.037531e+03
2.942842e+03,1.020919e+03
2.945735e+03,1.037407e+03
2.948627e+03,1.035289e+03
2.951520e+03,1.042248e+03
2.954413e+03,1.015393e+03
2.957306e+03,1.018235e+03
2.960198e+03,1.049958e+03
2.963091e+03,1.021195e+03
2.965984e+03,1.013433e+03
2.968876e+03,1.020159e+03
2.971769e+03,1.025222e+03
2.974662e+03,9.960656e+02
2.977554e+03,9.977166e+02
2.980447e+03,1.015937e+03
2.983340e+03,9.810670e+02
2.986233e+03,1.023136e+03
2.989125e+03,1.008887e+03
2.992018e+03,9.633947e+02
2.994911e+03,9.974731e+02
2.997803e+03,9.696024e+02
3.000696e+03,1.012483e+03
3.003589e+03,9.704694e+02
3.006481e+03,9.887443e+02
3.009374e+03,9.909740e+02
3.012267e+03,9.709396e+02
3.015160e+03,9.618103e+02
3.018052e+03,9.459693e+02
3.020945e+03,9.894236e+02
3.023838e+03,9.678380e+02
3.026730e+03,9.737098e+02
3.029623e+03,9.620518e+02
3.032516e+03,9.484572e+02
3.035408e+03,9.613148e+02
3.038301e+03,9.646293e+02
3.041194e+03,9.635740e+02
3.044087e+03,9.220445e+02
3.046979e+03,9.738912e+02
3.049872e+03,9.426283e+02
3.052765e+03,9.574064e+02
3.055657e+03,9.570817e+02
3.058550e+03,9.489652e+02
3.061443e+03,9.583452e+02
3.064335e+03,9.447999e+02
3.067228e+03,9.113435e+02
3.070121e+03,9.679852e+02
3.073014e+03,9.772156e+02
3.075906e+03,9.582360e+02
3.078799e+03,9.403551e+02
3.081692e+03,9.730494e+02
3.084584e+03,9.157462e+02
3.087477e+03,9.280683e+02
3.090370e+03,9.473828e+02
3.093262e+03,9.571716e+02
3.096155e+03,9.808359e+02
3.099048e+03,9.081890e+02
3.101941e+03,9.699407e+02
3.104833e+03,9.387343e+02
3.107726e+03,9.361337e+02
3.110619e+03,9.334522e+02
3.113511e+03,9.461131e+02
3.116404e+03,9.476526e+02
3.119297e+03,9.511506e+02
3.122189e+03,9.418686e+02
3.125082e+03,9.388986e+02
3.127975e+03,9.620789e+02
3.130868e+03,9.526588e+02
3.133760e+03,9.538585e+02
3.136653e+03,9.284039e+02
3.139546e+03,9.632662e+02
3.142438e+03,9.239124e+02
3.145331e+03,8.733463e+02
3.148224e+03,9.566942e+02
3.151116e+03,9.277504e+02
3.154009e+03,9.522712e+02
3.156902e+03,9.697294e+02
3.159795e+03,9.687738e+02
3.162687e+03,9.430266e+02
3.165580e+03,9.358782e+02
3.168473e+03,9.337031e+02
3.171365e+03,9.427978e+02
3.174258e+03,9.662690e+02
3.177151e+03,9.148553e+02
3.180043e+03,9.534094e+02
3.182936e+03,9.762883e+02
3.185829e+03,9.493522e+02
3.188722e+03,9.474706e+02
3.191614e+03,9.515723e+02
3.194507e+03,9.458555e+02
3.197400e+03,9.576613e+02
3.200292e+03,9.720027e+02
3.203185e+03,0.000000e+00
3.206078e+03,0.000000e+00
3.208970e+03,0.000000e+00
3.211863e+03,0.000000e+00
3.214756e+03,0.000000e+00
3.217649e+03,0.000000e+00
3.220541e+03,0.000000e+00
3.223434e+03,0.000000e+00
3.226327e+03,0.000000e+00
3.229219e+03,0.000000e+00
3.232112e+03,0.000000e+00
3.235005e+03,0.000000e+00
3.237897e+03,0.000000e+00
3.240790e+03,0.000000e+00
3.243683e+03,0.000000e+00
3.246576e+03,0.000000e+00
3.249468e+03,0.000000e+00
3.252361e+03,0.000000e+00
3.255254e+03,0.000000e+00
3.258146e+03,0.000000e+00
3.261039e+03,0.000000e+00
3.263932e+03,0.000000e+00
3.266824e+03,0.000000e+00
3.269717e+03,0.000000e+00
3.272610e+03,0.000000e+00
3.275503e+03,0.000000e+00
3.278395e+03,0.000000e+00
3.281288e+03,0.000000e+00
3.284181e+03,0.000000e+00
3.287073e+03,0.000000e+00
3.289966e+03,0.000000e+00
3.292859e+03,0.000000e+00
3.295751e+03,0.000000e+00
3.298644e+03,0.000000e+00
3.301537e+03,0.000000e+00
3.304430e+03,0.000000e+00
3.307322e+03,0.000000e+00
3.310215e+03,0.000000e+00
3.313108e+03,0.000000e+00
3.316000e+03,0.000000e+00
3.318893e+03,0.000000e+00
3.321786e+03,0.000000e+00
3.324678e+03,0.000000e+00
3.327571e+03,0.000000e+00
3.330464e+03,0.000000e+00
3.333357e+03,0.000000e+00
3.336249e+03,0.000000e+00
3.339142e+03,0.000000e+00
3.342035e+03,0.000000e+00
3.344927e+03,0.000000e+00
3.347820e+03,0.000000e+00
3.350713e+03,0.000000e+00
3.353605e+03,0.000000e+00
3.356498e+03,0.000000e+00
3.359391e+03,0.000000e+00
3.362284e+03,0.000000e+00
3.365176e+03,0.000000e+00
3.368069e+03,0.000000e+00
3.370962e+03,0.000000e+00
3.373854e+03,0.000000e+00
3.376747e+03,0.000000e+00
3.379640e+03,0.000000e+00
3.382532e+03,0.000000e+00
3.385425e+03,0.000000e+00
3.388318e+03,0.000000e+00
3.391211e+03,0.000000e+00
3.394103e+03,0.000000e+00
3.396996e+03,0.000000e+00
3.399889e+03,0.000000e+00
3.402781e+03,0.000000e+00
3.405674e+03,0.000000e+00
3.408567e+03,0.000000e+00
3.411459e+03,0.000000e+00
3.414352e+03,0.000000e+00
3.417245e+03,0.000000e+00
3.420138e+03,0.000000e+00
3.423030e+03,0.000000e+00
3.425923e+03,0.000000e+00
3.428816e+03,0.000000e+00
3.431708e+03,0.000000e+00
3.434601e+03,0.000000e+00
3.437494e+03,0.000000e+00
3.440386e+03,0.000000e+00
3.443279e+03,0.000000e+00
3.446172e+03,0.000000e+00
3.449065e+03,0.000000e+00
3.451957e+03,0.000000e+00
3.454850e+03,0.000000e+00
3.457743e+03,0.000000e+00
3.460635e+03,0.000000e+00
3.463528e+03,0.000000e+00
3.466421e+03,0.000000e+00
3.469313e+03,0.000000e+00
3.472206e+03,0.000000e+00
3.475099e+03,0.000000e+00
3.477992e+03,0.000000e+00
3.480884e+03,0.000000e+00
3.483777e+03,0.000000e+00
3.486670e+03,0.000000e+00
3.489563e+03,0.000000e+00
3.492455e+03,0.000000e+00
3.495348e+03,0.000000e+00
3.498240e+03,0.000000e+00
3.500169e+03,0.000000e+00