File: RAMAN_data/20012023_r3/blue fibre1.CSV
9.931763e+01,0.000000e+00
1.022103e+02,0.000000e+00
1.051030e+02,0.000000e+00
1.079957e+02,0.000000e+00
1.108884e+02,0.000000e+00
1.137811e+02,0.000000e+00
1.166738e+02,0.000000e+00
1.195665e+02,0.000000e+00
1.224592e+02,0.000000e+00
1.253519e+02,0.000000e+00
1.282446e+02,0.000000e+00
1.311373e+02,0.000000e+00
1.340300e+02,0.000000e+00
1.369227e+02,0.000000e+00
1.398154e+02,0.000000e+00
1.427081e+02,0.000000e+00
1.456008e+02,0.000000e+00
1.484935e+02,0.000000e+00
1.513862e+02,0.000000e+00
1.542789e+02,0.000000e+00
1.571716e+02,0.000000e+00
1.600643e+02,0.000000e+00
1.629570e+02,0.000000e+00
1.658497e+02,0.000000e+00
1.687424e+02,0.000000e+00
1.716351e+02,0.000000e+00
1.745278e+02,0.000000e+00
1.774205e+02,0.000000e+00
1.803132e+02,0.000000e+00
1.832059e+02,0.000000e+00
1.860986e+02,0.000000e+00
1.889913e+02,0.000000e+00
1.918840e+02,0.000000e+00
1.947767e+02,0.000000e+00
1.976694e+02,0.000000e+00
2.005621e+02,3.830562e+03
2.034548e+02,3.831315e+03
2.063475e+02,3.849640e+03
2.092402e+02,3.840941e+03
2.121329e+02,3.810615e+03
2.150256e+02,3.838115e+03
2.179183e+02,3.823711e+03
2.208110e+02,3.836705e+03
2.237037e+02,3.850514e+03
2.265964e+02,3.838036e+03
2.294892e+02,3.828226e+03
2.323819e+02,3.838750e+03
2.352746e+02,3.844522e+03
2.381673e+02,3.852384e+03
2.410600e+02,3.826414e+03
2.439527e+02,3.838756e+03
2.468454e+02,3.834377e+03
2.497381e+02,3.848273e+03
2.526308e+02,3.860707e+03
2.555235e+02,3.844944e+03
2.584161e+02,3.842118e+03
2.613088e+02,3.849509e+03
2.642015e+02,3.853860e+03
2.670942e+02,3.863320e+03
2.699869e+02,3.871404e+03
2.728796e+02,3.852071e+03
2.757723e+02,3.882191e+03
2.786650e+02,3.863872e+03
2.815577e+02,3.866517e+03
2.844504e+02,3.877459e+03
2.873431e+02,3.861832e+03
2.902358e+02,3.851376e+03
2.931285e+02,3.861409e+03
2.960212e+02,3.862657e+03
2.989139e+02,3.862127e+03
3.018066e+02,3.869680e+03
3.046993e+02,3.865833e+03
3.075920e+02,3.882981e+03
3.104847e+02,3.871887e+03
3.133774e+02,3.856689e+03
3.162701e+02,3.841713e+03
3.191628e+02,3.860531e+03
3.220555e+02,3.846637e+03
3.249482e+02,3.864222e+03
3.278409e+02,3.878457e+03
3.307336e+02,3.884740e+03
3.336263e+02,3.864378e+03
3.365190e+02,3.836563e+03
3.394117e+02,3.835780e+03
3.423044e+02,3.849416e+03
3.451971e+02,3.860516e+03
3.480898e+02,3.837170e+03
3.509825e+02,3.831644e+03
3.538752e+02,3.848105e+03
3.567680e+02,3.862369e+03
3.596607e+02,3.857251e+03
3.625534e+02,3.859462e+03
3.654461e+02,3.844478e+03
3.683388e+02,3.845794e+03
3.712315e+02,3.856331e+03
3.741242e+02,3.870468e+03
3.770169e+02,3.861242e+03
3.799096e+02,3.866324e+03
3.828023e+02,3.848934e+03
3.856950e+02,3.834859e+03
3.885877e+02,3.819688e+03
3.914804e+02,3.808171e+03
3.943731e+02,3.805141e+03
3.972658e+02,3.821793e+03
4.001585e+02,3.798941e+03
4.030512e+02,3.801746e+03
4.059439e+02,3.817893e+03
4.088366e+02,3.821630e+03
4.117293e+02,3.811335e+03
4.146220e+02,3.804429e+03
4.175147e+02,3.806163e+03
4.204074e+02,3.798948e+03
4.233001e+02,3.809178e+03
4.261928e+02,3.787277e+03
4.290855e+02,3.787725e+03
4.319782e+02,3.802694e+03
4.348709e+02,3.796578e+03
4.377636e+02,3.796384e+03
4.406563e+02,3.788577e+03
4.435490e+02,3.759557e+03
4.464417e+02,3.773396e+03
4.493344e+02,3.759550e+03
4.522271e+02,3.768173e+03
4.551198e+02,3.776608e+03
4.580125e+02,3.760810e+03
4.609052e+02,3.755447e+03
4.637979e+02,3.763246e+03
4.666906e+02,3.760761e+03
4.695833e+02,3.745213e+03
4.724760e+02,3.738600e+03
4.753687e+02,3.733860e+03
4.782614e+02,3.736262e+03
4.811541e+02,3.734642e+03
4.840468e+02,3.711626e+03
4.869395e+02,3.714767e+03
4.898322e+02,3.705923e+03
4.927249e+02,3.706054e+03
4.956176e+02,3.697138e+03
4.985103e+02,3.702278e+03
5.014030e+02,3.706196e+03
5.042957e+02,3.698420e+03
5.071884e+02,3.698444e+03
5.100811e+02,3.708130e+03
5.129738e+02,3.701758e+03
5.158665e+02,3.704886e+03
5.187592e+02,3.686805e+03
5.216519e+02,3.684235e+03
5.245446e+02,3.688353e+03
5.274373e+02,3.690444e+03
5.303300e+02,3.664146e+03
5.332227e+02,3.656023e+03
5.361154e+02,3.659219e+03
5.390081e+02,3.652842e+03
5.419008e+02,3.658393e+03
5.447935e+02,3.637072e+03
5.476862e+02,3.642183e+03
5.505789e+02,3.648678e+03
5.534716e+02,3.640807e+03
5.563643e+02,3.619396e+03
5.592570e+02,3.630454e+03
5.621497e+02,3.623469e+03
5.650424e+02,3.635430e+03
5.679351e+02,3.613146e+03
5.708278e+02,3.602694e+03
5.737205e+02,3.621078e+03
5.766132e+02,3.612741e+03
5.795059e+02,3.608057e+03
5.823986e+02,3.605852e+03
5.852913e+02,3.617783e+03
5.881840e+02,3.594837e+03
5.910767e+02,3.594194e+03
5.939694e+02,3.574115e+03
5.968621e+02,3.597557e+03
5.997548e+02,3.590632e+03
6.026475e+02,3.591314e+03
6.055402e+02,3.579239e+03
6.084329e+02,3.583915e+03
6.113256e+02,3.575302e+03
6.142183e+02,3.563737e+03
6.171110e+02,3.557569e+03
6.200037e+02,3.552735e+03
6.228964e+02,3.546883e+03
6.257891e+02,3.560034e+03
6.286818e+02,3.555719e+03
6.315745e+02,3.545273e+03
6.344672e+02,3.536722e+03
6.373599e+02,3.539048e+03
6.402526e+02,3.509265e+03
6.431453e+02,3.534417e+03
6.460380e+02,3.520429e+03
6.489307e+02,3.514989e+03
6.518234e+02,3.498185e+03
6.547161e+02,3.520660e+03
6.576088e+02,3.520895e+03
6.605015e+02,3.480061e+03
6.633942e+02,3.482200e+03
6.662869e+02,3.489728e+03
6.691796e+02,3.483802e+03
6.720723e+02,3.466780e+03
6.749650e+02,3.476410e+03
6.778577e+02,3.440375e+03
6.807504e+02,3.480834e+03
6.836431e+02,3.459931e+03
6.865358e+02,3.462991e+03
6.894285e+02,3.442339e+03
6.923212e+02,3.446364e+03
6.952139e+02,3.425907e+03
6.981066e+02,3.455822e+03
7.009993e+02,3.442166e+03
7.038920e+02,3.436827e+03
7.067847e+02,3.407605e+03
7.096774e+02,3.413610e+03
7.125701e+02,3.428153e+03
7.154628e+02,3.417397e+03
7.183555e+02,3.410070e+03
7.212482e+02,3.397758e+03
7.241409e+02,3.403752e+03
7.270336e+02,3.400640e+03
7.299263e+02,3.422371e+03
7.328190e+02,3.394637e+03
7.357117e+02,3.396036e+03
7.386044e+02,3.395952e+03
7.414971e+02,3.382583e+03
7.443898e+02,3.369428e+03
7.472825e+02,3.352463e+03
7.501752e+02,3.360886e+03
7.530679e+02,3.347642e+03
7.559606e+02,3.341684e+03
7.588533e+02,3.350712e+03
7.617460e+02,3.349052e+03
7.646387e+02,3.327780e+03
7.675314e+02,3.332255e+03
7.704241e+02,3.348274e+03
7.733168e+02,3.314167e+03
7.762095e+02,3.327862e+03
7.791022e+02,3.327868e+03
7.819949e+02,3.319726e+03
7.848876e+02,3.293852e+03
7.877803e+02,3.295826e+03
7.906730e+02,3.293047e+03
7.935657e+02,3.275411e+03
7.964584e+02,3.274118e+03
7.993511e+02,3.295946e+03
8.022438e+02,3.278127e+03
8.051365e+02,3.266720e+03
8.080292e+02,3.265050e+03
8.109219e+02,3.269365e+03
8.138146e+02,3.262235e+03
8.167073e+02,3.264912e+03
8.196000e+02,3.268863e+03
8.224927e+02,3.258359e+03
8.253854e+02,3.237108e+03
8.282781e+02,3.262215e+03
8.311708e+02,3.223868e+03
8.340635e+02,3.222714e+03
8.369562e+02,3.226064e+03
8.398489e+02,3.210997e+03
8.427416e+02,3.219490e+03
8.456343e+02,3.220219e+03
8.485270e+02,3.218455e+03
8.514197e+02,3.213418e+03
8.543124e+02,3.216932e+03
8.572051e+02,3.230566e+03
8.600978e+02,3.228865e+03
8.629905e+02,3.197553e+03
8.658832e+02,3.192028e+03
8.687759e+02,3.174989e+03
8.716686e+02,3.168904e+03
8.745613e+02,3.173364e+03
8.774540e+02,3.183809e+03
8.803467e+02,3.169655e+03
8.832394e+02,3.170678e+03
8.861321e+02,3.170035e+03
8.890248e+02,3.162240e+03
8.919175e+02,3.142533e+03
8.948102e+02,3.135231e+03
8.977029e+02,3.127791e+03
9.005956e+02,3.127634e+03
9.034883e+02,3.109222e+03
9.063810e+02,3.108019e+03
9.092737e+02,3.112817e+03
9.121664e+02,3.104575e+03
9.150591e+02,3.091500e+03
9.179518e+02,3.095944e+03
9.208445e+02,3.081090e+03
9.237372e+02,3.077930e+03
9.266299e+02,3.068431e+03
9.295226e+02,3.077715e+03
9.324153e+02,3.084389e+03
9.353080e+02,3.075205e+03
9.382007e+02,3.054719e+03
9.410934e+02,3.038148e+03
9.439861e+02,3.040819e+03
9.468788e+02,3.033091e+03
9.497715e+02,3.053446e+03
9.526642e+02,3.032349e+03
9.555569e+02,3.026859e+03
9.584496e+02,3.033171e+03
9.613423e+02,3.013166e+03
9.642350e+02,3.022724e+03
9.671277e+02,3.014268e+03
9.700204e+02,3.003918e+03
9.729131e+02,2.989791e+03
9.758058e+02,2.992745e+03
9.786985e+02,2.998987e+03
9.815912e+02,2.986294e+03
9.844839e+02,2.977720e+03
9.873766e+02,2.980562e+03
9.902693e+02,2.985193e+03
9.931620e+02,2.985494e+03
9.960547e+02,2.986386e+03
9.989474e+02,2.983132e+03
1.001840e+03,2.948628e+03
1.004733e+03,2.970190e+03
1.007626e+03,2.967612e+03
1.010518e+03,2.963401e+03
1.013411e+03,2.928653e+03
1.016304e+03,2.930297e+03
1.019196e+03,2.929963e+03
1.022089e+03,2.934794e+03
1.024982e+03,2.940766e+03
1.027875e+03,2.918649e+03
1.030767e+03,2.930302e+03
1.033660e+03,2.921261e+03
1.036552e+03,2.901216e+03
1.039445e+03,2.909919e+03
1.042338e+03,2.919139e+03
1.045231e+03,2.900759e+03
1.048123e+03,2.910930e+03
1.051016e+03,2.906465e+03
1.053909e+03,2.920194e+03
1.056802e+03,2.889719e+03
1.059694e+03,2.909904e+03
1.062587e+03,2.915750e+03
1.065479e+03,2.873420e+03
1.068372e+03,2.893898e+03
1.071265e+03,2.916239e+03
1.074158e+03,2.920262e+03
1.077050e+03,2.892552e+03
1.079943e+03,2.908605e+03
1.082836e+03,2.895107e+03
1.085729e+03,2.907552e+03
1.088621e+03,2.906400e+03
1.091514e+03,2.919177e+03
1.094406e+03,2.914240e+03
1.097299e+03,2.912396e+03
1.100192e+03,2.873220e+03
1.103085e+03,2.880190e+03
1.105977e+03,2.864210e+03
1.108870e+03,2.857636e+03
1.111763e+03,2.863738e+03
1.114656e+03,2.868871e+03
1.117548e+03,2.877955e+03
1.120441e+03,2.858575e+03
1.123334e+03,2.853086e+03
1.126226e+03,2.849035e+03
1.129119e+03,2.834931e+03
1.132012e+03,2.835588e+03
1.134904e+03,2.861783e+03
1.137797e+03,2.838871e+03
1.140690e+03,2.847591e+03
1.143583e+03,2.833625e+03
1.146475e+03,2.822177e+03
1.149368e+03,2.841515e+03
1.152261e+03,2.849273e+03
1.155153e+03,2.854887e+03
1.158046e+03,2.842423e+03
1.160939e+03,2.833911e+03
1.163831e+03,2.835732e+03
1.166724e+03,2.813982e+03
1.169617e+03,2.810521e+03
1.172510e+03,2.802313e+03
1.175402e+03,2.793052e+03
1.178295e+03,2.790612e+03
1.181188e+03,2.777658e+03
1.184080e+03,2.754372e+03
1.186973e+03,2.728632e+03
1.189866e+03,2.750182e+03
1.192758e+03,2.750061e+03
1.195651e+03,2.754478e+03
1.198544e+03,2.738694e+03
1.201437e+03,2.741130e+03
1.204329e+03,2.733369e+03
1.207222e+03,2.739773e+03
1.210115e+03,2.741077e+03
1.213007e+03,2.717484e+03
1.215900e+03,2.702986e+03
1.218793e+03,2.689618e+03
1.221685e+03,2.691110e+03
1.224578e+03,2.700093e+03
1.227471e+03,2.693332e+03
1.230364e+03,2.689013e+03
1.233256e+03,2.687734e+03
1.236149e+03,2.658601e+03
1.239042e+03,2.671392e+03
1.241934e+03,2.685063e+03
1.244827e+03,2.671413e+03
1.247720e+03,2.663595e+03
1.250612e+03,2.669977e+03
1.253505e+03,2.662543e+03
1.256398e+03,2.666278e+03
1.259291e+03,2.648258e+03
1.262183e+03,2.639815e+03
1.265076e+03,2.656571e+03
1.267969e+03,2.657849e+03
1.270861e+03,2.662894e+03
1.273754e+03,2.650287e+03
1.276647e+03,2.663338e+03
1.279539e+03,2.665365e+03
1.282432e+03,2.668656e+03
1.285325e+03,2.669871e+03
1.288218e+03,2.677771e+03
1.291110e+03,2.663326e+03
1.294003e+03,2.668383e+03
1.296896e+03,2.659989e+03
1.299788e+03,2.674607e+03
1.302681e+03,2.663645e+03
1.305574e+03,2.666002e+03
1.308466e+03,2.672752e+03
1.311359e+03,2.684423e+03
1.314252e+03,2.673914e+03
1.317145e+03,2.670880e+03
1.320037e+03,2.685714e+03
1.322930e+03,2.685604e+03
1.325823e+03,2.679945e+03
1.328715e+03,2.669298e+03
1.331608e+03,2.660992e+03
1.334501e+03,2.665199e+03
1.337393e+03,2.651747e+03
1.340286e+03,2.638393e+03
1.343179e+03,2.631357e+03
1.346072e+03,2.614454e+03
1.348964e+03,2.616213e+03
1.351857e+03,2.605474e+03
1.354750e+03,2.587993e+03
1.357642e+03,2.576978e+03
1.360535e+03,2.569786e+03
1.363428e+03,2.571847e+03
1.366320e+03,2.579984e+03
1.369213e+03,2.563800e+03
1.372106e+03,2.552414e+03
1.374999e+03,2.549855e+03
1.377891e+03,2.541864e+03
1.380784e+03,2.540774e+03
1.383677e+03,2.528454e+03
1.386569e+03,2.512103e+03
1.389462e+03,2.517416e+03
1.392355e+03,2.507772e+03
1.395247e+03,2.518239e+03
1.398140e+03,2.512256e+03
1.401033e+03,2.489623e+03
1.403926e+03,2.496798e+03
1.406818e+03,2.471721e+03
1.409711e+03,2.460261e+03
1.412604e+03,2.482796e+03
1.415496e+03,2.477300e+03
1.418389e+03,2.477121e+03
1.421282e+03,2.466340e+03
1.424174e+03,2.451100e+03
1.427067e+03,2.453885e+03
1.429960e+03,2.456098e+03
1.432853e+03,2.453225e+03
1.435745e+03,2.445907e+03
1.438638e+03,2.430050e+03
1.441531e+03,2.431164e+03
1.444423e+03,2.430534e+03
1.447316e+03,2.424717e+03
1.450209e+03,2.417296e+03
1.453101e+03,2.414962e+03
1.455994e+03,2.425604e+03
1.458887e+03,2.425870e+03
1.461780e+03,2.404657e+03
1.464672e+03,2.401564e+03
1.467565e+03,2.392037e+03
1.470458e+03,2.373813e+03
1.473350e+03,2.387995e+03
1.476243e+03,2.376735e+03
1.479136e+03,2.399763e+03
1.482028e+03,2.390096e+03
1.484921e+03,2.364733e+03
1.487814e+03,2.368664e+03
1.490707e+03,2.361604e+03
1.493599e+03,2.345785e+03
1.496492e+03,2.336825e+03
1.499385e+03,2.338747e+03
1.502277e+03,2.350111e+03
1.505170e+03,2.337759e+03
1.508063e+03,2.341826e+03
1.510955e+03,2.328867e+03
1.513848e+03,2.319821e+03
1.516741e+03,2.329647e+03
1.519634e+03,2.332669e+03
1.522526e+03,2.316104e+03
1.525419e+03,2.325642e+03
1.528312e+03,2.304262e+03
1.531204e+03,2.301092e+03
1.534097e+03,2.302022e+03
1.536990e+03,2.303872e+03
1.539882e+03,2.305971e+03
1.542775e+03,2.300428e+03
1.545668e+03,2.303247e+03
1.548561e+03,2.286549e+03
1.551453e+03,2.292374e+03
1.554346e+03,2.290886e+03
1.557239e+03,2.287922e+03
1.560131e+03,2.280636e+03
1.563024e+03,2.277188e+03
1.565917e+03,2.284582e+03
1.568809e+03,2.287079e+03
1.571702e+03,2.286836e+03
1.574595e+03,2.298013e+03
1.577488e+03,2.317767e+03
1.580380e+03,2.291669e+03
1.583273e+03,2.273218e+03
1.586166e+03,2.285689e+03
1.589058e+03,2.257960e+03
1.591951e+03,2.251776e+03
1.594844e+03,2.248153e+03
1.597736e+03,2.262642e+03
1.600629e+03,2.262323e+03
1.603522e+03,2.276148e+03
1.606415e+03,2.280372e+03
1.609307e+03,2.302039e+03
1.612200e+03,2.324890e+03
1.615093e+03,2.313572e+03
1.617985e+03,2.287758e+03
1.620878e+03,2.245111e+03
1.623771e+03,2.210185e+03
1.626663e+03,2.197615e+03
1.629556e+03,2.202753e+03
1.632449e+03,2.169024e+03
1.635342e+03,2.172615e+03
1.638234e+03,2.176745e+03
1.641127e+03,2.157331e+03
1.644020e+03,2.138970e+03
1.646912e+03,2.161494e+03
1.649805e+03,2.143993e+03
1.652698e+03,2.152148e+03
1.655590e+03,2.138373e+03
1.658483e+03,2.141077e+03
1.661376e+03,2.134988e+03
1.664269e+03,2.122659e+03
1.667161e+03,2.111703e+03
1.670054e+03,2.107267e+03
1.672947e+03,2.109543e+03
1.675839e+03,2.099623e+03
1.678732e+03,2.107124e+03
1.681625e+03,2.088954e+03
1.684517e+03,2.088123e+03
1.687410e+03,2.097899e+03
1.690303e+03,2.093832e+03
1.693196e+03,2.089265e+03
1.696088e+03,2.071375e+03
1.698981e+03,2.078750e+03
1.701874e+03,2.076317e+03
1.704766e+03,2.075592e+03
1.707659e+03,2.065099e+03
1.710552e+03,2.073526e+03
1.713444e+03,2.066603e+03
1.716337e+03,2.069849e+03
1.719230e+03,2.059745e+03
1.722123e+03,2.077926e+03
1.725015e+03,2.097778e+03
1.727908e+03,2.070735e+03
1.730801e+03,2.068813e+03
1.733693e+03,2.046377e+03
1.736586e+03,2.040360e+03
1.739479e+03,2.037872e+03
1.742371e+03,2.035557e+03
1.745264e+03,2.018286e+03
1.748157e+03,2.012174e+03
1.751050e+03,1.998171e+03
1.753942e+03,2.005000e+03
1.756835e+03,2.003932e+03
1.759728e+03,1.973064e+03
1.762620e+03,1.977482e+03
1.765513e+03,1.981022e+03
1.768406e+03,1.983076e+03
1.771298e+03,1.965300e+03
1.774191e+03,1.969216e+03
1.777084e+03,1.953640e+03
1.779977e+03,1.954867e+03
1.782869e+03,1.946700e+03
1.785762e+03,1.946339e+03
1.788655e+03,1.931084e+03
1.791547e+03,1.922573e+03
1.794440e+03,1.933050e+03
1.797333e+03,1.935630e+03
1.800225e+03,1.922118e+03
1.803118e+03,1.918199e+03
1.806011e+03,1.912365e+03
1.808904e+03,1.906188e+03
1.811796e+03,1.921958e+03
1.814689e+03,1.905044e+03
1.817582e+03,1.904011e+03
1.820474e+03,1.900571e+03
1.823367e+03,1.869590e+03
1.826260e+03,1.887952e+03
1.829152e+03,1.869048e+03
1.832045e+03,1.859372e+03
1.834938e+03,1.871175e+03
1.837831e+03,1.876578e+03
1.840723e+03,1.863255e+03
1.843616e+03,1.873802e+03
1.846509e+03,1.840999e+03
1.849401e+03,1.845996e+03
1.852294e+03,1.835394e+03
1.855187e+03,1.842603e+03
1.858079e+03,1.837030e+03
1.860972e+03,1.832565e+03
1.863865e+03,1.815495e+03
1.866758e+03,1.813663e+03
1.869650e+03,1.825199e+03
1.872543e+03,1.800694e+03
1.875436e+03,1.802502e+03
1.878328e+03,1.800880e+03
1.881221e+03,1.808651e+03
1.884114e+03,1.794029e+03
1.887006e+03,1.793981e+03
1.889899e+03,1.787499e+03
1.892792e+03,1.790457e+03
1.895685e+03,1.765975e+03
1.898577e+03,1.776803e+03
1.901470e+03,1.779993e+03
1.904363e+03,1.750772e+03
1.907255e+03,1.750108e+03
1.910148e+03,1.765574e+03
1.913041e+03,1.748344e+03
1.915933e+03,1.773058e+03
1.918826e+03,1.748281e+03
1.921719e+03,1.744839e+03
1.924612e+03,1.735520e+03
1.927504e+03,1.734877e+03
1.930397e+03,1.738851e+03
1.933290e+03,1.703987e+03
1.936182e+03,1.720503e+03
1.939075e+03,1.717617e+03
1.941968e+03,1.704556e+03
1.944860e+03,1.687653e+03
1.947753e+03,1.698465e+03
1.950646e+03,1.680326e+03
1.953539e+03,1.688742e+03
1.956431e+03,1.690766e+03
1.959324e+03,1.670938e+03
1.962217e+03,1.682558e+03
1.965109e+03,1.664269e+03
1.968002e+03,1.679642e+03
1.970895e+03,1.664973e+03
1.973787e+03,1.646049e+03
1.976680e+03,1.663930e+03
1.979573e+03,1.630439e+03
1.982466e+03,1.648881e+03
1.985358e+03,1.658674e+03
1.988251e+03,1.646773e+03
1.991144e+03,1.625863e+03
1.994036e+03,1.625773e+03
1.996929e+03,1.631786e+03
1.999822e+03,1.630750e+03
2.002714e+03,1.622589e+03
2.005607e+03,1.616012e+03
2.008500e+03,1.617059e+03
2.011393e+03,1.610059e+03
2.014285e+03,1.616682e+03
2.017178e+03,1.615107e+03
2.020071e+03,1.585424e+03
2.022963e+03,1.588852e+03
2.025856e+03,1.580927e+03
2.028749e+03,1.585335e+03
2.031641e+03,1.583008e+03
2.034534e+03,1.577502e+03
2.037427e+03,1.565347e+03
2.040320e+03,1.567717e+03
2.043212e+03,1.548260e+03
2.046105e+03,1.567459e+03
2.048998e+03,1.553969e+03
2.051890e+03,1.543773e+03
2.054783e+03,1.535571e+03
2.057676e+03,1.552655e+03
2.060568e+03,1.514024e+03
2.063461e+03,1.542501e+03
2.066354e+03,1.521399e+03
2.069247e+03,1.530702e+03
2.072139e+03,1.524523e+03
2.075032e+03,1.502440e+03
2.077925e+03,1.501052e+03
2.080817e+03,1.517102e+03
2.083710e+03,1.486984e+03
2.086603e+03,1.477737e+03
2.089496e+03,1.500114e+03
2.092388e+03,1.484676e+03
2.095281e+03,1.499835e+03
2.098174e+03,1.490211e+03
2.101066e+03,1.493039e+03
2.103959e+03,1.466462e+03
2.106852e+03,1.474669e+03
2.109744e+03,1.461869e+03
2.112637e+03,1.452708e+03
2.115530e+03,1.448046e+03
2.118422e+03,1.435782e+03
2.121315e+03,1.453596e+03
2.124208e+03,1.468342e+03
2.127101e+03,1.441554e+03
2.129993e+03,1.431962e+03
2.132886e+03,1.432680e+03
2.135779e+03,1.423771e+03
2.138671e+03,1.429574e+03
2.141564e+03,1.414300e+03
2.144457e+03,1.418357e+03
2.147350e+03,1.409169e+03
2.150242e+03,1.396763e+03
2.153135e+03,1.400295e+03
2.156028e+03,1.392289e+03
2.158920e+03,1.399585e+03
2.161813e+03,1.378914e+03
2.164706e+03,1.374662e+03
2.167598e+03,1.383445e+03
2.170491e+03,1.385027e+03
2.173384e+03,1.382722e+03
2.176277e+03,1.385661e+03
2.179169e+03,1.349643e+03
2.182062e+03,1.367906e+03
2.184955e+03,1.355519e+03
2.187847e+03,1.343162e+03
2.190740e+03,1.352251e+03
2.193633e+03,1.343512e+03
2.196525e+03,1.340206e+03
2.199418e+03,1.317371e+03
2.202311e+03,1.342047e+03
2.205204e+03,1.322914e+03
2.208096e+03,1.329257e+03
2.210989e+03,1.304026e+03
2.213882e+03,1.329550e+03
2.216774e+03,1.320050e+03
2.219667e+03,1.309410e+03
2.222560e+03,1.295589e+03
2.225452e+03,1.295406e+03
2.228345e+03,1.304334e+03
2.231238e+03,1.308012e+03
2.234131e+03,1.293565e+03
2.237023e+03,1.292105e+03
2.239916e+03,1.272497e+03
2.242809e+03,1.267069e+03
2.245701e+03,1.280967e+03
2.248594e+03,1.264982e+03
2.251487e+03,1.265697e+03
2.254379e+03,1.271284e+03
2.257272e+03,1.262133e+03
2.260165e+03,1.256054e+03
2.263058e+03,1.248143e+03
2.265950e+03,1.246620e+03
2.268843e+03,1.244567e+03
2.271736e+03,1.235891e+03
2.274628e+03,1.247883e+03
2.277521e+03,1.239659e+03
2.280414e+03,1.228949e+03
2.283306e+03,1.236015e+03
2.286199e+03,1.232886e+03
2.289092e+03,1.210958e+03
2.291985e+03,1.217898e+03
2.294877e+03,1.215751e+03
2.297770e+03,1.221684e+03
2.300663e+03,1.186367e+03
2.303555e+03,1.212537e+03
2.306448e+03,1.194079e+03
2.309341e+03,1.196038e+03
2.312233e+03,1.189040e+03
2.315126e+03,1.178202e+03
2.318019e+03,1.178664e+03
2.320912e+03,1.176028e+03
2.323804e+03,1.171266e+03
2.326697e+03,1.178327e+03
2.329590e+03,1.192550e+03
2.332482e+03,1.150730e+03
2.335375e+03,1.170302e+03
2.338268e+03,1.147462e+03
2.341160e+03,1.150119e+03
2.344053e+03,1.168490e+03
2.346946e+03,1.157248e+03
2.349839e+03,1.151701e+03
2.352731e+03,1.152283e+03
2.355624e+03,1.135682e+03
2.358517e+03,1.146213e+03
2.361409e+03,1.145481e+03
2.364302e+03,1.128121e+03
2.367195e+03,1.127502e+03
2.370087e+03,1.117686e+03
2.372980e+03,1.130711e+03
2.375873e+03,1.121805e+03
2.378766e+03,1.114424e+03
2.381658e+03,1.101435e+03
2.384551e+03,1.118491e+03
2.387444e+03,1.113798e+03
2.390336e+03,1.103332e+03
2.393229e+03,1.119332e+03
2.396122e+03,1.086792e+03
2.399014e+03,1.090778e+03
2.401907e+03,1.095215e+03
2.404800e+03,1.089557e+03
2.407693e+03,1.085444e+03
2.410585e+03,1.081771e+03
2.413478e+03,1.081588e+03
2.416371e+03,1.078960e+03
2.419263e+03,1.082388e+03
2.422156e+03,1.084297e+03
2.425049e+03,1.049664e+03
2.427941e+03,1.063744e+03
2.430834e+03,1.061119e+03
2.433727e+03,1.070262e+03
2.436620e+03,1.078398e+03
2.439512e+03,1.066917e+03
2.442405e+03,1.046969e+03
2.445298e+03,1.045162e+03
2.448190e+03,1.047768e+03
2.451083e+03,1.040041e+03
2.453976e+03,1.034950e+03
2.456868e+03,1.047769e+03
2.459761e+03,1.042741e+03
2.462654e+03,1.031884e+03
2.465547e+03,1.037562e+03
2.468439e+03,1.032371e+03
2.471332e+03,1.031896e+03
2.474225e+03,1.023288e+03
2.477117e+03,1.023091e+03
2.480010e+03,1.040806e+03
2.482903e+03,1.017340e+03
2.485795e+03,1.024630e+03
2.488688e+03,1.012996e+03
2.491581e+03,1.018354e+03
2.494474e+03,1.010647e+03
2.497366e+03,1.007591e+03
2.500259e+03,1.006777e+03
2.503152e+03,9.980383e+02
2.506044e+03,1.010248e+03
2.508937e+03,9.867352e+02
2.511830e+03,9.858632e+02
2.514722e+03,9.932414e+02
2.517615e+03,9.911166e+02
2.520508e+03,9.833508e+02
2.523401e+03,1.000276e+03
2.526293e+03,9.750466e+02
2.529186e+03,9.713748e+02
2.532079e+03,9.778599e+02
2.534971e+03,9.760707e+02
2.537864e+03,9.636172e+02
2.540757e+03,9.550880e+02
2.543649e+03,9.601937e+02
2.546542e+03,9.509186e+02
2.549435e+03,9.761104e+02
2.552328e+03,9.595374e+02
2.555220e+03,9.660764e+02
2.558113e+03,9.630486e+02
2.561006e+03,9.592642e+02
2.563898e+03,9.399601e+02
2.566791e+03,9.558295e+02
2.569684e+03,9.503187e+02
2.572576e+03,9.319460e+02
2.575469e+03,9.448555e+02
2.578362e+03,9.375577e+02
2.581255e+03,9.376093e+02
2.584147e+03,9.379455e+02
2.587040e+03,9.171910e+02
2.589933e+03,9.425451e+02
2.592825e+03,9.252712e+02
2.595718e+03,9.193994e+02
2.598611e+03,9.308408e+02
2.601503e+03,9.309733e+02
2.604396e+03,9.195206e+02
2.607289e+03,9.201513e+02
2.610182e+03,9.213094e+02
2.613074e+03,9.202289e+02
2.615967e+03,9.214020e+02
2.618860e+03,9.050476e+02
2.621752e+03,9.171518e+02
2.624645e+03,9.199970e+02
2.627538e+03,9.038021e+02
2.630430e+03,8.802939e+02
2.633323e+03,9.100793e+02
2.636216e+03,9.036804e+02
2.639109e+03,8.886378e+02
2.642001e+03,9.037206e+02
2.644894e+03,8.714822e+02
2.647787e+03,8.909316e+02
2.650679e+03,8.860662e+02
2.653572e+03,8.811924e+02
2.656465e+03,8.984059e+02
2.659357e+03,8.733068e+02
2.662250e+03,8.797666e+02
2.665143e+03,8.876349e+02
2.668036e+03,8.806136e+02
2.670928e+03,8.777663e+02
2.673821e+03,8.745031e+02
2.676714e+03,8.710232e+02
2.679606e+03,8.639987e+02
2.682499e+03,8.555074e+02
2.685392e+03,8.470236e+02
2.688284e+03,8.716083e+02
2.691177e+03,8.737751e+02
2.694070e+03,8.655236e+02
2.696963e+03,8.661868e+02
2.699855e+03,8.539828e+02
2.702748e+03,8.516497e+02
2.705641e+03,8.495511e+02
2.708533e+03,8.330413e+02
2.711426e+03,8.364543e+02
2.714319e+03,8.512286e+02
2.717211e+03,8.462344e+02
2.720104e+03,8.432284e+02
2.722997e+03,8.356678e+02
2.725890e+03,8.448052e+02
2.728782e+03,8.319921e+02
2.731675e+03,8.347510e+02
2.734568e+03,8.297673e+02
2.737460e+03,8.254105e+02
2.740353e+03,8.334282e+02
2.743246e+03,7.988474e+02
2.746138e+03,8.314906e+02
2.749031e+03,8.231429e+02
2.751924e+03,8.295027e+02
2.754817e+03,8.369560e+02
2.757709e+03,8.385010e+02
2.760602e+03,8.061885e+02
2.763495e+03,8.133238e+02
2.766387e+03,7.976008e+02
2.769280e+03,8.347256e+02
2.772173e+03,8.119468e+02
2.775065e+03,8.116136e+02
2.777958e+03,8.212082e+02
2.780851e+03,8.039535e+02
2.783744e+03,7.957601e+02
2.786636e+03,7.982614e+02
2.789529e+03,7.998920e+02
2.792422e+03,8.277847e+02
2.795314e+03,7.938785e+02
2.798207e+03,7.962919e+02
2.801100e+03,7.936638e+02
2.803992e+03,8.015010e+02
2.806885e+03,8.014582e+02
2.809778e+03,7.920498e+02
2.812671e+03,7.815681e+02
2.815563e+03,7.851572e+02
2.818456e+03,7.837126e+02
2.821349e+03,7.738947e+02
2.824241e+03,7.792779e+02
2.827134e+03,7.955385e+02
2.830027e+03,7.799069e+02
2.832919e+03,7.869744e+02
2.835812e+03,7.866893e+02
2.838705e+03,7.908295e+02
2.841598e+03,7.833094e+02
2.844490e+03,7.921136e+02
2.847383e+03,7.817781e+02
2.850276e+03,7.828435e+02
2.853168e+03,7.928085e+02
2.856061e+03,7.930009e+02
2.858954e+03,7.707663e+02
2.861846e+03,7.764451e+02
2.864739e+03,7.826648e+02
2.867632e+03,7.811982e+02
2.870525e+03,7.807623e+02
2.873417e+03,7.888043e+02
2.876310e+03,8.049922e+02
2.879203e+03,7.815739e+02
2.882095e+03,7.802518e+02
2.884988e+03,7.938918e+02
2.887881e+03,8.209034e+02
2.890773e+03,8.068365e+02
2.893666e+03,7.803698e+02
2.896559e+03,8.043710e+02
2.899452e+03,8.024784e+02
2.902344e+03,7.767657e+02
2.905237e+03,7.789736e+02
2.908130e+03,7.800276e+02
2.911022e+03,7.732731e+02
2.913915e+03,7.471015e+02
2.916808e+03,7.701592e+02
2.919700e+03,7.720289e+02
2.922593e+03,7.760259e+02
2.925486e+03,7.584899e+02
2.928379e+03,7.742844e+02
2.931271e+03,7.526002e+02
2.934164e+03,7.400181e+02
2.937057e+03,7.457500e+02
2.939949e+03,7.354457e+02
2.942842e+03,7.410499e+02
2.945735e+03,7.404139e+02
2.948627e+03,7.560120e+02
2.951520e+03,7.493127e+02
2.954413e+03,7.656782e+02
2.957306e+03,7.727856e+02
2.960198e+03,7.472160e+02
2.963091e+03,7.418663e+02
2.965984e+03,7.159258e+02
2.968876e+03,7.380182e+02
2.971769e+03,7.452490e+02
2.974662e+03,7.020195e+02
2.977554e+03,7.361285e+02
2.980447e+03,7.223566e+02
2.983340e+03,7.191844e+02
2.986233e+03,7.185140e+02
2.989125e+03,7.006005e+02
2.992018e+03,7.018514e+02
2.994911e+03,7.084004e+02
2.997803e+03,6.943231e+02
3.000696e+03,7.144538e+02
3.003589e+03,6.940096e+02
3.006481e+03,7.128600e+02
3.009374e+03,7.093577e+02
3.012267e+03,6.972017e+02
3.015160e+03,6.829734e+02
3.018052e+03,6.826406e+02
3.020945e+03,6.598204e+02
3.023838e+03,7.024905e+02
3.026730e+03,6.820411e+02
3.029623e+03,6.888613e+02
3.032516e+03,7.130375e+02
3.035408e+03,6.876977e+02
3.038301e+03,7.214144e+02
3.041194e+03,6.605111e+02
3.044087e+03,6.623690e+02
3.046979e+03,6.722253e+02
3.049872e+03,6.769704e+02
3.052765e+03,6.883370e+02
3.055657e+03,6.983206e+02
3.058550e+03,6.835529e+02
3.061443e+03,7.021273e+02
3.064335e+03,6.942709e+02
3.067228e+03,6.906475e+02
3.070121e+03,6.870514e+02
3.073014e+03,6.916701e+02
3.075906e+03,6.885181e+02
3.078799e+03,6.793877e+02
3.081692e+03,7.248728e+02
3.084584e+03,6.562146e+02
3.087477e+03,6.947341e+02
3.090370e+03,6.829042e+02
3.093262e+03,6.807137e+02
3.096155e+03,6.829789e+02
3.099048e+03,6.748720e+02
3.101941e+03,6.699957e+02
3.104833e+03,6.845323e+02
3.107726e+03,7.071694e+02
3.110619e+03,6.524132e+02
3.113511e+03,6.622247e+02
3.116404e+03,6.660714e+02
3.119297e+03,6.764953e+02
3.122189e+03,6.677480e+02
3.125082e+03,6.746007e+02
3.127975e+03,6.776244e+02
3.130868e+03,6.690338e+02
3.133760e+03,6.653933e+02
3.136653e+03,6.574393e+02
3.139546e+03,6.817292e+02
3.142438e+03,6.570769e+02
3.145331e+03,6.406126e+02
3.148224e+03,6.698304e+02
3.151116e+03,6.671840e+02
3.154009e+03,6.981898e+02
3.156902e+03,6.512507e+02
3.159795e+03,6.447448e+02
3.162687e+03,6.697895e+02
3.165580e+03,6.561201e+02
3.168473e+03,6.824883e+02
3.171365e+03,6.710004e+02
3.174258e+03,6.423547e+02
3.177151e+03,6.566712e+02
3.180043e+03,6.665445e+02
3.182936e+03,6.536709e+02
3.185829e+03,6.714912e+02
3.188722e+03,6.588455e+02
3.191614e+03,6.911339e+02
3.194507e+03,6.896774e+02
3.197400e+03,6.478112e+02
3.200292e+03,6.759736e+02
3.203185e+03,0.000000e+00
3.206078e+03,0.000000e+00
3.208970e+03,0.000000e+00
3.211863e+03,0.000000e+00
3.214756e+03,0.000000e+00
3.217649e+03,0.000000e+00
3.220541e+03,0.000000e+00
3.223434e+03,0.000000e+00
3.226327e+03,0.000000e+00
3.229219e+03,0.000000e+00
3.232112e+03,0.000000e+00
3.235005e+03,0.000000e+00
3.237897e+03,0.000000e+00
3.240790e+03,0.000000e+00
3.243683e+03,0.000000e+00
3.246576e+03,0.000000e+00
3.249468e+03,0.000000e+00
3.252361e+03,0.000000e+00
3.255254e+03,0.000000e+00
3.258146e+03,0.000000e+00
3.261039e+03,0.000000e+00
3.263932e+03,0.000000e+00
3.266824e+03,0.000000e+00
3.269717e+03,0.000000e+00
3.272610e+03,0.000000e+00
3.275503e+03,0.000000e+00
3.278395e+03,0.000000e+00
3.281288e+03,0.000000e+00
3.284181e+03,0.000000e+00
3.287073e+03,0.000000e+00
3.289966e+03,0.000000e+00
3.292859e+03,0.000000e+00
3.295751e+03,0.000000e+00
3.298644e+03,0.000000e+00
3.301537e+03,0.000000e+00
3.304430e+03,0.000000e+00
3.307322e+03,0.000000e+00
3.310215e+03,0.000000e+00
3.313108e+03,0.000000e+00
3.316000e+03,0.000000e+00
3.318893e+03,0.000000e+00
3.321786e+03,0.000000e+00
3.324678e+03,0.000000e+00
3.327571e+03,0.000000e+00
3.330464e+03,0.000000e+00
3.333357e+03,0.000000e+00
3.336249e+03,0.000000e+00
3.339142e+03,0.000000e+00
3.342035e+03,0.000000e+00
3.344927e+03,0.000000e+00
3.347820e+03,0.000000e+00
3.350713e+03,0.000000e+00
3.353605e+03,0.000000e+00
3.356498e+03,0.000000e+00
3.359391e+03,0.000000e+00
3.362284e+03,0.000000e+00
3.365176e+03,0.000000e+00
3.368069e+03,0.000000e+00
3.370962e+03,0.000000e+00
3.373854e+03,0.000000e+00
3.376747e+03,0.000000e+00
3.379640e+03,0.000000e+00
3.382532e+03,0.000000e+00
3.385425e+03,0.000000e+00
3.388318e+03,0.000000e+00
3.391211e+03,0.000000e+00
3.394103e+03,0.000000e+00
3.396996e+03,0.000000e+00
3.399889e+03,0.000000e+00
3.402781e+03,0.000000e+00
3.405674e+03,0.000000e+00
3.408567e+03,0.000000e+00
3.411459e+03,0.000000e+00
3.414352e+03,0.000000e+00
3.417245e+03,0.000000e+00
3.420138e+03,0.000000e+00
3.423030e+03,0.000000e+00
3.425923e+03,0.000000e+00
3.428816e+03,0.000000e+00
3.431708e+03,0.000000e+00
3.434601e+03,0.000000e+00
3.437494e+03,0.000000e+00
3.440386e+03,0.000000e+00
3.443279e+03,0.000000e+00
3.446172e+03,0.000000e+00
3.449065e+03,0.000000e+00
3.451957e+03,0.000000e+00
3.454850e+03,0.000000e+00
3.457743e+03,0.000000e+00
3.460635e+03,0.000000e+00
3.463528e+03,0.000000e+00
3.466421e+03,0.000000e+00
3.469313e+03,0.000000e+00
3.472206e+03,0.000000e+00
3.475099e+03,0.000000e+00
3.477992e+03,0.000000e+00
3.480884e+03,0.000000e+00
3.483777e+03,0.000000e+00
3.486670e+03,0.000000e+00
3.489563e+03,0.000000e+00
3.492455e+03,0.000000e+00
3.495348e+03,0.000000e+00
3.498240e+03,0.000000e+00
3.500169e+03,0.000000e+00