File: RAMAN_data/20012023_r3/blue fibre7.CSV
9.931763e+01,0.000000e+00
1.022103e+02,0.000000e+00
1.051030e+02,0.000000e+00
1.079957e+02,0.000000e+00
1.108884e+02,0.000000e+00
1.137811e+02,0.000000e+00
1.166738e+02,0.000000e+00
1.195665e+02,0.000000e+00
1.224592e+02,0.000000e+00
1.253519e+02,0.000000e+00
1.282446e+02,0.000000e+00
1.311373e+02,0.000000e+00
1.340300e+02,0.000000e+00
1.369227e+02,0.000000e+00
1.398154e+02,0.000000e+00
1.427081e+02,0.000000e+00
1.456008e+02,0.000000e+00
1.484935e+02,0.000000e+00
1.513862e+02,0.000000e+00
1.542789e+02,0.000000e+00
1.571716e+02,0.000000e+00
1.600643e+02,0.000000e+00
1.629570e+02,0.000000e+00
1.658497e+02,0.000000e+00
1.687424e+02,0.000000e+00
1.716351e+02,0.000000e+00
1.745278e+02,0.000000e+00
1.774205e+02,0.000000e+00
1.803132e+02,0.000000e+00
1.832059e+02,0.000000e+00
1.860986e+02,0.000000e+00
1.889913e+02,0.000000e+00
1.918840e+02,0.000000e+00
1.947767e+02,0.000000e+00
1.976694e+02,0.000000e+00
2.005621e+02,7.035260e+03
2.034548e+02,7.049765e+03
2.063475e+02,7.096163e+03
2.092402e+02,7.089440e+03
2.121329e+02,7.085895e+03
2.150256e+02,7.123572e+03
2.179183e+02,7.157911e+03
2.208110e+02,7.146325e+03
2.237037e+02,7.167024e+03
2.265964e+02,7.169906e+03
2.294892e+02,7.195992e+03
2.323819e+02,7.240242e+03
2.352746e+02,7.253950e+03
2.381673e+02,7.277088e+03
2.410600e+02,7.256018e+03
2.439527e+02,7.294511e+03
2.468454e+02,7.346271e+03
2.497381e+02,7.377987e+03
2.526308e+02,7.384362e+03
2.555235e+02,7.394643e+03
2.584161e+02,7.391288e+03
2.613088e+02,7.410327e+03
2.642015e+02,7.469188e+03
2.670942e+02,7.489113e+03
2.699869e+02,7.492773e+03
2.728796e+02,7.545990e+03
2.757723e+02,7.566198e+03
2.786650e+02,7.583103e+03
2.815577e+02,7.604105e+03
2.844504e+02,7.633710e+03
2.873431e+02,7.620587e+03
2.902358e+02,7.606437e+03
2.931285e+02,7.613094e+03
2.960212e+02,7.630261e+03
2.989139e+02,7.629295e+03
3.018066e+02,7.642356e+03
3.046993e+02,7.663420e+03
3.075920e+02,7.665523e+03
3.104847e+02,7.668282e+03
3.133774e+02,7.695369e+03
3.162701e+02,7.692854e+03
3.191628e+02,7.706247e+03
3.220555e+02,7.715602e+03
3.249482e+02,7.714680e+03
3.278409e+02,7.739201e+03
3.307336e+02,7.742850e+03
3.336263e+02,7.778013e+03
3.365190e+02,7.761149e+03
3.394117e+02,7.795450e+03
3.423044e+02,7.754111e+03
3.451971e+02,7.820607e+03
3.480898e+02,7.811471e+03
3.509825e+02,7.820009e+03
3.538752e+02,7.847878e+03
3.567680e+02,7.856899e+03
3.596607e+02,7.861694e+03
3.625534e+02,7.880622e+03
3.654461e+02,7.853692e+03
3.683388e+02,7.875781e+03
3.712315e+02,7.944596e+03
3.741242e+02,7.915802e+03
3.770169e+02,7.950380e+03
3.799096e+02,7.926169e+03
3.828023e+02,7.921094e+03
3.856950e+02,7.950517e+03
3.885877e+02,7.975857e+03
3.914804e+02,7.972227e+03
3.943731e+02,7.973635e+03
3.972658e+02,7.980595e+03
4.001585e+02,7.979341e+03
4.030512e+02,8.007523e+03
4.059439e+02,8.006121e+03
4.088366e+02,8.012788e+03
4.117293e+02,8.024257e+03
4.146220e+02,8.019810e+03
4.175147e+02,8.033350e+03
4.204074e+02,8.043320e+03
4.233001e+02,8.037203e+03
4.261928e+02,8.030125e+03
4.290855e+02,8.050440e+03
4.319782e+02,8.056899e+03
4.348709e+02,8.072500e+03
4.377636e+02,8.069406e+03
4.406563e+02,8.058591e+03
4.435490e+02,8.069575e+03
4.464417e+02,8.078523e+03
4.493344e+02,8.070086e+03
4.522271e+02,8.077099e+03
4.551198e+02,8.074873e+03
4.580125e+02,8.077298e+03
4.609052e+02,8.115042e+03
4.637979e+02,8.111289e+03
4.666906e+02,8.118271e+03
4.695833e+02,8.146087e+03
4.724760e+02,8.098948e+03
4.753687e+02,8.120940e+03
4.782614e+02,8.110141e+03
4.811541e+02,8.144195e+03
4.840468e+02,8.139564e+03
4.869395e+02,8.127487e+03
4.898322e+02,8.139396e+03
4.927249e+02,8.151534e+03
4.956176e+02,8.122724e+03
4.985103e+02,8.155510e+03
5.014030e+02,8.152759e+03
5.042957e+02,8.140659e+03
5.071884e+02,8.137563e+03
5.100811e+02,8.148372e+03
5.129738e+02,8.150460e+03
5.158665e+02,8.183782e+03
5.187592e+02,8.148595e+03
5.216519e+02,8.144853e+03
5.245446e+02,8.149084e+03
5.274373e+02,8.178971e+03
5.303300e+02,8.189986e+03
5.332227e+02,8.169443e+03
5.361154e+02,8.191049e+03
5.390081e+02,8.192401e+03
5.419008e+02,8.235854e+03
5.447935e+02,8.275160e+03
5.476862e+02,8.260194e+03
5.505789e+02,8.238319e+03
5.534716e+02,8.230550e+03
5.563643e+02,8.286842e+03
5.592570e+02,8.319998e+03
5.621497e+02,8.314131e+03
5.650424e+02,8.252772e+03
5.679351e+02,8.196902e+03
5.708278e+02,8.161810e+03
5.737205e+02,8.196772e+03
5.766132e+02,8.185491e+03
5.795059e+02,8.199748e+03
5.823986e+02,8.173936e+03
5.852913e+02,8.161258e+03
5.881840e+02,8.190212e+03
5.910767e+02,8.165933e+03
5.939694e+02,8.150748e+03
5.968621e+02,8.238296e+03
5.997548e+02,8.191770e+03
6.026475e+02,8.224160e+03
6.055402e+02,8.218251e+03
6.084329e+02,8.242987e+03
6.113256e+02,8.262311e+03
6.142183e+02,8.242200e+03
6.171110e+02,8.162172e+03
6.200037e+02,8.147917e+03
6.228964e+02,8.128269e+03
6.257891e+02,8.139732e+03
6.286818e+02,8.151202e+03
6.315745e+02,8.152408e+03
6.344672e+02,8.136542e+03
6.373599e+02,8.136660e+03
6.402526e+02,8.130669e+03
6.431453e+02,8.134023e+03
6.460380e+02,8.113053e+03
6.489307e+02,8.134563e+03
6.518234e+02,8.115615e+03
6.547161e+02,8.093388e+03
6.576088e+02,8.108060e+03
6.605015e+02,8.095194e+03
6.633942e+02,8.084226e+03
6.662869e+02,8.099011e+03
6.691796e+02,8.099214e+03
6.720723e+02,8.106753e+03
6.749650e+02,8.097308e+03
6.778577e+02,8.063522e+03
6.807504e+02,8.027419e+03
6.836431e+02,8.071894e+03
6.865358e+02,8.058108e+03
6.894285e+02,8.034885e+03
6.923212e+02,8.030924e+03
6.952139e+02,8.020813e+03
6.981066e+02,8.058537e+03
7.009993e+02,7.996870e+03
7.038920e+02,8.000954e+03
7.067847e+02,7.979478e+03
7.096774e+02,7.977349e+03
7.125701e+02,7.985063e+03
7.154628e+02,7.995823e+03
7.183555e+02,7.995897e+03
7.212482e+02,7.976675e+03
7.241409e+02,7.982699e+03
7.270336e+02,7.965540e+03
7.299263e+02,7.954530e+03
7.328190e+02,7.948383e+03
7.357117e+02,7.910596e+03
7.386044e+02,7.910596e+03
7.414971e+02,7.907741e+03
7.443898e+02,7.893697e+03
7.472825e+02,7.907344e+03
7.501752e+02,7.898122e+03
7.530679e+02,7.887529e+03
7.559606e+02,7.859772e+03
7.588533e+02,7.901028e+03
7.617460e+02,7.876207e+03
7.646387e+02,7.873648e+03
7.675314e+02,7.843353e+03
7.704241e+02,7.842314e+03
7.733168e+02,7.804232e+03
7.762095e+02,7.837733e+03
7.791022e+02,7.855259e+03
7.819949e+02,7.838767e+03
7.848876e+02,7.812679e+03
7.877803e+02,7.822050e+03
7.906730e+02,7.809461e+03
7.935657e+02,7.807581e+03
7.964584e+02,7.797212e+03
7.993511e+02,7.763854e+03
8.022438e+02,7.729026e+03
8.051365e+02,7.718693e+03
8.080292e+02,7.714933e+03
8.109219e+02,7.705850e+03
8.138146e+02,7.677142e+03
8.167073e+02,7.665242e+03
8.196000e+02,7.688464e+03
8.224927e+02,7.695397e+03
8.253854e+02,7.683205e+03
8.282781e+02,7.664586e+03
8.311708e+02,7.679257e+03
8.340635e+02,7.662761e+03
8.369562e+02,7.655190e+03
8.398489e+02,7.639597e+03
8.427416e+02,7.647734e+03
8.456343e+02,7.588272e+03
8.485270e+02,7.608838e+03
8.514197e+02,7.599106e+03
8.543124e+02,7.554510e+03
8.572051e+02,7.557817e+03
8.600978e+02,7.581135e+03
8.629905e+02,7.520205e+03
8.658832e+02,7.540751e+03
8.687759e+02,7.534227e+03
8.716686e+02,7.521790e+03
8.745613e+02,7.497093e+03
8.774540e+02,7.479418e+03
8.803467e+02,7.493257e+03
8.832394e+02,7.492817e+03
8.861321e+02,7.498641e+03
8.890248e+02,7.477251e+03
8.919175e+02,7.450648e+03
8.948102e+02,7.447268e+03
8.977029e+02,7.416157e+03
9.005956e+02,7.421933e+03
9.034883e+02,7.444428e+03
9.063810e+02,7.398635e+03
9.092737e+02,7.413567e+03
9.121664e+02,7.350451e+03
9.150591e+02,7.363124e+03
9.179518e+02,7.372366e+03
9.208445e+02,7.328597e+03
9.237372e+02,7.311336e+03
9.266299e+02,7.324216e+03
9.295226e+02,7.323274e+03
9.324153e+02,7.302533e+03
9.353080e+02,7.289440e+03
9.382007e+02,7.284932e+03
9.410934e+02,7.276651e+03
9.439861e+02,7.277848e+03
9.468788e+02,7.283147e+03
9.497715e+02,7.263502e+03
9.526642e+02,7.220469e+03
9.555569e+02,7.202186e+03
9.584496e+02,7.196039e+03
9.613423e+02,7.196711e+03
9.642350e+02,7.188552e+03
9.671277e+02,7.170680e+03
9.700204e+02,7.152689e+03
9.729131e+02,7.119953e+03
9.758058e+02,7.139060e+03
9.786985e+02,7.140534e+03
9.815912e+02,7.116388e+03
9.844839e+02,7.077013e+03
9.873766e+02,7.064803e+03
9.902693e+02,7.084002e+03
9.931620e+02,7.099123e+03
9.960547e+02,7.056841e+03
9.989474e+02,7.047370e+03
1.001840e+03,7.027401e+03
1.004733e+03,7.000572e+03
1.007626e+03,7.012396e+03
1.010518e+03,7.030142e+03
1.013411e+03,7.002122e+03
1.016304e+03,6.969244e+03
1.019196e+03,6.977917e+03
1.022089e+03,6.957953e+03
1.024982e+03,6.985870e+03
1.027875e+03,6.923103e+03
1.030767e+03,6.931074e+03
1.033660e+03,6.931978e+03
1.036552e+03,6.922399e+03
1.039445e+03,6.948427e+03
1.042338e+03,6.889013e+03
1.045231e+03,6.907469e+03
1.048123e+03,6.894975e+03
1.051016e+03,6.843675e+03
1.053909e+03,6.884400e+03
1.056802e+03,6.860386e+03
1.059694e+03,6.846471e+03
1.062587e+03,6.838586e+03
1.065479e+03,6.846451e+03
1.068372e+03,6.835591e+03
1.071265e+03,6.834537e+03
1.074158e+03,6.840536e+03
1.077050e+03,6.827962e+03
1.079943e+03,6.800713e+03
1.082836e+03,6.814995e+03
1.085729e+03,6.812591e+03
1.088621e+03,6.820253e+03
1.091514e+03,6.792626e+03
1.094406e+03,6.756334e+03
1.097299e+03,6.725919e+03
1.100192e+03,6.739107e+03
1.103085e+03,6.729956e+03
1.105977e+03,6.689112e+03
1.108870e+03,6.683579e+03
1.111763e+03,6.677118e+03
1.114656e+03,6.686134e+03
1.117548e+03,6.687149e+03
1.120441e+03,6.663909e+03
1.123334e+03,6.665485e+03
1.126226e+03,6.640671e+03
1.129119e+03,6.643925e+03
1.132012e+03,6.630607e+03
1.134904e+03,6.627167e+03
1.137797e+03,6.588753e+03
1.140690e+03,6.578122e+03
1.143583e+03,6.575726e+03
1.146475e+03,6.581048e+03
1.149368e+03,6.571113e+03
1.152261e+03,6.553497e+03
1.155153e+03,6.512867e+03
1.158046e+03,6.512399e+03
1.160939e+03,6.524432e+03
1.163831e+03,6.518854e+03
1.166724e+03,6.511383e+03
1.169617e+03,6.492732e+03
1.172510e+03,6.460999e+03
1.175402e+03,6.471419e+03
1.178295e+03,6.473255e+03
1.181188e+03,6.462987e+03
1.184080e+03,6.434763e+03
1.186973e+03,6.438404e+03
1.189866e+03,6.427931e+03
1.192758e+03,6.436382e+03
1.195651e+03,6.431170e+03
1.198544e+03,6.402323e+03
1.201437e+03,6.358765e+03
1.204329e+03,6.364400e+03
1.207222e+03,6.371833e+03
1.210115e+03,6.380860e+03
1.213007e+03,6.355915e+03
1.215900e+03,6.332842e+03
1.218793e+03,6.335858e+03
1.221685e+03,6.359577e+03
1.224578e+03,6.359733e+03
1.227471e+03,6.372812e+03
1.230364e+03,6.343973e+03
1.233256e+03,6.313046e+03
1.236149e+03,6.287797e+03
1.239042e+03,6.305167e+03
1.241934e+03,6.298423e+03
1.244827e+03,6.276943e+03
1.247720e+03,6.289321e+03
1.250612e+03,6.257644e+03
1.253505e+03,6.241803e+03
1.256398e+03,6.231258e+03
1.259291e+03,6.235950e+03
1.262183e+03,6.232210e+03
1.265076e+03,6.201537e+03
1.267969e+03,6.227421e+03
1.270861e+03,6.200419e+03
1.273754e+03,6.200846e+03
1.276647e+03,6.200908e+03
1.279539e+03,6.172456e+03
1.282432e+03,6.152523e+03
1.285325e+03,6.177192e+03
1.288218e+03,6.151694e+03
1.291110e+03,6.131830e+03
1.294003e+03,6.118716e+03
1.296896e+03,6.092075e+03
1.299788e+03,6.083853e+03
1.302681e+03,6.106659e+03
1.305574e+03,6.109617e+03
1.308466e+03,6.089517e+03
1.311359e+03,6.087853e+03
1.314252e+03,6.081802e+03
1.317145e+03,6.073054e+03
1.320037e+03,6.099948e+03
1.322930e+03,6.058043e+03
1.325823e+03,6.047568e+03
1.328715e+03,6.025430e+03
1.331608e+03,6.033502e+03
1.334501e+03,6.032392e+03
1.337393e+03,6.030438e+03
1.340286e+03,6.015166e+03
1.343179e+03,6.004075e+03
1.346072e+03,5.992062e+03
1.348964e+03,5.993748e+03
1.351857e+03,5.981990e+03
1.354750e+03,5.981083e+03
1.357642e+03,5.974690e+03
1.360535e+03,5.982400e+03
1.363428e+03,5.968357e+03
1.366320e+03,5.969151e+03
1.369213e+03,5.975298e+03
1.372106e+03,5.944345e+03
1.374999e+03,5.923232e+03
1.377891e+03,5.910906e+03
1.380784e+03,5.907313e+03
1.383677e+03,5.897109e+03
1.386569e+03,5.895647e+03
1.389462e+03,5.849867e+03
1.392355e+03,5.853366e+03
1.395247e+03,5.858361e+03
1.398140e+03,5.834592e+03
1.401033e+03,5.842721e+03
1.403926e+03,5.841018e+03
1.406818e+03,5.840460e+03
1.409711e+03,5.829741e+03
1.412604e+03,5.823919e+03
1.415496e+03,5.824457e+03
1.418389e+03,5.798660e+03
1.421282e+03,5.786578e+03
1.424174e+03,5.766649e+03
1.427067e+03,5.797407e+03
1.429960e+03,5.779625e+03
1.432853e+03,5.766903e+03
1.435745e+03,5.763165e+03
1.438638e+03,5.724569e+03
1.441531e+03,5.746831e+03
1.444423e+03,5.761320e+03
1.447316e+03,5.714358e+03
1.450209e+03,5.740157e+03
1.453101e+03,5.735220e+03
1.455994e+03,5.730503e+03
1.458887e+03,5.703786e+03
1.461780e+03,5.711356e+03
1.464672e+03,5.720048e+03
1.467565e+03,5.679591e+03
1.470458e+03,5.666537e+03
1.473350e+03,5.641723e+03
1.476243e+03,5.680581e+03
1.479136e+03,5.659268e+03
1.482028e+03,5.636428e+03
1.484921e+03,5.631845e+03
1.487814e+03,5.656133e+03
1.490707e+03,5.608536e+03
1.493599e+03,5.620630e+03
1.496492e+03,5.597040e+03
1.499385e+03,5.608763e+03
1.502277e+03,5.600913e+03
1.505170e+03,5.594365e+03
1.508063e+03,5.597670e+03
1.510955e+03,5.582058e+03
1.513848e+03,5.558009e+03
1.516741e+03,5.584055e+03
1.519634e+03,5.581323e+03
1.522526e+03,5.568881e+03
1.525419e+03,5.523702e+03
1.528312e+03,5.514464e+03
1.531204e+03,5.531019e+03
1.534097e+03,5.497945e+03
1.536990e+03,5.489390e+03
1.539882e+03,5.479810e+03
1.542775e+03,5.473190e+03
1.545668e+03,5.476886e+03
1.548561e+03,5.488210e+03
1.551453e+03,5.478130e+03
1.554346e+03,5.479331e+03
1.557239e+03,5.475057e+03
1.560131e+03,5.465163e+03
1.563024e+03,5.492029e+03
1.565917e+03,5.520075e+03
1.568809e+03,5.572813e+03
1.571702e+03,5.612167e+03
1.574595e+03,5.549000e+03
1.577488e+03,5.533665e+03
1.580380e+03,5.522156e+03
1.583273e+03,5.507893e+03
1.586166e+03,5.494519e+03
1.589058e+03,5.449296e+03
1.591951e+03,5.406343e+03
1.594844e+03,5.395598e+03
1.597736e+03,5.387639e+03
1.600629e+03,5.383317e+03
1.603522e+03,5.331944e+03
1.606415e+03,5.341102e+03
1.609307e+03,5.306095e+03
1.612200e+03,5.311882e+03
1.615093e+03,5.313390e+03
1.617985e+03,5.307423e+03
1.620878e+03,5.286335e+03
1.623771e+03,5.242010e+03
1.626663e+03,5.288276e+03
1.629556e+03,5.267599e+03
1.632449e+03,5.269648e+03
1.635342e+03,5.261364e+03
1.638234e+03,5.211203e+03
1.641127e+03,5.207447e+03
1.644020e+03,5.170125e+03
1.646912e+03,5.212537e+03
1.649805e+03,5.179586e+03
1.652698e+03,5.164643e+03
1.655590e+03,5.148959e+03
1.658483e+03,5.145385e+03
1.661376e+03,5.140329e+03
1.664269e+03,5.136297e+03
1.667161e+03,5.134417e+03
1.670054e+03,5.096558e+03
1.672947e+03,5.105970e+03
1.675839e+03,5.089673e+03
1.678732e+03,5.111519e+03
1.681625e+03,5.055884e+03
1.684517e+03,5.055890e+03
1.687410e+03,5.066504e+03
1.690303e+03,5.039178e+03
1.693196e+03,5.056659e+03
1.696088e+03,5.063476e+03
1.698981e+03,5.035093e+03
1.701874e+03,5.002769e+03
1.704766e+03,5.020953e+03
1.707659e+03,4.983829e+03
1.710552e+03,4.992362e+03
1.713444e+03,4.974569e+03
1.716337e+03,4.948382e+03
1.719230e+03,4.969070e+03
1.722123e+03,4.954977e+03
1.725015e+03,4.937507e+03
1.727908e+03,4.934563e+03
1.730801e+03,4.905402e+03
1.733693e+03,4.897773e+03
1.736586e+03,4.899606e+03
1.739479e+03,4.911962e+03
1.742371e+03,4.887951e+03
1.745264e+03,4.901171e+03
1.748157e+03,4.836299e+03
1.751050e+03,4.821988e+03
1.753942e+03,4.845827e+03
1.756835e+03,4.852938e+03
1.759728e+03,4.811232e+03
1.762620e+03,4.797966e+03
1.765513e+03,4.810767e+03
1.768406e+03,4.783080e+03
1.771298e+03,4.775298e+03
1.774191e+03,4.767581e+03
1.777084e+03,4.745892e+03
1.779977e+03,4.767761e+03
1.782869e+03,4.757338e+03
1.785762e+03,4.750749e+03
1.788655e+03,4.714321e+03
1.791547e+03,4.697031e+03
1.794440e+03,4.705806e+03
1.797333e+03,4.697876e+03
1.800225e+03,4.691269e+03
1.803118e+03,4.700671e+03
1.806011e+03,4.670986e+03
1.808904e+03,4.667818e+03
1.811796e+03,4.650517e+03
1.814689e+03,4.651218e+03
1.817582e+03,4.632096e+03
1.820474e+03,4.618921e+03
1.823367e+03,4.586666e+03
1.826260e+03,4.606642e+03
1.829152e+03,4.602179e+03
1.832045e+03,4.604865e+03
1.834938e+03,4.596051e+03
1.837831e+03,4.564795e+03
1.840723e+03,4.557752e+03
1.843616e+03,4.536625e+03
1.846509e+03,4.555662e+03
1.849401e+03,4.547322e+03
1.852294e+03,4.503282e+03
1.855187e+03,4.501126e+03
1.858079e+03,4.511834e+03
1.860972e+03,4.493034e+03
1.863865e+03,4.511979e+03
1.866758e+03,4.458328e+03
1.869650e+03,4.468850e+03
1.872543e+03,4.454149e+03
1.875436e+03,4.442628e+03
1.878328e+03,4.430262e+03
1.881221e+03,4.440164e+03
1.884114e+03,4.394703e+03
1.887006e+03,4.399529e+03
1.889899e+03,4.375647e+03
1.892792e+03,4.399614e+03
1.895685e+03,4.362383e+03
1.898577e+03,4.372479e+03
1.901470e+03,4.359888e+03
1.904363e+03,4.325388e+03
1.907255e+03,4.330839e+03
1.910148e+03,4.342396e+03
1.913041e+03,4.333945e+03
1.915933e+03,4.308050e+03
1.918826e+03,4.299811e+03
1.921719e+03,4.289758e+03
1.924612e+03,4.262903e+03
1.927504e+03,4.253630e+03
1.930397e+03,4.215983e+03
1.933290e+03,4.224368e+03
1.936182e+03,4.259830e+03
1.939075e+03,4.209525e+03
1.941968e+03,4.219702e+03
1.944860e+03,4.207127e+03
1.947753e+03,4.199080e+03
1.950646e+03,4.190824e+03
1.953539e+03,4.196942e+03
1.956431e+03,4.165782e+03
1.959324e+03,4.143697e+03
1.962217e+03,4.149679e+03
1.965109e+03,4.126204e+03
1.968002e+03,4.154081e+03
1.970895e+03,4.145013e+03
1.973787e+03,4.117232e+03
1.976680e+03,4.069399e+03
1.979573e+03,4.091571e+03
1.982466e+03,4.090267e+03
1.985358e+03,4.069649e+03
1.988251e+03,4.065296e+03
1.991144e+03,4.030266e+03
1.994036e+03,4.035980e+03
1.996929e+03,4.006537e+03
1.999822e+03,4.035954e+03
2.002714e+03,4.026598e+03
2.005607e+03,4.028614e+03
2.008500e+03,3.990748e+03
2.011393e+03,3.974536e+03
2.014285e+03,3.954985e+03
2.017178e+03,3.982960e+03
2.020071e+03,3.930657e+03
2.022963e+03,3.942921e+03
2.025856e+03,3.931344e+03
2.028749e+03,3.924899e+03
2.031641e+03,3.936106e+03
2.034534e+03,3.923702e+03
2.037427e+03,3.890666e+03
2.040320e+03,3.878697e+03
2.043212e+03,3.867042e+03
2.046105e+03,3.858676e+03
2.048998e+03,3.815490e+03
2.051890e+03,3.836286e+03
2.054783e+03,3.846808e+03
2.057676e+03,3.813522e+03
2.060568e+03,3.799118e+03
2.063461e+03,3.805057e+03
2.066354e+03,3.833005e+03
2.069247e+03,3.756675e+03
2.072139e+03,3.765209e+03
2.075032e+03,3.778048e+03
2.077925e+03,3.782529e+03
2.080817e+03,3.752484e+03
2.083710e+03,3.730727e+03
2.086603e+03,3.697770e+03
2.089496e+03,3.717251e+03
2.092388e+03,3.704312e+03
2.095281e+03,3.702845e+03
2.098174e+03,3.698270e+03
2.101066e+03,3.702532e+03
2.103959e+03,3.659357e+03
2.106852e+03,3.644198e+03
2.109744e+03,3.665773e+03
2.112637e+03,3.643034e+03
2.115530e+03,3.618441e+03
2.118422e+03,3.625654e+03
2.121315e+03,3.621786e+03
2.124208e+03,3.630828e+03
2.127101e+03,3.599470e+03
2.129993e+03,3.580410e+03
2.132886e+03,3.567741e+03
2.135779e+03,3.572508e+03
2.138671e+03,3.565258e+03
2.141564e+03,3.568527e+03
2.144457e+03,3.529852e+03
2.147350e+03,3.494220e+03
2.150242e+03,3.497192e+03
2.153135e+03,3.507001e+03
2.156028e+03,3.502811e+03
2.158920e+03,3.484980e+03
2.161813e+03,3.471020e+03
2.164706e+03,3.477048e+03
2.167598e+03,3.453504e+03
2.170491e+03,3.461476e+03
2.173384e+03,3.463152e+03
2.176277e+03,3.412269e+03
2.179169e+03,3.432107e+03
2.182062e+03,3.413587e+03
2.184955e+03,3.429304e+03
2.187847e+03,3.406921e+03
2.190740e+03,3.376863e+03
2.193633e+03,3.374862e+03
2.196525e+03,3.350565e+03
2.199418e+03,3.356260e+03
2.202311e+03,3.364993e+03
2.205204e+03,3.367032e+03
2.208096e+03,3.320135e+03
2.210989e+03,3.319398e+03
2.213882e+03,3.317957e+03
2.216774e+03,3.342216e+03
2.219667e+03,3.312209e+03
2.222560e+03,3.276133e+03
2.225452e+03,3.280214e+03
2.228345e+03,3.248961e+03
2.231238e+03,3.290335e+03
2.234131e+03,3.270656e+03
2.237023e+03,3.252780e+03
2.239916e+03,3.240963e+03
2.242809e+03,3.223768e+03
2.245701e+03,3.219546e+03
2.248594e+03,3.214263e+03
2.251487e+03,3.208862e+03
2.254379e+03,3.222235e+03
2.257272e+03,3.180152e+03
2.260165e+03,3.163518e+03
2.263058e+03,3.167371e+03
2.265950e+03,3.183390e+03
2.268843e+03,3.165859e+03
2.271736e+03,3.127177e+03
2.274628e+03,3.121180e+03
2.277521e+03,3.141116e+03
2.280414e+03,3.134237e+03
2.283306e+03,3.132751e+03
2.286199e+03,3.097593e+03
2.289092e+03,3.075914e+03
2.291985e+03,3.066568e+03
2.294877e+03,3.078820e+03
2.297770e+03,3.065654e+03
2.300663e+03,3.072760e+03
2.303555e+03,3.056871e+03
2.306448e+03,3.028873e+03
2.309341e+03,3.038785e+03
2.312233e+03,3.038895e+03
2.315126e+03,3.015891e+03
2.318019e+03,3.055224e+03
2.320912e+03,2.998849e+03
2.323804e+03,3.008346e+03
2.326697e+03,3.016219e+03
2.329590e+03,3.020750e+03
2.332482e+03,2.972846e+03
2.335375e+03,2.961277e+03
2.338268e+03,2.969459e+03
2.341160e+03,2.964315e+03
2.344053e+03,2.964830e+03
2.346946e+03,2.942917e+03
2.349839e+03,2.925365e+03
2.352731e+03,2.921532e+03
2.355624e+03,2.923819e+03
2.358517e+03,2.950438e+03
2.361409e+03,2.930901e+03
2.364302e+03,2.904733e+03
2.367195e+03,2.895983e+03
2.370087e+03,2.894868e+03
2.372980e+03,2.894671e+03
2.375873e+03,2.891516e+03
2.378766e+03,2.857957e+03
2.381658e+03,2.869231e+03
2.384551e+03,2.832491e+03
2.387444e+03,2.874206e+03
2.390336e+03,2.851353e+03
2.393229e+03,2.816694e+03
2.396122e+03,2.815177e+03
2.399014e+03,2.809790e+03
2.401907e+03,2.839941e+03
2.404800e+03,2.832640e+03
2.407693e+03,2.804846e+03
2.410585e+03,2.784260e+03
2.413478e+03,2.785322e+03
2.416371e+03,2.783891e+03
2.419263e+03,2.741304e+03
2.422156e+03,2.771965e+03
2.425049e+03,2.721935e+03
2.427941e+03,2.754442e+03
2.430834e+03,2.729953e+03
2.433727e+03,2.708976e+03
2.436620e+03,2.726172e+03
2.439512e+03,2.716478e+03
2.442405e+03,2.693067e+03
2.445298e+03,2.709135e+03
2.448190e+03,2.709203e+03
2.451083e+03,2.685974e+03
2.453976e+03,2.698579e+03
2.456868e+03,2.691332e+03
2.459761e+03,2.674760e+03
2.462654e+03,2.631157e+03
2.465547e+03,2.668114e+03
2.468439e+03,2.645573e+03
2.471332e+03,2.640450e+03
2.474225e+03,2.635459e+03
2.477117e+03,2.634453e+03
2.480010e+03,2.629313e+03
2.482903e+03,2.611188e+03
2.485795e+03,2.604938e+03
2.488688e+03,2.619082e+03
2.491581e+03,2.606739e+03
2.494474e+03,2.576076e+03
2.497366e+03,2.571553e+03
2.500259e+03,2.559664e+03
2.503152e+03,2.563667e+03
2.506044e+03,2.564406e+03
2.508937e+03,2.546229e+03
2.511830e+03,2.555516e+03
2.514722e+03,2.542624e+03
2.517615e+03,2.557976e+03
2.520508e+03,2.562333e+03
2.523401e+03,2.524371e+03
2.526293e+03,2.523507e+03
2.529186e+03,2.508048e+03
2.532079e+03,2.524179e+03
2.534971e+03,2.511738e+03
2.537864e+03,2.516325e+03
2.540757e+03,2.483174e+03
2.543649e+03,2.498825e+03
2.546542e+03,2.495076e+03
2.549435e+03,2.507269e+03
2.552328e+03,2.483712e+03
2.555220e+03,2.471549e+03
2.558113e+03,2.457918e+03
2.561006e+03,2.463114e+03
2.563898e+03,2.473224e+03
2.566791e+03,2.440064e+03
2.569684e+03,2.441194e+03
2.572576e+03,2.430603e+03
2.575469e+03,2.444014e+03
2.578362e+03,2.446238e+03
2.581255e+03,2.434402e+03
2.584147e+03,2.396964e+03
2.587040e+03,2.409623e+03
2.589933e+03,2.415293e+03
2.592825e+03,2.377520e+03
2.595718e+03,2.421794e+03
2.598611e+03,2.397398e+03
2.601503e+03,2.383474e+03
2.604396e+03,2.385339e+03
2.607289e+03,2.365083e+03
2.610182e+03,2.381096e+03
2.613074e+03,2.359441e+03
2.615967e+03,2.348627e+03
2.618860e+03,2.352795e+03
2.621752e+03,2.316163e+03
2.624645e+03,2.346927e+03
2.627538e+03,2.334883e+03
2.630430e+03,2.338262e+03
2.633323e+03,2.323907e+03
2.636216e+03,2.329930e+03
2.639109e+03,2.296608e+03
2.642001e+03,2.310603e+03
2.644894e+03,2.312893e+03
2.647787e+03,2.322723e+03
2.650679e+03,2.287518e+03
2.653572e+03,2.302305e+03
2.656465e+03,2.274263e+03
2.659357e+03,2.284519e+03
2.662250e+03,2.261151e+03
2.665143e+03,2.273982e+03
2.668036e+03,2.245068e+03
2.670928e+03,2.236199e+03
2.673821e+03,2.258780e+03
2.676714e+03,2.260485e+03
2.679606e+03,2.248417e+03
2.682499e+03,2.234453e+03
2.685392e+03,2.232256e+03
2.688284e+03,2.220884e+03
2.691177e+03,2.228557e+03
2.694070e+03,2.243147e+03
2.696963e+03,2.206269e+03
2.699855e+03,2.241759e+03
2.702748e+03,2.213467e+03
2.705641e+03,2.199413e+03
2.708533e+03,2.193483e+03
2.711426e+03,2.160241e+03
2.714319e+03,2.172290e+03
2.717211e+03,2.164744e+03
2.720104e+03,2.182286e+03
2.722997e+03,2.173578e+03
2.725890e+03,2.128397e+03
2.728782e+03,2.166426e+03
2.731675e+03,2.167315e+03
2.734568e+03,2.153891e+03
2.737460e+03,2.131622e+03
2.740353e+03,2.133977e+03
2.743246e+03,2.139954e+03
2.746138e+03,2.112809e+03
2.749031e+03,2.145302e+03
2.751924e+03,2.125552e+03
2.754817e+03,2.113080e+03
2.757709e+03,2.105167e+03
2.760602e+03,2.130665e+03
2.763495e+03,2.100597e+03
2.766387e+03,2.068897e+03
2.769280e+03,2.071443e+03
2.772173e+03,2.091690e+03
2.775065e+03,2.074275e+03
2.777958e+03,2.073851e+03
2.780851e+03,2.110084e+03
2.783744e+03,2.061198e+03
2.786636e+03,2.068368e+03
2.789529e+03,2.088251e+03
2.792422e+03,2.077598e+03
2.795314e+03,2.053808e+03
2.798207e+03,2.090223e+03
2.801100e+03,2.045653e+03
2.803992e+03,2.016647e+03
2.806885e+03,2.033311e+03
2.809778e+03,2.025419e+03
2.812671e+03,2.033883e+03
2.815563e+03,2.009835e+03
2.818456e+03,2.023018e+03
2.821349e+03,2.034269e+03
2.824241e+03,2.018236e+03
2.827134e+03,2.039162e+03
2.830027e+03,1.962728e+03
2.832919e+03,2.021538e+03
2.835812e+03,2.002674e+03
2.838705e+03,1.994773e+03
2.841598e+03,1.988920e+03
2.844490e+03,2.011228e+03
2.847383e+03,1.974689e+03
2.850276e+03,2.003498e+03
2.853168e+03,1.977429e+03
2.856061e+03,1.988243e+03
2.858954e+03,1.950721e+03
2.861846e+03,1.966574e+03
2.864739e+03,1.974320e+03
2.867632e+03,1.953626e+03
2.870525e+03,1.959345e+03
2.873417e+03,1.974225e+03
2.876310e+03,1.986568e+03
2.879203e+03,1.957020e+03
2.882095e+03,1.952008e+03
2.884988e+03,1.968407e+03
2.887881e+03,1.945384e+03
2.890773e+03,1.955682e+03
2.893666e+03,1.942774e+03
2.896559e+03,1.933166e+03
2.899452e+03,1.945497e+03
2.902344e+03,1.931525e+03
2.905237e+03,1.937557e+03
2.908130e+03,1.907069e+03
2.911022e+03,1.928410e+03
2.913915e+03,1.924131e+03
2.916808e+03,1.905701e+03
2.919700e+03,1.931412e+03
2.922593e+03,1.870041e+03
2.925486e+03,1.942787e+03
2.928379e+03,1.875592e+03
2.931271e+03,1.886839e+03
2.934164e+03,1.903914e+03
2.937057e+03,1.882370e+03
2.939949e+03,1.885472e+03
2.942842e+03,1.868567e+03
2.945735e+03,1.868303e+03
2.948627e+03,1.842763e+03
2.951520e+03,1.878069e+03
2.954413e+03,1.829035e+03
2.957306e+03,1.885844e+03
2.960198e+03,1.840721e+03
2.963091e+03,1.829401e+03
2.965984e+03,1.822233e+03
2.968876e+03,1.832873e+03
2.971769e+03,1.834504e+03
2.974662e+03,1.800856e+03
2.977554e+03,1.830562e+03
2.980447e+03,1.825358e+03
2.983340e+03,1.813093e+03
2.986233e+03,1.788083e+03
2.989125e+03,1.832365e+03
2.992018e+03,1.774550e+03
2.994911e+03,1.765218e+03
2.997803e+03,1.787732e+03
3.000696e+03,1.790720e+03
3.003589e+03,1.769563e+03
3.006481e+03,1.786583e+03
3.009374e+03,1.779623e+03
3.012267e+03,1.763152e+03
3.015160e+03,1.752163e+03
3.018052e+03,1.761432e+03
3.020945e+03,1.760066e+03
3.023838e+03,1.726509e+03
3.026730e+03,1.753263e+03
3.029623e+03,1.759605e+03
3.032516e+03,1.761300e+03
3.035408e+03,1.721146e+03
3.038301e+03,1.735657e+03
3.041194e+03,1.766914e+03
3.044087e+03,1.716034e+03
3.046979e+03,1.750240e+03
3.049872e+03,1.716225e+03
3.052765e+03,1.769236e+03
3.055657e+03,1.723363e+03
3.058550e+03,1.683369e+03
3.061443e+03,1.717997e+03
3.064335e+03,1.733544e+03
3.067228e+03,1.694246e+03
3.070121e+03,1.727611e+03
3.073014e+03,1.737869e+03
3.075906e+03,1.710436e+03
3.078799e+03,1.723549e+03
3.081692e+03,1.716694e+03
3.084584e+03,1.725388e+03
3.087477e+03,1.685601e+03
3.090370e+03,1.703358e+03
3.093262e+03,1.660942e+03
3.096155e+03,1.716444e+03
3.099048e+03,1.645974e+03
3.101941e+03,1.736615e+03
3.104833e+03,1.712195e+03
3.107726e+03,1.681087e+03
3.110619e+03,1.681112e+03
3.113511e+03,1.693930e+03
3.116404e+03,1.707428e+03
3.119297e+03,1.696366e+03
3.122189e+03,1.665743e+03
3.125082e+03,1.698516e+03
3.127975e+03,1.682908e+03
3.130868e+03,1.649514e+03
3.133760e+03,1.676300e+03
3.136653e+03,1.698713e+03
3.139546e+03,1.653012e+03
3.142438e+03,1.724696e+03
3.145331e+03,1.640847e+03
3.148224e+03,1.693758e+03
3.151116e+03,1.642721e+03
3.154009e+03,1.714258e+03
3.156902e+03,1.659227e+03
3.159795e+03,1.650916e+03
3.162687e+03,1.691363e+03
3.165580e+03,1.688725e+03
3.168473e+03,1.676897e+03
3.171365e+03,1.701762e+03
3.174258e+03,1.648005e+03
3.177151e+03,1.688797e+03
3.180043e+03,1.701796e+03
3.182936e+03,1.684380e+03
3.185829e+03,1.654744e+03
3.188722e+03,1.661709e+03
3.191614e+03,1.728047e+03
3.194507e+03,1.672772e+03
3.197400e+03,1.693252e+03
3.200292e+03,1.702271e+03
3.203185e+03,0.000000e+00
3.206078e+03,0.000000e+00
3.208970e+03,0.000000e+00
3.211863e+03,0.000000e+00
3.214756e+03,0.000000e+00
3.217649e+03,0.000000e+00
3.220541e+03,0.000000e+00
3.223434e+03,0.000000e+00
3.226327e+03,0.000000e+00
3.229219e+03,0.000000e+00
3.232112e+03,0.000000e+00
3.235005e+03,0.000000e+00
3.237897e+03,0.000000e+00
3.240790e+03,0.000000e+00
3.243683e+03,0.000000e+00
3.246576e+03,0.000000e+00
3.249468e+03,0.000000e+00
3.252361e+03,0.000000e+00
3.255254e+03,0.000000e+00
3.258146e+03,0.000000e+00
3.261039e+03,0.000000e+00
3.263932e+03,0.000000e+00
3.266824e+03,0.000000e+00
3.269717e+03,0.000000e+00
3.272610e+03,0.000000e+00
3.275503e+03,0.000000e+00
3.278395e+03,0.000000e+00
3.281288e+03,0.000000e+00
3.284181e+03,0.000000e+00
3.287073e+03,0.000000e+00
3.289966e+03,0.000000e+00
3.292859e+03,0.000000e+00
3.295751e+03,0.000000e+00
3.298644e+03,0.000000e+00
3.301537e+03,0.000000e+00
3.304430e+03,0.000000e+00
3.307322e+03,0.000000e+00
3.310215e+03,0.000000e+00
3.313108e+03,0.000000e+00
3.316000e+03,0.000000e+00
3.318893e+03,0.000000e+00
3.321786e+03,0.000000e+00
3.324678e+03,0.000000e+00
3.327571e+03,0.000000e+00
3.330464e+03,0.000000e+00
3.333357e+03,0.000000e+00
3.336249e+03,0.000000e+00
3.339142e+03,0.000000e+00
3.342035e+03,0.000000e+00
3.344927e+03,0.000000e+00
3.347820e+03,0.000000e+00
3.350713e+03,0.000000e+00
3.353605e+03,0.000000e+00
3.356498e+03,0.000000e+00
3.359391e+03,0.000000e+00
3.362284e+03,0.000000e+00
3.365176e+03,0.000000e+00
3.368069e+03,0.000000e+00
3.370962e+03,0.000000e+00
3.373854e+03,0.000000e+00
3.376747e+03,0.000000e+00
3.379640e+03,0.000000e+00
3.382532e+03,0.000000e+00
3.385425e+03,0.000000e+00
3.388318e+03,0.000000e+00
3.391211e+03,0.000000e+00
3.394103e+03,0.000000e+00
3.396996e+03,0.000000e+00
3.399889e+03,0.000000e+00
3.402781e+03,0.000000e+00
3.405674e+03,0.000000e+00
3.408567e+03,0.000000e+00
3.411459e+03,0.000000e+00
3.414352e+03,0.000000e+00
3.417245e+03,0.000000e+00
3.420138e+03,0.000000e+00
3.423030e+03,0.000000e+00
3.425923e+03,0.000000e+00
3.428816e+03,0.000000e+00
3.431708e+03,0.000000e+00
3.434601e+03,0.000000e+00
3.437494e+03,0.000000e+00
3.440386e+03,0.000000e+00
3.443279e+03,0.000000e+00
3.446172e+03,0.000000e+00
3.449065e+03,0.000000e+00
3.451957e+03,0.000000e+00
3.454850e+03,0.000000e+00
3.457743e+03,0.000000e+00
3.460635e+03,0.000000e+00
3.463528e+03,0.000000e+00
3.466421e+03,0.000000e+00
3.469313e+03,0.000000e+00
3.472206e+03,0.000000e+00
3.475099e+03,0.000000e+00
3.477992e+03,0.000000e+00
3.480884e+03,0.000000e+00
3.483777e+03,0.000000e+00
3.486670e+03,0.000000e+00
3.489563e+03,0.000000e+00
3.492455e+03,0.000000e+00
3.495348e+03,0.000000e+00
3.498240e+03,0.000000e+00
3.500169e+03,0.000000e+00