File: RAMAN_data/20012023_r3/clear frag1.CSV
9.931763e+01,0.000000e+00
1.022103e+02,0.000000e+00
1.051030e+02,0.000000e+00
1.079957e+02,0.000000e+00
1.108884e+02,0.000000e+00
1.137811e+02,0.000000e+00
1.166738e+02,0.000000e+00
1.195665e+02,0.000000e+00
1.224592e+02,0.000000e+00
1.253519e+02,0.000000e+00
1.282446e+02,0.000000e+00
1.311373e+02,0.000000e+00
1.340300e+02,0.000000e+00
1.369227e+02,0.000000e+00
1.398154e+02,0.000000e+00
1.427081e+02,0.000000e+00
1.456008e+02,0.000000e+00
1.484935e+02,0.000000e+00
1.513862e+02,0.000000e+00
1.542789e+02,0.000000e+00
1.571716e+02,0.000000e+00
1.600643e+02,0.000000e+00
1.629570e+02,0.000000e+00
1.658497e+02,0.000000e+00
1.687424e+02,0.000000e+00
1.716351e+02,0.000000e+00
1.745278e+02,0.000000e+00
1.774205e+02,0.000000e+00
1.803132e+02,0.000000e+00
1.832059e+02,0.000000e+00
1.860986e+02,0.000000e+00
1.889913e+02,0.000000e+00
1.918840e+02,0.000000e+00
1.947767e+02,0.000000e+00
1.976694e+02,0.000000e+00
2.005621e+02,2.845351e+03
2.034548e+02,2.843373e+03
2.063475e+02,2.855833e+03
2.092402e+02,2.869856e+03
2.121329e+02,2.864842e+03
2.150256e+02,2.873264e+03
2.179183e+02,2.865924e+03
2.208110e+02,2.873112e+03
2.237037e+02,2.883229e+03
2.265964e+02,2.863018e+03
2.294892e+02,2.864124e+03
2.323819e+02,2.866832e+03
2.352746e+02,2.869291e+03
2.381673e+02,2.872620e+03
2.410600e+02,2.879591e+03
2.439527e+02,2.871646e+03
2.468454e+02,2.889011e+03
2.497381e+02,2.893815e+03
2.526308e+02,2.887241e+03
2.555235e+02,2.887508e+03
2.584161e+02,2.884042e+03
2.613088e+02,2.895689e+03
2.642015e+02,2.901384e+03
2.670942e+02,2.909059e+03
2.699869e+02,2.895944e+03
2.728796e+02,2.889286e+03
2.757723e+02,2.892864e+03
2.786650e+02,2.903878e+03
2.815577e+02,2.902081e+03
2.844504e+02,2.902676e+03
2.873431e+02,2.914121e+03
2.902358e+02,2.910061e+03
2.931285e+02,2.909733e+03
2.960212e+02,2.904071e+03
2.989139e+02,2.906641e+03
3.018066e+02,2.904497e+03
3.046993e+02,2.906105e+03
3.075920e+02,2.891173e+03
3.104847e+02,2.898073e+03
3.133774e+02,2.899403e+03
3.162701e+02,2.902680e+03
3.191628e+02,2.900137e+03
3.220555e+02,2.897245e+03
3.249482e+02,2.894569e+03
3.278409e+02,2.913680e+03
3.307336e+02,2.916112e+03
3.336263e+02,2.914653e+03
3.365190e+02,2.895122e+03
3.394117e+02,2.918044e+03
3.423044e+02,2.920375e+03
3.451971e+02,2.907054e+03
3.480898e+02,2.910247e+03
3.509825e+02,2.889230e+03
3.538752e+02,2.895395e+03
3.567680e+02,2.897540e+03
3.596607e+02,2.901254e+03
3.625534e+02,2.920978e+03
3.654461e+02,2.899722e+03
3.683388e+02,2.895673e+03
3.712315e+02,2.923477e+03
3.741242e+02,2.919763e+03
3.770169e+02,2.915114e+03
3.799096e+02,2.922731e+03
3.828023e+02,2.898256e+03
3.856950e+02,2.897548e+03
3.885877e+02,2.899588e+03
3.914804e+02,2.889698e+03
3.943731e+02,2.901275e+03
3.972658e+02,2.885940e+03
4.001585e+02,2.869746e+03
4.030512e+02,2.886526e+03
4.059439e+02,2.887691e+03
4.088366e+02,2.879145e+03
4.117293e+02,2.884910e+03
4.146220e+02,2.877164e+03
4.175147e+02,2.867369e+03
4.204074e+02,2.876918e+03
4.233001e+02,2.857806e+03
4.261928e+02,2.862504e+03
4.290855e+02,2.867814e+03
4.319782e+02,2.878796e+03
4.348709e+02,2.890188e+03
4.377636e+02,2.878407e+03
4.406563e+02,2.869621e+03
4.435490e+02,2.867612e+03
4.464417e+02,2.864459e+03
4.493344e+02,2.859777e+03
4.522271e+02,2.874547e+03
4.551198e+02,2.873602e+03
4.580125e+02,2.855154e+03
4.609052e+02,2.844905e+03
4.637979e+02,2.856294e+03
4.666906e+02,2.830413e+03
4.695833e+02,2.832629e+03
4.724760e+02,2.832152e+03
4.753687e+02,2.827381e+03
4.782614e+02,2.832932e+03
4.811541e+02,2.828613e+03
4.840468e+02,2.821158e+03
4.869395e+02,2.818506e+03
4.898322e+02,2.815849e+03
4.927249e+02,2.819569e+03
4.956176e+02,2.823375e+03
4.985103e+02,2.815611e+03
5.014030e+02,2.817941e+03
5.042957e+02,2.820102e+03
5.071884e+02,2.811264e+03
5.100811e+02,2.801512e+03
5.129738e+02,2.802114e+03
5.158665e+02,2.794280e+03
5.187592e+02,2.814779e+03
5.216519e+02,2.791233e+03
5.245446e+02,2.787762e+03
5.274373e+02,2.793167e+03
5.303300e+02,2.793214e+03
5.332227e+02,2.798186e+03
5.361154e+02,2.785546e+03
5.390081e+02,2.768703e+03
5.419008e+02,2.775728e+03
5.447935e+02,2.779724e+03
5.476862e+02,2.780156e+03
5.505789e+02,2.773756e+03
5.534716e+02,2.747322e+03
5.563643e+02,2.760364e+03
5.592570e+02,2.751414e+03
5.621497e+02,2.773964e+03
5.650424e+02,2.766668e+03
5.679351e+02,2.736901e+03
5.708278e+02,2.730593e+03
5.737205e+02,2.729513e+03
5.766132e+02,2.738248e+03
5.795059e+02,2.727962e+03
5.823986e+02,2.727063e+03
5.852913e+02,2.726014e+03
5.881840e+02,2.711082e+03
5.910767e+02,2.712500e+03
5.939694e+02,2.726296e+03
5.968621e+02,2.720751e+03
5.997548e+02,2.718985e+03
6.026475e+02,2.708516e+03
6.055402e+02,2.719108e+03
6.084329e+02,2.703700e+03
6.113256e+02,2.688341e+03
6.142183e+02,2.689150e+03
6.171110e+02,2.671754e+03
6.200037e+02,2.675731e+03
6.228964e+02,2.676459e+03
6.257891e+02,2.680678e+03
6.286818e+02,2.668137e+03
6.315745e+02,2.670055e+03
6.344672e+02,2.672103e+03
6.373599e+02,2.668672e+03
6.402526e+02,2.660156e+03
6.431453e+02,2.652007e+03
6.460380e+02,2.652494e+03
6.489307e+02,2.643858e+03
6.518234e+02,2.647403e+03
6.547161e+02,2.636981e+03
6.576088e+02,2.645508e+03
6.605015e+02,2.638717e+03
6.633942e+02,2.623858e+03
6.662869e+02,2.621043e+03
6.691796e+02,2.620493e+03
6.720723e+02,2.621980e+03
6.749650e+02,2.617791e+03
6.778577e+02,2.608859e+03
6.807504e+02,2.611048e+03
6.836431e+02,2.608374e+03
6.865358e+02,2.592863e+03
6.894285e+02,2.593978e+03
6.923212e+02,2.596895e+03
6.952139e+02,2.599512e+03
6.981066e+02,2.602298e+03
7.009993e+02,2.581444e+03
7.038920e+02,2.587756e+03
7.067847e+02,2.565527e+03
7.096774e+02,2.562819e+03
7.125701e+02,2.565376e+03
7.154628e+02,2.570599e+03
7.183555e+02,2.565955e+03
7.212482e+02,2.554577e+03
7.241409e+02,2.551306e+03
7.270336e+02,2.549724e+03
7.299263e+02,2.530401e+03
7.328190e+02,2.539432e+03
7.357117e+02,2.535574e+03
7.386044e+02,2.520432e+03
7.414971e+02,2.518920e+03
7.443898e+02,2.524718e+03
7.472825e+02,2.515860e+03
7.501752e+02,2.522489e+03
7.530679e+02,2.508743e+03
7.559606e+02,2.510785e+03
7.588533e+02,2.504925e+03
7.617460e+02,2.498926e+03
7.646387e+02,2.490369e+03
7.675314e+02,2.493272e+03
7.704241e+02,2.479812e+03
7.733168e+02,2.485754e+03
7.762095e+02,2.481612e+03
7.791022e+02,2.486320e+03
7.819949e+02,2.458095e+03
7.848876e+02,2.474848e+03
7.877803e+02,2.474976e+03
7.906730e+02,2.474861e+03
7.935657e+02,2.457838e+03
7.964584e+02,2.453873e+03
7.993511e+02,2.470935e+03
8.022438e+02,2.454858e+03
8.051365e+02,2.465083e+03
8.080292e+02,2.459664e+03
8.109219e+02,2.437910e+03
8.138146e+02,2.438037e+03
8.167073e+02,2.430185e+03
8.196000e+02,2.423623e+03
8.224927e+02,2.423848e+03
8.253854e+02,2.431306e+03
8.282781e+02,2.410122e+03
8.311708e+02,2.406554e+03
8.340635e+02,2.416362e+03
8.369562e+02,2.404207e+03
8.398489e+02,2.406396e+03
8.427416e+02,2.411171e+03
8.456343e+02,2.392297e+03
8.485270e+02,2.378050e+03
8.514197e+02,2.383475e+03
8.543124e+02,2.370392e+03
8.572051e+02,2.370685e+03
8.600978e+02,2.386710e+03
8.629905e+02,2.379930e+03
8.658832e+02,2.374013e+03
8.687759e+02,2.366314e+03
8.716686e+02,2.366701e+03
8.745613e+02,2.346976e+03
8.774540e+02,2.360595e+03
8.803467e+02,2.363632e+03
8.832394e+02,2.359202e+03
8.861321e+02,2.350323e+03
8.890248e+02,2.334659e+03
8.919175e+02,2.324345e+03
8.948102e+02,2.344473e+03
8.977029e+02,2.338188e+03
9.005956e+02,2.326677e+03
9.034883e+02,2.330599e+03
9.063810e+02,2.309530e+03
9.092737e+02,2.312973e+03
9.121664e+02,2.309144e+03
9.150591e+02,2.308456e+03
9.179518e+02,2.290158e+03
9.208445e+02,2.277138e+03
9.237372e+02,2.283968e+03
9.266299e+02,2.283722e+03
9.295226e+02,2.281156e+03
9.324153e+02,2.263274e+03
9.353080e+02,2.273017e+03
9.382007e+02,2.258784e+03
9.410934e+02,2.264115e+03
9.439861e+02,2.272699e+03
9.468788e+02,2.267580e+03
9.497715e+02,2.257680e+03
9.526642e+02,2.243432e+03
9.555569e+02,2.239254e+03
9.584496e+02,2.244037e+03
9.613423e+02,2.248575e+03
9.642350e+02,2.238110e+03
9.671277e+02,2.238075e+03
9.700204e+02,2.245809e+03
9.729131e+02,2.220121e+03
9.758058e+02,2.221558e+03
9.786985e+02,2.235964e+03
9.815912e+02,2.220931e+03
9.844839e+02,2.202297e+03
9.873766e+02,2.218008e+03
9.902693e+02,2.207411e+03
9.931620e+02,2.216819e+03
9.960547e+02,2.195646e+03
9.989474e+02,2.187566e+03
1.001840e+03,2.191883e+03
1.004733e+03,2.181640e+03
1.007626e+03,2.189552e+03
1.010518e+03,2.185300e+03
1.013411e+03,2.166032e+03
1.016304e+03,2.166196e+03
1.019196e+03,2.155283e+03
1.022089e+03,2.164644e+03
1.024982e+03,2.164157e+03
1.027875e+03,2.152628e+03
1.030767e+03,2.156505e+03
1.033660e+03,2.157616e+03
1.036552e+03,2.161373e+03
1.039445e+03,2.157313e+03
1.042338e+03,2.149263e+03
1.045231e+03,2.141787e+03
1.048123e+03,2.141532e+03
1.051016e+03,2.145278e+03
1.053909e+03,2.137813e+03
1.056802e+03,2.124515e+03
1.059694e+03,2.128620e+03
1.062587e+03,2.111482e+03
1.065479e+03,2.139936e+03
1.068372e+03,2.133517e+03
1.071265e+03,2.145452e+03
1.074158e+03,2.128783e+03
1.077050e+03,2.108434e+03
1.079943e+03,2.108931e+03
1.082836e+03,2.129644e+03
1.085729e+03,2.124163e+03
1.088621e+03,2.122042e+03
1.091514e+03,2.127594e+03
1.094406e+03,2.122970e+03
1.097299e+03,2.124778e+03
1.100192e+03,2.128655e+03
1.103085e+03,2.109891e+03
1.105977e+03,2.096515e+03
1.108870e+03,2.099926e+03
1.111763e+03,2.093283e+03
1.114656e+03,2.094602e+03
1.117548e+03,2.101454e+03
1.120441e+03,2.106315e+03
1.123334e+03,2.093500e+03
1.126226e+03,2.084148e+03
1.129119e+03,2.074124e+03
1.132012e+03,2.067840e+03
1.134904e+03,2.067041e+03
1.137797e+03,2.074627e+03
1.140690e+03,2.049450e+03
1.143583e+03,2.048851e+03
1.146475e+03,2.053468e+03
1.149368e+03,2.069780e+03
1.152261e+03,2.061639e+03
1.155153e+03,2.049867e+03
1.158046e+03,2.046728e+03
1.160939e+03,2.022437e+03
1.163831e+03,2.035137e+03
1.166724e+03,2.040561e+03
1.169617e+03,2.022450e+03
1.172510e+03,2.016256e+03
1.175402e+03,2.023434e+03
1.178295e+03,2.013178e+03
1.181188e+03,2.014458e+03
1.184080e+03,2.006915e+03
1.186973e+03,2.004359e+03
1.189866e+03,2.001372e+03
1.192758e+03,2.005834e+03
1.195651e+03,2.002447e+03
1.198544e+03,2.011497e+03
1.201437e+03,1.995657e+03
1.204329e+03,1.987354e+03
1.207222e+03,1.983803e+03
1.210115e+03,1.999450e+03
1.213007e+03,2.007511e+03
1.215900e+03,1.986893e+03
1.218793e+03,1.987984e+03
1.221685e+03,1.981411e+03
1.224578e+03,1.971483e+03
1.227471e+03,1.988487e+03
1.230364e+03,1.977411e+03
1.233256e+03,1.979936e+03
1.236149e+03,1.973033e+03
1.239042e+03,1.970515e+03
1.241934e+03,1.977063e+03
1.244827e+03,1.968851e+03
1.247720e+03,1.957111e+03
1.250612e+03,1.958904e+03
1.253505e+03,1.958905e+03
1.256398e+03,1.969944e+03
1.259291e+03,1.956964e+03
1.262183e+03,1.961594e+03
1.265076e+03,1.949691e+03
1.267969e+03,1.946414e+03
1.270861e+03,1.951097e+03
1.273754e+03,1.954711e+03
1.276647e+03,1.952357e+03
1.279539e+03,1.927881e+03
1.282432e+03,1.940238e+03
1.285325e+03,1.955489e+03
1.288218e+03,1.950223e+03
1.291110e+03,1.948185e+03
1.294003e+03,1.943367e+03
1.296896e+03,1.942973e+03
1.299788e+03,1.916527e+03
1.302681e+03,1.928951e+03
1.305574e+03,1.933830e+03
1.308466e+03,1.934554e+03
1.311359e+03,1.933468e+03
1.314252e+03,1.924926e+03
1.317145e+03,1.921978e+03
1.320037e+03,1.931033e+03
1.322930e+03,1.932451e+03
1.325823e+03,1.929786e+03
1.328715e+03,1.922995e+03
1.331608e+03,1.925521e+03
1.334501e+03,1.926756e+03
1.337393e+03,1.920491e+03
1.340286e+03,1.915490e+03
1.343179e+03,1.891739e+03
1.346072e+03,1.898676e+03
1.348964e+03,1.907309e+03
1.351857e+03,1.911604e+03
1.354750e+03,1.894676e+03
1.357642e+03,1.892409e+03
1.360535e+03,1.889637e+03
1.363428e+03,1.898340e+03
1.366320e+03,1.899327e+03
1.369213e+03,1.887157e+03
1.372106e+03,1.886063e+03
1.374999e+03,1.878466e+03
1.377891e+03,1.876116e+03
1.380784e+03,1.883969e+03
1.383677e+03,1.872946e+03
1.386569e+03,1.871447e+03
1.389462e+03,1.869364e+03
1.392355e+03,1.856532e+03
1.395247e+03,1.858729e+03
1.398140e+03,1.857545e+03
1.401033e+03,1.854487e+03
1.403926e+03,1.833154e+03
1.406818e+03,1.848076e+03
1.409711e+03,1.840786e+03
1.412604e+03,1.835317e+03
1.415496e+03,1.836838e+03
1.418389e+03,1.829839e+03
1.421282e+03,1.825463e+03
1.424174e+03,1.827835e+03
1.427067e+03,1.822467e+03
1.429960e+03,1.833106e+03
1.432853e+03,1.829000e+03
1.435745e+03,1.801268e+03
1.438638e+03,1.811892e+03
1.441531e+03,1.816291e+03
1.444423e+03,1.800533e+03
1.447316e+03,1.804266e+03
1.450209e+03,1.803564e+03
1.453101e+03,1.809862e+03
1.455994e+03,1.808147e+03
1.458887e+03,1.798363e+03
1.461780e+03,1.800145e+03
1.464672e+03,1.785734e+03
1.467565e+03,1.789139e+03
1.470458e+03,1.793245e+03
1.473350e+03,1.783302e+03
1.476243e+03,1.784505e+03
1.479136e+03,1.793225e+03
1.482028e+03,1.769450e+03
1.484921e+03,1.768494e+03
1.487814e+03,1.767551e+03
1.490707e+03,1.756149e+03
1.493599e+03,1.759701e+03
1.496492e+03,1.766536e+03
1.499385e+03,1.751626e+03
1.502277e+03,1.742949e+03
1.505170e+03,1.746844e+03
1.508063e+03,1.756774e+03
1.510955e+03,1.742407e+03
1.513848e+03,1.732935e+03
1.516741e+03,1.726312e+03
1.519634e+03,1.747432e+03
1.522526e+03,1.751578e+03
1.525419e+03,1.739426e+03
1.528312e+03,1.724803e+03
1.531204e+03,1.732531e+03
1.534097e+03,1.739154e+03
1.536990e+03,1.730134e+03
1.539882e+03,1.715923e+03
1.542775e+03,1.732868e+03
1.545668e+03,1.712349e+03
1.548561e+03,1.728737e+03
1.551453e+03,1.730404e+03
1.554346e+03,1.709175e+03
1.557239e+03,1.716849e+03
1.560131e+03,1.709564e+03
1.563024e+03,1.718968e+03
1.565917e+03,1.708507e+03
1.568809e+03,1.711499e+03
1.571702e+03,1.711617e+03
1.574595e+03,1.697441e+03
1.577488e+03,1.695590e+03
1.580380e+03,1.693214e+03
1.583273e+03,1.703491e+03
1.586166e+03,1.689823e+03
1.589058e+03,1.696488e+03
1.591951e+03,1.692079e+03
1.594844e+03,1.695456e+03
1.597736e+03,1.672293e+03
1.600629e+03,1.695994e+03
1.603522e+03,1.668549e+03
1.606415e+03,1.671462e+03
1.609307e+03,1.679324e+03
1.612200e+03,1.670935e+03
1.615093e+03,1.666317e+03
1.617985e+03,1.676897e+03
1.620878e+03,1.647443e+03
1.623771e+03,1.655513e+03
1.626663e+03,1.651786e+03
1.629556e+03,1.639270e+03
1.632449e+03,1.634426e+03
1.635342e+03,1.640354e+03
1.638234e+03,1.627112e+03
1.641127e+03,1.622500e+03
1.644020e+03,1.620836e+03
1.646912e+03,1.616755e+03
1.649805e+03,1.607727e+03
1.652698e+03,1.622728e+03
1.655590e+03,1.605078e+03
1.658483e+03,1.608517e+03
1.661376e+03,1.614330e+03
1.664269e+03,1.598963e+03
1.667161e+03,1.598494e+03
1.670054e+03,1.586959e+03
1.672947e+03,1.591287e+03
1.675839e+03,1.584036e+03
1.678732e+03,1.585281e+03
1.681625e+03,1.586742e+03
1.684517e+03,1.584330e+03
1.687410e+03,1.572899e+03
1.690303e+03,1.563052e+03
1.693196e+03,1.570675e+03
1.696088e+03,1.563229e+03
1.698981e+03,1.565978e+03
1.701874e+03,1.566097e+03
1.704766e+03,1.543792e+03
1.707659e+03,1.548935e+03
1.710552e+03,1.554443e+03
1.713444e+03,1.541728e+03
1.716337e+03,1.552173e+03
1.719230e+03,1.558356e+03
1.722123e+03,1.536784e+03
1.725015e+03,1.529741e+03
1.727908e+03,1.521131e+03
1.730801e+03,1.541891e+03
1.733693e+03,1.530247e+03
1.736586e+03,1.519989e+03
1.739479e+03,1.526238e+03
1.742371e+03,1.519927e+03
1.745264e+03,1.520616e+03
1.748157e+03,1.506182e+03
1.751050e+03,1.516693e+03
1.753942e+03,1.510104e+03
1.756835e+03,1.504017e+03
1.759728e+03,1.502238e+03
1.762620e+03,1.498813e+03
1.765513e+03,1.494578e+03
1.768406e+03,1.494205e+03
1.771298e+03,1.492808e+03
1.774191e+03,1.489935e+03
1.777084e+03,1.480443e+03
1.779977e+03,1.490468e+03
1.782869e+03,1.494052e+03
1.785762e+03,1.482522e+03
1.788655e+03,1.480333e+03
1.791547e+03,1.470571e+03
1.794440e+03,1.467141e+03
1.797333e+03,1.461162e+03
1.800225e+03,1.488650e+03
1.803118e+03,1.452260e+03
1.806011e+03,1.457159e+03
1.808904e+03,1.456834e+03
1.811796e+03,1.465142e+03
1.814689e+03,1.448726e+03
1.817582e+03,1.440698e+03
1.820474e+03,1.449250e+03
1.823367e+03,1.434223e+03
1.826260e+03,1.434782e+03
1.829152e+03,1.427299e+03
1.832045e+03,1.421044e+03
1.834938e+03,1.432242e+03
1.837831e+03,1.409798e+03
1.840723e+03,1.419508e+03
1.843616e+03,1.427609e+03
1.846509e+03,1.405197e+03
1.849401e+03,1.419648e+03
1.852294e+03,1.408544e+03
1.855187e+03,1.408752e+03
1.858079e+03,1.393634e+03
1.860972e+03,1.409577e+03
1.863865e+03,1.389892e+03
1.866758e+03,1.378003e+03
1.869650e+03,1.391352e+03
1.872543e+03,1.395227e+03
1.875436e+03,1.388241e+03
1.878328e+03,1.383175e+03
1.881221e+03,1.365070e+03
1.884114e+03,1.373856e+03
1.887006e+03,1.364437e+03
1.889899e+03,1.379385e+03
1.892792e+03,1.367008e+03
1.895685e+03,1.373547e+03
1.898577e+03,1.360846e+03
1.901470e+03,1.349516e+03
1.904363e+03,1.356811e+03
1.907255e+03,1.357852e+03
1.910148e+03,1.349718e+03
1.913041e+03,1.328892e+03
1.915933e+03,1.333265e+03
1.918826e+03,1.334661e+03
1.921719e+03,1.332446e+03
1.924612e+03,1.342216e+03
1.927504e+03,1.318961e+03
1.930397e+03,1.311107e+03
1.933290e+03,1.318767e+03
1.936182e+03,1.308570e+03
1.939075e+03,1.306818e+03
1.941968e+03,1.308315e+03
1.944860e+03,1.315974e+03
1.947753e+03,1.312119e+03
1.950646e+03,1.281672e+03
1.953539e+03,1.298684e+03
1.956431e+03,1.294369e+03
1.959324e+03,1.281975e+03
1.962217e+03,1.294869e+03
1.965109e+03,1.276418e+03
1.968002e+03,1.286262e+03
1.970895e+03,1.290921e+03
1.973787e+03,1.268581e+03
1.976680e+03,1.278473e+03
1.979573e+03,1.269101e+03
1.982466e+03,1.269428e+03
1.985358e+03,1.261996e+03
1.988251e+03,1.268073e+03
1.991144e+03,1.255087e+03
1.994036e+03,1.245930e+03
1.996929e+03,1.247910e+03
1.999822e+03,1.245385e+03
2.002714e+03,1.240782e+03
2.005607e+03,1.252811e+03
2.008500e+03,1.244684e+03
2.011393e+03,1.232997e+03
2.014285e+03,1.238806e+03
2.017178e+03,1.226324e+03
2.020071e+03,1.216576e+03
2.022963e+03,1.233101e+03
2.025856e+03,1.227684e+03
2.028749e+03,1.226059e+03
2.031641e+03,1.214459e+03
2.034534e+03,1.206344e+03
2.037427e+03,1.211056e+03
2.040320e+03,1.207343e+03
2.043212e+03,1.220155e+03
2.046105e+03,1.200330e+03
2.048998e+03,1.215194e+03
2.051890e+03,1.193859e+03
2.054783e+03,1.179122e+03
2.057676e+03,1.189150e+03
2.060568e+03,1.189022e+03
2.063461e+03,1.183099e+03
2.066354e+03,1.178153e+03
2.069247e+03,1.177012e+03
2.072139e+03,1.177820e+03
2.075032e+03,1.155694e+03
2.077925e+03,1.161855e+03
2.080817e+03,1.163589e+03
2.083710e+03,1.161493e+03
2.086603e+03,1.149678e+03
2.089496e+03,1.141550e+03
2.092388e+03,1.153691e+03
2.095281e+03,1.146618e+03
2.098174e+03,1.151527e+03
2.101066e+03,1.143474e+03
2.103959e+03,1.131061e+03
2.106852e+03,1.126680e+03
2.109744e+03,1.140154e+03
2.112637e+03,1.128083e+03
2.115530e+03,1.122379e+03
2.118422e+03,1.119022e+03
2.121315e+03,1.136681e+03
2.124208e+03,1.111016e+03
2.127101e+03,1.102446e+03
2.129993e+03,1.116053e+03
2.132886e+03,1.108591e+03
2.135779e+03,1.094668e+03
2.138671e+03,1.103445e+03
2.141564e+03,1.103066e+03
2.144457e+03,1.101438e+03
2.147350e+03,1.090926e+03
2.150242e+03,1.089203e+03
2.153135e+03,1.096297e+03
2.156028e+03,1.075601e+03
2.158920e+03,1.078503e+03
2.161813e+03,1.070771e+03
2.164706e+03,1.089410e+03
2.167598e+03,1.069719e+03
2.170491e+03,1.069163e+03
2.173384e+03,1.072789e+03
2.176277e+03,1.069524e+03
2.179169e+03,1.050075e+03
2.182062e+03,1.051993e+03
2.184955e+03,1.051869e+03
2.187847e+03,1.055216e+03
2.190740e+03,1.048745e+03
2.193633e+03,1.046133e+03
2.196525e+03,1.040564e+03
2.199418e+03,1.028332e+03
2.202311e+03,1.036246e+03
2.205204e+03,1.044992e+03
2.208096e+03,1.016272e+03
2.210989e+03,1.014596e+03
2.213882e+03,1.026759e+03
2.216774e+03,1.019923e+03
2.219667e+03,1.032524e+03
2.222560e+03,1.011631e+03
2.225452e+03,9.947604e+02
2.228345e+03,1.017993e+03
2.231238e+03,1.022109e+03
2.234131e+03,1.008806e+03
2.237023e+03,1.003496e+03
2.239916e+03,9.940410e+02
2.242809e+03,9.994367e+02
2.245701e+03,1.006398e+03
2.248594e+03,9.883239e+02
2.251487e+03,9.938761e+02
2.254379e+03,9.849144e+02
2.257272e+03,9.707863e+02
2.260165e+03,9.697573e+02
2.263058e+03,9.646166e+02
2.265950e+03,9.677166e+02
2.268843e+03,9.756592e+02
2.271736e+03,9.716358e+02
2.274628e+03,9.597099e+02
2.277521e+03,9.646049e+02
2.280414e+03,9.593251e+02
2.283306e+03,9.543928e+02
2.286199e+03,9.561738e+02
2.289092e+03,9.599562e+02
2.291985e+03,9.422358e+02
2.294877e+03,9.562142e+02
2.297770e+03,9.502621e+02
2.300663e+03,9.500865e+02
2.303555e+03,9.148442e+02
2.306448e+03,9.310205e+02
2.309341e+03,9.233036e+02
2.312233e+03,9.181950e+02
2.315126e+03,9.200399e+02
2.318019e+03,9.248590e+02
2.320912e+03,9.255895e+02
2.323804e+03,9.265771e+02
2.326697e+03,9.187818e+02
2.329590e+03,9.189351e+02
2.332482e+03,9.054677e+02
2.335375e+03,9.106245e+02
2.338268e+03,9.001686e+02
2.341160e+03,8.933400e+02
2.344053e+03,9.079436e+02
2.346946e+03,9.016166e+02
2.349839e+03,8.839636e+02
2.352731e+03,8.950504e+02
2.355624e+03,8.986172e+02
2.358517e+03,8.932416e+02
2.361409e+03,8.952698e+02
2.364302e+03,8.802774e+02
2.367195e+03,8.872691e+02
2.370087e+03,8.829861e+02
2.372980e+03,8.755305e+02
2.375873e+03,8.653459e+02
2.378766e+03,8.772057e+02
2.381658e+03,8.684060e+02
2.384551e+03,8.528608e+02
2.387444e+03,8.760511e+02
2.390336e+03,8.674378e+02
2.393229e+03,8.570864e+02
2.396122e+03,8.628170e+02
2.399014e+03,8.459683e+02
2.401907e+03,8.641434e+02
2.404800e+03,8.421185e+02
2.407693e+03,8.308302e+02
2.410585e+03,8.498900e+02
2.413478e+03,8.362883e+02
2.416371e+03,8.455131e+02
2.419263e+03,8.287128e+02
2.422156e+03,8.277491e+02
2.425049e+03,8.337505e+02
2.427941e+03,8.367370e+02
2.430834e+03,8.203793e+02
2.433727e+03,8.311146e+02
2.436620e+03,8.336282e+02
2.439512e+03,8.154534e+02
2.442405e+03,8.131886e+02
2.445298e+03,8.167062e+02
2.448190e+03,8.125361e+02
2.451083e+03,8.099464e+02
2.453976e+03,8.218318e+02
2.456868e+03,8.064844e+02
2.459761e+03,8.174039e+02
2.462654e+03,8.120162e+02
2.465547e+03,7.968613e+02
2.468439e+03,8.068659e+02
2.471332e+03,7.953369e+02
2.474225e+03,7.972892e+02
2.477117e+03,7.910632e+02
2.480010e+03,8.098643e+02
2.482903e+03,8.003964e+02
2.485795e+03,8.002990e+02
2.488688e+03,7.928812e+02
2.491581e+03,7.811223e+02
2.494474e+03,7.881330e+02
2.497366e+03,7.873669e+02
2.500259e+03,7.775112e+02
2.503152e+03,7.772043e+02
2.506044e+03,7.718482e+02
2.508937e+03,7.624336e+02
2.511830e+03,7.740577e+02
2.514722e+03,7.723891e+02
2.517615e+03,7.756376e+02
2.520508e+03,7.632276e+02
2.523401e+03,7.599137e+02
2.526293e+03,7.751298e+02
2.529186e+03,7.516817e+02
2.532079e+03,7.608290e+02
2.534971e+03,7.554967e+02
2.537864e+03,7.368507e+02
2.540757e+03,7.592409e+02
2.543649e+03,7.500974e+02
2.546542e+03,7.629175e+02
2.549435e+03,7.466320e+02
2.552328e+03,7.511183e+02
2.555220e+03,7.549574e+02
2.558113e+03,7.523585e+02
2.561006e+03,7.429346e+02
2.563898e+03,7.483502e+02
2.566791e+03,7.505053e+02
2.569684e+03,7.517504e+02
2.572576e+03,7.497548e+02
2.575469e+03,7.411243e+02
2.578362e+03,7.348110e+02
2.581255e+03,7.376132e+02
2.584147e+03,7.303309e+02
2.587040e+03,7.197658e+02
2.589933e+03,7.221585e+02
2.592825e+03,7.287845e+02
2.595718e+03,7.163767e+02
2.598611e+03,7.287217e+02
2.601503e+03,7.243870e+02
2.604396e+03,7.254725e+02
2.607289e+03,7.223129e+02
2.610182e+03,7.118829e+02
2.613074e+03,7.010742e+02
2.615967e+03,7.099800e+02
2.618860e+03,7.156191e+02
2.621752e+03,7.032950e+02
2.624645e+03,7.155100e+02
2.627538e+03,7.061097e+02
2.630430e+03,6.846682e+02
2.633323e+03,7.140930e+02
2.636216e+03,6.995623e+02
2.639109e+03,7.126271e+02
2.642001e+03,6.957937e+02
2.644894e+03,7.052806e+02
2.647787e+03,6.826749e+02
2.650679e+03,6.877181e+02
2.653572e+03,6.945936e+02
2.656465e+03,7.021432e+02
2.659357e+03,6.893933e+02
2.662250e+03,6.850864e+02
2.665143e+03,6.884319e+02
2.668036e+03,7.007311e+02
2.670928e+03,6.810027e+02
2.673821e+03,6.933148e+02
2.676714e+03,6.955480e+02
2.679606e+03,6.878824e+02
2.682499e+03,6.843312e+02
2.685392e+03,6.599107e+02
2.688284e+03,6.711724e+02
2.691177e+03,6.825945e+02
2.694070e+03,6.764723e+02
2.696963e+03,6.756827e+02
2.699855e+03,6.877172e+02
2.702748e+03,6.867910e+02
2.705641e+03,6.760110e+02
2.708533e+03,6.588743e+02
2.711426e+03,6.843214e+02
2.714319e+03,6.602161e+02
2.717211e+03,6.645004e+02
2.720104e+03,6.733304e+02
2.722997e+03,6.675779e+02
2.725890e+03,6.453878e+02
2.728782e+03,6.623233e+02
2.731675e+03,6.515720e+02
2.734568e+03,6.679080e+02
2.737460e+03,6.500255e+02
2.740353e+03,6.658602e+02
2.743246e+03,6.486794e+02
2.746138e+03,6.548109e+02
2.749031e+03,6.532562e+02
2.751924e+03,6.520847e+02
2.754817e+03,6.351243e+02
2.757709e+03,6.498972e+02
2.760602e+03,6.367100e+02
2.763495e+03,6.456679e+02
2.766387e+03,6.634911e+02
2.769280e+03,6.227322e+02
2.772173e+03,6.417471e+02
2.775065e+03,6.472172e+02
2.777958e+03,6.412020e+02
2.780851e+03,6.375221e+02
2.783744e+03,6.475281e+02
2.786636e+03,6.372499e+02
2.789529e+03,6.295656e+02
2.792422e+03,6.350950e+02
2.795314e+03,6.379717e+02
2.798207e+03,6.240615e+02
2.801100e+03,6.336423e+02
2.803992e+03,6.340338e+02
2.806885e+03,6.205819e+02
2.809778e+03,6.254478e+02
2.812671e+03,6.318096e+02
2.815563e+03,6.056455e+02
2.818456e+03,6.226828e+02
2.821349e+03,6.009771e+02
2.824241e+03,6.287169e+02
2.827134e+03,6.325322e+02
2.830027e+03,6.085910e+02
2.832919e+03,6.280251e+02
2.835812e+03,6.397374e+02
2.838705e+03,6.393008e+02
2.841598e+03,6.243746e+02
2.844490e+03,6.272053e+02
2.847383e+03,6.243629e+02
2.850276e+03,6.250361e+02
2.853168e+03,6.165102e+02
2.856061e+03,6.404423e+02
2.858954e+03,6.251161e+02
2.861846e+03,6.466995e+02
2.864739e+03,6.336620e+02
2.867632e+03,6.453116e+02
2.870525e+03,6.432804e+02
2.873417e+03,6.559865e+02
2.876310e+03,6.300241e+02
2.879203e+03,6.497552e+02
2.882095e+03,6.467617e+02
2.884988e+03,6.368412e+02
2.887881e+03,6.666680e+02
2.890773e+03,6.458402e+02
2.893666e+03,6.383379e+02
2.896559e+03,6.397398e+02
2.899452e+03,6.701946e+02
2.902344e+03,6.464180e+02
2.905237e+03,6.475004e+02
2.908130e+03,6.299053e+02
2.911022e+03,6.507096e+02
2.913915e+03,6.044949e+02
2.916808e+03,6.188958e+02
2.919700e+03,6.391213e+02
2.922593e+03,6.072933e+02
2.925486e+03,6.344023e+02
2.928379e+03,6.250803e+02
2.931271e+03,6.106853e+02
2.934164e+03,6.214976e+02
2.937057e+03,5.915529e+02
2.939949e+03,6.192783e+02
2.942842e+03,5.955375e+02
2.945735e+03,5.958712e+02
2.948627e+03,5.892696e+02
2.951520e+03,6.202650e+02
2.954413e+03,5.900061e+02
2.957306e+03,6.080469e+02
2.960198e+03,6.032796e+02
2.963091e+03,6.259471e+02
2.965984e+03,5.668381e+02
2.968876e+03,5.962184e+02
2.971769e+03,5.956768e+02
2.974662e+03,5.695930e+02
2.977554e+03,5.830430e+02
2.980447e+03,5.796215e+02
2.983340e+03,5.856133e+02
2.986233e+03,5.802147e+02
2.989125e+03,5.625815e+02
2.992018e+03,5.925939e+02
2.994911e+03,5.536208e+02
2.997803e+03,5.623052e+02
3.000696e+03,5.728712e+02
3.003589e+03,5.698253e+02
3.006481e+03,5.493123e+02
3.009374e+03,5.626848e+02
3.012267e+03,5.684853e+02
3.015160e+03,5.466713e+02
3.018052e+03,5.472537e+02
3.020945e+03,5.596523e+02
3.023838e+03,5.351836e+02
3.026730e+03,5.526310e+02
3.029623e+03,5.703851e+02
3.032516e+03,5.329595e+02
3.035408e+03,5.258481e+02
3.038301e+03,5.416395e+02
3.041194e+03,5.482050e+02
3.044087e+03,5.144057e+02
3.046979e+03,5.275129e+02
3.049872e+03,5.183539e+02
3.052765e+03,5.463554e+02
3.055657e+03,5.463601e+02
3.058550e+03,5.543943e+02
3.061443e+03,5.456235e+02
3.064335e+03,5.331890e+02
3.067228e+03,5.357800e+02
3.070121e+03,5.317128e+02
3.073014e+03,5.359460e+02
3.075906e+03,5.441285e+02
3.078799e+03,5.593683e+02
3.081692e+03,5.337972e+02
3.084584e+03,5.372494e+02
3.087477e+03,5.339043e+02
3.090370e+03,5.419028e+02
3.093262e+03,5.379925e+02
3.096155e+03,5.305284e+02
3.099048e+03,5.423098e+02
3.101941e+03,5.205630e+02
3.104833e+03,5.245441e+02
3.107726e+03,5.532401e+02
3.110619e+03,5.618895e+02
3.113511e+03,5.126426e+02
3.116404e+03,5.425338e+02
3.119297e+03,5.646396e+02
3.122189e+03,5.140729e+02
3.125082e+03,5.375799e+02
3.127975e+03,5.438934e+02
3.130868e+03,5.447396e+02
3.133760e+03,5.482143e+02
3.136653e+03,5.354536e+02
3.139546e+03,5.290406e+02
3.142438e+03,5.383625e+02
3.145331e+03,5.418104e+02
3.148224e+03,5.523590e+02
3.151116e+03,5.079214e+02
3.154009e+03,5.510892e+02
3.156902e+03,5.341298e+02
3.159795e+03,5.306763e+02
3.162687e+03,5.543705e+02
3.165580e+03,5.453135e+02
3.168473e+03,5.504293e+02
3.171365e+03,5.500573e+02
3.174258e+03,5.442404e+02
3.177151e+03,5.100541e+02
3.180043e+03,5.485916e+02
3.182936e+03,5.526833e+02
3.185829e+03,5.218882e+02
3.188722e+03,5.045480e+02
3.191614e+03,5.542221e+02
3.194507e+03,5.389902e+02
3.197400e+03,5.288127e+02
3.200292e+03,5.479957e+02
3.203185e+03,0.000000e+00
3.206078e+03,0.000000e+00
3.208970e+03,0.000000e+00
3.211863e+03,0.000000e+00
3.214756e+03,0.000000e+00
3.217649e+03,0.000000e+00
3.220541e+03,0.000000e+00
3.223434e+03,0.000000e+00
3.226327e+03,0.000000e+00
3.229219e+03,0.000000e+00
3.232112e+03,0.000000e+00
3.235005e+03,0.000000e+00
3.237897e+03,0.000000e+00
3.240790e+03,0.000000e+00
3.243683e+03,0.000000e+00
3.246576e+03,0.000000e+00
3.249468e+03,0.000000e+00
3.252361e+03,0.000000e+00
3.255254e+03,0.000000e+00
3.258146e+03,0.000000e+00
3.261039e+03,0.000000e+00
3.263932e+03,0.000000e+00
3.266824e+03,0.000000e+00
3.269717e+03,0.000000e+00
3.272610e+03,0.000000e+00
3.275503e+03,0.000000e+00
3.278395e+03,0.000000e+00
3.281288e+03,0.000000e+00
3.284181e+03,0.000000e+00
3.287073e+03,0.000000e+00
3.289966e+03,0.000000e+00
3.292859e+03,0.000000e+00
3.295751e+03,0.000000e+00
3.298644e+03,0.000000e+00
3.301537e+03,0.000000e+00
3.304430e+03,0.000000e+00
3.307322e+03,0.000000e+00
3.310215e+03,0.000000e+00
3.313108e+03,0.000000e+00
3.316000e+03,0.000000e+00
3.318893e+03,0.000000e+00
3.321786e+03,0.000000e+00
3.324678e+03,0.000000e+00
3.327571e+03,0.000000e+00
3.330464e+03,0.000000e+00
3.333357e+03,0.000000e+00
3.336249e+03,0.000000e+00
3.339142e+03,0.000000e+00
3.342035e+03,0.000000e+00
3.344927e+03,0.000000e+00
3.347820e+03,0.000000e+00
3.350713e+03,0.000000e+00
3.353605e+03,0.000000e+00
3.356498e+03,0.000000e+00
3.359391e+03,0.000000e+00
3.362284e+03,0.000000e+00
3.365176e+03,0.000000e+00
3.368069e+03,0.000000e+00
3.370962e+03,0.000000e+00
3.373854e+03,0.000000e+00
3.376747e+03,0.000000e+00
3.379640e+03,0.000000e+00
3.382532e+03,0.000000e+00
3.385425e+03,0.000000e+00
3.388318e+03,0.000000e+00
3.391211e+03,0.000000e+00
3.394103e+03,0.000000e+00
3.396996e+03,0.000000e+00
3.399889e+03,0.000000e+00
3.402781e+03,0.000000e+00
3.405674e+03,0.000000e+00
3.408567e+03,0.000000e+00
3.411459e+03,0.000000e+00
3.414352e+03,0.000000e+00
3.417245e+03,0.000000e+00
3.420138e+03,0.000000e+00
3.423030e+03,0.000000e+00
3.425923e+03,0.000000e+00
3.428816e+03,0.000000e+00
3.431708e+03,0.000000e+00
3.434601e+03,0.000000e+00
3.437494e+03,0.000000e+00
3.440386e+03,0.000000e+00
3.443279e+03,0.000000e+00
3.446172e+03,0.000000e+00
3.449065e+03,0.000000e+00
3.451957e+03,0.000000e+00
3.454850e+03,0.000000e+00
3.457743e+03,0.000000e+00
3.460635e+03,0.000000e+00
3.463528e+03,0.000000e+00
3.466421e+03,0.000000e+00
3.469313e+03,0.000000e+00
3.472206e+03,0.000000e+00
3.475099e+03,0.000000e+00
3.477992e+03,0.000000e+00
3.480884e+03,0.000000e+00
3.483777e+03,0.000000e+00
3.486670e+03,0.000000e+00
3.489563e+03,0.000000e+00
3.492455e+03,0.000000e+00
3.495348e+03,0.000000e+00
3.498240e+03,0.000000e+00
3.500169e+03,0.000000e+00