File: RAMAN_data/20012023_r3/red fibre2.CSV
9.931763e+01,0.000000e+00
1.022103e+02,0.000000e+00
1.051030e+02,0.000000e+00
1.079957e+02,0.000000e+00
1.108884e+02,0.000000e+00
1.137811e+02,0.000000e+00
1.166738e+02,0.000000e+00
1.195665e+02,0.000000e+00
1.224592e+02,0.000000e+00
1.253519e+02,0.000000e+00
1.282446e+02,0.000000e+00
1.311373e+02,0.000000e+00
1.340300e+02,0.000000e+00
1.369227e+02,0.000000e+00
1.398154e+02,0.000000e+00
1.427081e+02,0.000000e+00
1.456008e+02,0.000000e+00
1.484935e+02,0.000000e+00
1.513862e+02,0.000000e+00
1.542789e+02,0.000000e+00
1.571716e+02,0.000000e+00
1.600643e+02,0.000000e+00
1.629570e+02,0.000000e+00
1.658497e+02,0.000000e+00
1.687424e+02,0.000000e+00
1.716351e+02,0.000000e+00
1.745278e+02,0.000000e+00
1.774205e+02,0.000000e+00
1.803132e+02,0.000000e+00
1.832059e+02,0.000000e+00
1.860986e+02,0.000000e+00
1.889913e+02,0.000000e+00
1.918840e+02,0.000000e+00
1.947767e+02,0.000000e+00
1.976694e+02,0.000000e+00
2.005621e+02,2.276978e+03
2.034548e+02,2.292547e+03
2.063475e+02,2.295355e+03
2.092402e+02,2.284184e+03
2.121329e+02,2.284483e+03
2.150256e+02,2.285737e+03
2.179183e+02,2.283667e+03
2.208110e+02,2.291026e+03
2.237037e+02,2.287492e+03
2.265964e+02,2.284073e+03
2.294892e+02,2.284870e+03
2.323819e+02,2.291466e+03
2.352746e+02,2.287153e+03
2.381673e+02,2.288258e+03
2.410600e+02,2.295964e+03
2.439527e+02,2.301611e+03
2.468454e+02,2.295350e+03
2.497381e+02,2.292280e+03
2.526308e+02,2.294103e+03
2.555235e+02,2.303196e+03
2.584161e+02,2.298099e+03
2.613088e+02,2.299171e+03
2.642015e+02,2.303702e+03
2.670942e+02,2.313270e+03
2.699869e+02,2.296866e+03
2.728796e+02,2.294333e+03
2.757723e+02,2.303604e+03
2.786650e+02,2.310169e+03
2.815577e+02,2.299698e+03
2.844504e+02,2.303504e+03
2.873431e+02,2.302113e+03
2.902358e+02,2.309851e+03
2.931285e+02,2.306942e+03
2.960212e+02,2.307218e+03
2.989139e+02,2.303889e+03
3.018066e+02,2.306347e+03
3.046993e+02,2.302597e+03
3.075920e+02,2.300621e+03
3.104847e+02,2.304574e+03
3.133774e+02,2.300550e+03
3.162701e+02,2.312960e+03
3.191628e+02,2.296813e+03
3.220555e+02,2.295247e+03
3.249482e+02,2.308083e+03
3.278409e+02,2.310925e+03
3.307336e+02,2.313643e+03
3.336263e+02,2.312222e+03
3.365190e+02,2.303147e+03
3.394117e+02,2.316415e+03
3.423044e+02,2.295726e+03
3.451971e+02,2.316462e+03
3.480898e+02,2.291594e+03
3.509825e+02,2.301663e+03
3.538752e+02,2.295052e+03
3.567680e+02,2.304852e+03
3.596607e+02,2.311300e+03
3.625534e+02,2.305363e+03
3.654461e+02,2.290319e+03
3.683388e+02,2.284867e+03
3.712315e+02,2.296841e+03
3.741242e+02,2.305541e+03
3.770169e+02,2.318661e+03
3.799096e+02,2.306852e+03
3.828023e+02,2.300210e+03
3.856950e+02,2.295705e+03
3.885877e+02,2.292704e+03
3.914804e+02,2.300243e+03
3.943731e+02,2.279985e+03
3.972658e+02,2.282418e+03
4.001585e+02,2.278078e+03
4.030512e+02,2.280394e+03
4.059439e+02,2.277506e+03
4.088366e+02,2.279097e+03
4.117293e+02,2.284014e+03
4.146220e+02,2.267052e+03
4.175147e+02,2.256387e+03
4.204074e+02,2.285441e+03
4.233001e+02,2.263941e+03
4.261928e+02,2.266872e+03
4.290855e+02,2.274858e+03
4.319782e+02,2.265409e+03
4.348709e+02,2.273372e+03
4.377636e+02,2.272838e+03
4.406563e+02,2.255228e+03
4.435490e+02,2.255208e+03
4.464417e+02,2.253065e+03
4.493344e+02,2.253833e+03
4.522271e+02,2.251834e+03
4.551198e+02,2.275651e+03
4.580125e+02,2.255963e+03
4.609052e+02,2.254260e+03
4.637979e+02,2.246621e+03
4.666906e+02,2.239014e+03
4.695833e+02,2.243223e+03
4.724760e+02,2.222276e+03
4.753687e+02,2.232355e+03
4.782614e+02,2.230967e+03
4.811541e+02,2.224978e+03
4.840468e+02,2.230851e+03
4.869395e+02,2.234059e+03
4.898322e+02,2.222686e+03
4.927249e+02,2.230049e+03
4.956176e+02,2.212751e+03
4.985103e+02,2.215837e+03
5.014030e+02,2.219409e+03
5.042957e+02,2.220743e+03
5.071884e+02,2.207468e+03
5.100811e+02,2.206822e+03
5.129738e+02,2.217566e+03
5.158665e+02,2.221004e+03
5.187592e+02,2.215848e+03
5.216519e+02,2.200581e+03
5.245446e+02,2.189500e+03
5.274373e+02,2.190841e+03
5.303300e+02,2.207717e+03
5.332227e+02,2.197418e+03
5.361154e+02,2.187655e+03
5.390081e+02,2.189556e+03
5.419008e+02,2.180474e+03
5.447935e+02,2.172169e+03
5.476862e+02,2.178726e+03
5.505789e+02,2.163766e+03
5.534716e+02,2.165708e+03
5.563643e+02,2.177039e+03
5.592570e+02,2.172845e+03
5.621497e+02,2.181813e+03
5.650424e+02,2.175010e+03
5.679351e+02,2.160830e+03
5.708278e+02,2.150676e+03
5.737205e+02,2.159852e+03
5.766132e+02,2.173366e+03
5.795059e+02,2.157133e+03
5.823986e+02,2.150749e+03
5.852913e+02,2.159837e+03
5.881840e+02,2.151376e+03
5.910767e+02,2.152319e+03
5.939694e+02,2.160377e+03
5.968621e+02,2.141482e+03
5.997548e+02,2.139253e+03
6.026475e+02,2.141513e+03
6.055402e+02,2.143784e+03
6.084329e+02,2.140947e+03
6.113256e+02,2.136386e+03
6.142183e+02,2.128369e+03
6.171110e+02,2.114818e+03
6.200037e+02,2.136995e+03
6.228964e+02,2.120706e+03
6.257891e+02,2.117040e+03
6.286818e+02,2.117540e+03
6.315745e+02,2.121779e+03
6.344672e+02,2.104377e+03
6.373599e+02,2.100500e+03
6.402526e+02,2.106392e+03
6.431453e+02,2.109431e+03
6.460380e+02,2.098719e+03
6.489307e+02,2.103622e+03
6.518234e+02,2.100457e+03
6.547161e+02,2.102454e+03
6.576088e+02,2.080911e+03
6.605015e+02,2.087292e+03
6.633942e+02,2.088395e+03
6.662869e+02,2.072565e+03
6.691796e+02,2.080406e+03
6.720723e+02,2.067427e+03
6.749650e+02,2.070663e+03
6.778577e+02,2.065624e+03
6.807504e+02,2.061006e+03
6.836431e+02,2.065936e+03
6.865358e+02,2.067056e+03
6.894285e+02,2.060362e+03
6.923212e+02,2.051888e+03
6.952139e+02,2.060247e+03
6.981066e+02,2.053876e+03
7.009993e+02,2.046032e+03
7.038920e+02,2.046935e+03
7.067847e+02,2.050009e+03
7.096774e+02,2.045510e+03
7.125701e+02,2.045850e+03
7.154628e+02,2.039877e+03
7.183555e+02,2.030736e+03
7.212482e+02,2.023536e+03
7.241409e+02,2.021760e+03
7.270336e+02,2.011781e+03
7.299263e+02,2.016529e+03
7.328190e+02,2.012478e+03
7.357117e+02,2.013229e+03
7.386044e+02,2.004275e+03
7.414971e+02,2.005819e+03
7.443898e+02,1.999577e+03
7.472825e+02,2.016750e+03
7.501752e+02,1.997091e+03
7.530679e+02,1.986677e+03
7.559606e+02,1.991740e+03
7.588533e+02,2.000157e+03
7.617460e+02,1.979889e+03
7.646387e+02,1.977598e+03
7.675314e+02,1.984131e+03
7.704241e+02,1.978514e+03
7.733168e+02,1.976988e+03
7.762095e+02,1.978779e+03
7.791022e+02,1.968036e+03
7.819949e+02,1.965755e+03
7.848876e+02,1.953866e+03
7.877803e+02,1.963145e+03
7.906730e+02,1.960241e+03
7.935657e+02,1.949654e+03
7.964584e+02,1.957578e+03
7.993511e+02,1.942537e+03
8.022438e+02,1.945630e+03
8.051365e+02,1.946882e+03
8.080292e+02,1.953867e+03
8.109219e+02,1.939279e+03
8.138146e+02,1.938634e+03
8.167073e+02,1.938863e+03
8.196000e+02,1.927239e+03
8.224927e+02,1.923029e+03
8.253854e+02,1.931228e+03
8.282781e+02,1.922140e+03
8.311708e+02,1.917419e+03
8.340635e+02,1.927706e+03
8.369562e+02,1.914238e+03
8.398489e+02,1.920406e+03
8.427416e+02,1.913590e+03
8.456343e+02,1.897791e+03
8.485270e+02,1.898246e+03
8.514197e+02,1.893142e+03
8.543124e+02,1.899174e+03
8.572051e+02,1.894700e+03
8.600978e+02,1.891856e+03
8.629905e+02,1.894653e+03
8.658832e+02,1.889518e+03
8.687759e+02,1.892279e+03
8.716686e+02,1.888076e+03
8.745613e+02,1.866854e+03
8.774540e+02,1.874732e+03
8.803467e+02,1.881345e+03
8.832394e+02,1.879993e+03
8.861321e+02,1.887454e+03
8.890248e+02,1.864457e+03
8.919175e+02,1.860598e+03
8.948102e+02,1.874842e+03
8.977029e+02,1.866008e+03
9.005956e+02,1.855475e+03
9.034883e+02,1.858848e+03
9.063810e+02,1.841062e+03
9.092737e+02,1.836716e+03
9.121664e+02,1.852724e+03
9.150591e+02,1.850964e+03
9.179518e+02,1.829747e+03
9.208445e+02,1.844487e+03
9.237372e+02,1.833820e+03
9.266299e+02,1.815748e+03
9.295226e+02,1.822074e+03
9.324153e+02,1.805258e+03
9.353080e+02,1.814737e+03
9.382007e+02,1.807162e+03
9.410934e+02,1.801811e+03
9.439861e+02,1.805062e+03
9.468788e+02,1.815254e+03
9.497715e+02,1.804022e+03
9.526642e+02,1.800396e+03
9.555569e+02,1.790163e+03
9.584496e+02,1.793186e+03
9.613423e+02,1.787232e+03
9.642350e+02,1.795916e+03
9.671277e+02,1.796470e+03
9.700204e+02,1.793636e+03
9.729131e+02,1.777648e+03
9.758058e+02,1.775494e+03
9.786985e+02,1.781036e+03
9.815912e+02,1.767066e+03
9.844839e+02,1.775789e+03
9.873766e+02,1.765051e+03
9.902693e+02,1.775289e+03
9.931620e+02,1.773704e+03
9.960547e+02,1.769342e+03
9.989474e+02,1.761198e+03
1.001840e+03,1.746482e+03
1.004733e+03,1.762346e+03
1.007626e+03,1.769565e+03
1.010518e+03,1.746542e+03
1.013411e+03,1.740292e+03
1.016304e+03,1.731412e+03
1.019196e+03,1.734057e+03
1.022089e+03,1.748451e+03
1.024982e+03,1.746458e+03
1.027875e+03,1.720680e+03
1.030767e+03,1.738457e+03
1.033660e+03,1.731306e+03
1.036552e+03,1.729402e+03
1.039445e+03,1.726600e+03
1.042338e+03,1.711836e+03
1.045231e+03,1.711636e+03
1.048123e+03,1.724829e+03
1.051016e+03,1.698566e+03
1.053909e+03,1.719090e+03
1.056802e+03,1.718732e+03
1.059694e+03,1.713284e+03
1.062587e+03,1.709653e+03
1.065479e+03,1.710311e+03
1.068372e+03,1.699769e+03
1.071265e+03,1.698763e+03
1.074158e+03,1.704605e+03
1.077050e+03,1.702247e+03
1.079943e+03,1.702185e+03
1.082836e+03,1.705426e+03
1.085729e+03,1.707392e+03
1.088621e+03,1.720973e+03
1.091514e+03,1.728309e+03
1.094406e+03,1.728196e+03
1.097299e+03,1.718843e+03
1.100192e+03,1.708593e+03
1.103085e+03,1.698317e+03
1.105977e+03,1.697355e+03
1.108870e+03,1.682831e+03
1.111763e+03,1.695948e+03
1.114656e+03,1.692406e+03
1.117548e+03,1.683708e+03
1.120441e+03,1.702861e+03
1.123334e+03,1.685890e+03
1.126226e+03,1.668340e+03
1.129119e+03,1.670767e+03
1.132012e+03,1.670612e+03
1.134904e+03,1.655715e+03
1.137797e+03,1.650357e+03
1.140690e+03,1.653797e+03
1.143583e+03,1.660073e+03
1.146475e+03,1.654507e+03
1.149368e+03,1.655734e+03
1.152261e+03,1.651439e+03
1.155153e+03,1.636985e+03
1.158046e+03,1.631540e+03
1.160939e+03,1.642882e+03
1.163831e+03,1.642122e+03
1.166724e+03,1.640727e+03
1.169617e+03,1.620776e+03
1.172510e+03,1.622976e+03
1.175402e+03,1.624110e+03
1.178295e+03,1.619777e+03
1.181188e+03,1.624775e+03
1.184080e+03,1.614905e+03
1.186973e+03,1.607619e+03
1.189866e+03,1.614753e+03
1.192758e+03,1.602688e+03
1.195651e+03,1.620041e+03
1.198544e+03,1.615078e+03
1.201437e+03,1.604920e+03
1.204329e+03,1.595472e+03
1.207222e+03,1.591748e+03
1.210115e+03,1.615380e+03
1.213007e+03,1.617328e+03
1.215900e+03,1.599202e+03
1.218793e+03,1.596060e+03
1.221685e+03,1.599065e+03
1.224578e+03,1.604838e+03
1.227471e+03,1.594162e+03
1.230364e+03,1.591465e+03
1.233256e+03,1.580749e+03
1.236149e+03,1.584801e+03
1.239042e+03,1.582563e+03
1.241934e+03,1.587488e+03
1.244827e+03,1.579883e+03
1.247720e+03,1.573538e+03
1.250612e+03,1.575304e+03
1.253505e+03,1.567670e+03
1.256398e+03,1.570537e+03
1.259291e+03,1.574050e+03
1.262183e+03,1.566836e+03
1.265076e+03,1.563152e+03
1.267969e+03,1.565119e+03
1.270861e+03,1.564771e+03
1.273754e+03,1.561765e+03
1.276647e+03,1.569762e+03
1.279539e+03,1.575438e+03
1.282432e+03,1.575376e+03
1.285325e+03,1.565533e+03
1.288218e+03,1.563584e+03
1.291110e+03,1.563335e+03
1.294003e+03,1.558830e+03
1.296896e+03,1.561494e+03
1.299788e+03,1.558950e+03
1.302681e+03,1.537366e+03
1.305574e+03,1.543951e+03
1.308466e+03,1.544463e+03
1.311359e+03,1.546361e+03
1.314252e+03,1.537487e+03
1.317145e+03,1.534438e+03
1.320037e+03,1.550580e+03
1.322930e+03,1.550297e+03
1.325823e+03,1.536346e+03
1.328715e+03,1.544338e+03
1.331608e+03,1.539927e+03
1.334501e+03,1.541899e+03
1.337393e+03,1.536378e+03
1.340286e+03,1.522460e+03
1.343179e+03,1.526944e+03
1.346072e+03,1.531977e+03
1.348964e+03,1.520310e+03
1.351857e+03,1.528752e+03
1.354750e+03,1.528626e+03
1.357642e+03,1.516206e+03
1.360535e+03,1.514637e+03
1.363428e+03,1.514909e+03
1.366320e+03,1.533563e+03
1.369213e+03,1.521043e+03
1.372106e+03,1.510978e+03
1.374999e+03,1.504905e+03
1.377891e+03,1.513074e+03
1.380784e+03,1.518931e+03
1.383677e+03,1.519003e+03
1.386569e+03,1.508399e+03
1.389462e+03,1.502516e+03
1.392355e+03,1.479245e+03
1.395247e+03,1.496053e+03
1.398140e+03,1.493343e+03
1.401033e+03,1.497457e+03
1.403926e+03,1.493100e+03
1.406818e+03,1.503768e+03
1.409711e+03,1.487963e+03
1.412604e+03,1.496365e+03
1.415496e+03,1.493386e+03
1.418389e+03,1.469380e+03
1.421282e+03,1.484496e+03
1.424174e+03,1.470491e+03
1.427067e+03,1.475305e+03
1.429960e+03,1.468793e+03
1.432853e+03,1.465373e+03
1.435745e+03,1.446160e+03
1.438638e+03,1.460294e+03
1.441531e+03,1.452801e+03
1.444423e+03,1.448154e+03
1.447316e+03,1.456072e+03
1.450209e+03,1.442937e+03
1.453101e+03,1.440924e+03
1.455994e+03,1.449463e+03
1.458887e+03,1.444829e+03
1.461780e+03,1.451828e+03
1.464672e+03,1.450150e+03
1.467565e+03,1.443762e+03
1.470458e+03,1.442141e+03
1.473350e+03,1.436726e+03
1.476243e+03,1.441587e+03
1.479136e+03,1.435500e+03
1.482028e+03,1.430350e+03
1.484921e+03,1.420544e+03
1.487814e+03,1.421463e+03
1.490707e+03,1.428595e+03
1.493599e+03,1.418217e+03
1.496492e+03,1.416682e+03
1.499385e+03,1.405204e+03
1.502277e+03,1.415345e+03
1.505170e+03,1.418717e+03
1.508063e+03,1.409783e+03
1.510955e+03,1.415199e+03
1.513848e+03,1.408095e+03
1.516741e+03,1.403256e+03
1.519634e+03,1.411559e+03
1.522526e+03,1.401018e+03
1.525419e+03,1.399979e+03
1.528312e+03,1.401657e+03
1.531204e+03,1.402188e+03
1.534097e+03,1.386540e+03
1.536990e+03,1.389876e+03
1.539882e+03,1.386036e+03
1.542775e+03,1.383418e+03
1.545668e+03,1.383484e+03
1.548561e+03,1.381743e+03
1.551453e+03,1.404569e+03
1.554346e+03,1.381638e+03
1.557239e+03,1.392372e+03
1.560131e+03,1.391086e+03
1.563024e+03,1.379031e+03
1.565917e+03,1.377399e+03
1.568809e+03,1.380467e+03
1.571702e+03,1.377483e+03
1.574595e+03,1.368506e+03
1.577488e+03,1.372248e+03
1.580380e+03,1.380870e+03
1.583273e+03,1.370201e+03
1.586166e+03,1.370151e+03
1.589058e+03,1.362633e+03
1.591951e+03,1.357818e+03
1.594844e+03,1.371693e+03
1.597736e+03,1.358357e+03
1.600629e+03,1.365934e+03
1.603522e+03,1.352862e+03
1.606415e+03,1.355438e+03
1.609307e+03,1.355387e+03
1.612200e+03,1.354233e+03
1.615093e+03,1.355803e+03
1.617985e+03,1.355853e+03
1.620878e+03,1.344609e+03
1.623771e+03,1.338742e+03
1.626663e+03,1.332746e+03
1.629556e+03,1.333582e+03
1.632449e+03,1.332245e+03
1.635342e+03,1.326435e+03
1.638234e+03,1.320764e+03
1.641127e+03,1.331569e+03
1.644020e+03,1.321776e+03
1.646912e+03,1.324911e+03
1.649805e+03,1.307304e+03
1.652698e+03,1.305182e+03
1.655590e+03,1.312916e+03
1.658483e+03,1.291863e+03
1.661376e+03,1.302912e+03
1.664269e+03,1.302537e+03
1.667161e+03,1.301842e+03
1.670054e+03,1.294218e+03
1.672947e+03,1.288399e+03
1.675839e+03,1.290885e+03
1.678732e+03,1.284221e+03
1.681625e+03,1.293109e+03
1.684517e+03,1.275762e+03
1.687410e+03,1.285885e+03
1.690303e+03,1.281019e+03
1.693196e+03,1.283134e+03
1.696088e+03,1.276552e+03
1.698981e+03,1.269463e+03
1.701874e+03,1.284559e+03
1.704766e+03,1.267212e+03
1.707659e+03,1.261875e+03
1.710552e+03,1.273510e+03
1.713444e+03,1.246133e+03
1.716337e+03,1.268960e+03
1.719230e+03,1.249689e+03
1.722123e+03,1.258362e+03
1.725015e+03,1.250867e+03
1.727908e+03,1.254588e+03
1.730801e+03,1.243791e+03
1.733693e+03,1.256878e+03
1.736586e+03,1.248528e+03
1.739479e+03,1.237897e+03
1.742371e+03,1.240446e+03
1.745264e+03,1.232868e+03
1.748157e+03,1.239113e+03
1.751050e+03,1.232242e+03
1.753942e+03,1.249287e+03
1.756835e+03,1.239198e+03
1.759728e+03,1.225295e+03
1.762620e+03,1.221964e+03
1.765513e+03,1.217096e+03
1.768406e+03,1.225414e+03
1.771298e+03,1.219872e+03
1.774191e+03,1.205168e+03
1.777084e+03,1.215111e+03
1.779977e+03,1.206964e+03
1.782869e+03,1.215646e+03
1.785762e+03,1.200181e+03
1.788655e+03,1.205842e+03
1.791547e+03,1.195954e+03
1.794440e+03,1.194605e+03
1.797333e+03,1.190346e+03
1.800225e+03,1.194791e+03
1.803118e+03,1.195558e+03
1.806011e+03,1.182442e+03
1.808904e+03,1.183577e+03
1.811796e+03,1.197265e+03
1.814689e+03,1.189565e+03
1.817582e+03,1.179463e+03
1.820474e+03,1.180928e+03
1.823367e+03,1.168859e+03
1.826260e+03,1.177070e+03
1.829152e+03,1.171760e+03
1.832045e+03,1.168210e+03
1.834938e+03,1.170231e+03
1.837831e+03,1.167757e+03
1.840723e+03,1.179928e+03
1.843616e+03,1.162723e+03
1.846509e+03,1.165994e+03
1.849401e+03,1.156393e+03
1.852294e+03,1.157481e+03
1.855187e+03,1.136061e+03
1.858079e+03,1.152008e+03
1.860972e+03,1.145149e+03
1.863865e+03,1.140873e+03
1.866758e+03,1.129310e+03
1.869650e+03,1.144009e+03
1.872543e+03,1.135670e+03
1.875436e+03,1.138268e+03
1.878328e+03,1.126713e+03
1.881221e+03,1.138188e+03
1.884114e+03,1.117046e+03
1.887006e+03,1.115787e+03
1.889899e+03,1.128750e+03
1.892792e+03,1.127043e+03
1.895685e+03,1.106824e+03
1.898577e+03,1.120597e+03
1.901470e+03,1.112743e+03
1.904363e+03,1.103796e+03
1.907255e+03,1.104964e+03
1.910148e+03,1.105954e+03
1.913041e+03,1.106760e+03
1.915933e+03,1.096469e+03
1.918826e+03,1.094529e+03
1.921719e+03,1.103371e+03
1.924612e+03,1.097768e+03
1.927504e+03,1.096003e+03
1.930397e+03,1.103958e+03
1.933290e+03,1.082057e+03
1.936182e+03,1.090206e+03
1.939075e+03,1.069297e+03
1.941968e+03,1.074436e+03
1.944860e+03,1.062486e+03
1.947753e+03,1.062438e+03
1.950646e+03,1.067107e+03
1.953539e+03,1.075696e+03
1.956431e+03,1.065384e+03
1.959324e+03,1.062522e+03
1.962217e+03,1.064034e+03
1.965109e+03,1.047318e+03
1.968002e+03,1.062111e+03
1.970895e+03,1.052791e+03
1.973787e+03,1.055558e+03
1.976680e+03,1.052002e+03
1.979573e+03,1.038167e+03
1.982466e+03,1.049175e+03
1.985358e+03,1.043424e+03
1.988251e+03,1.051107e+03
1.991144e+03,1.042854e+03
1.994036e+03,1.032707e+03
1.996929e+03,1.031337e+03
1.999822e+03,1.040746e+03
2.002714e+03,1.027281e+03
2.005607e+03,1.028961e+03
2.008500e+03,1.013572e+03
2.011393e+03,1.018357e+03
2.014285e+03,1.004345e+03
2.017178e+03,1.009679e+03
2.020071e+03,1.009164e+03
2.022963e+03,9.975161e+02
2.025856e+03,1.002576e+03
2.028749e+03,9.971672e+02
2.031641e+03,1.006212e+03
2.034534e+03,9.927191e+02
2.037427e+03,1.003908e+03
2.040320e+03,9.897912e+02
2.043212e+03,9.842650e+02
2.046105e+03,9.881417e+02
2.048998e+03,9.783104e+02
2.051890e+03,9.674523e+02
2.054783e+03,9.803156e+02
2.057676e+03,9.764559e+02
2.060568e+03,9.699983e+02
2.063461e+03,9.802878e+02
2.066354e+03,9.650292e+02
2.069247e+03,9.664435e+02
2.072139e+03,9.668270e+02
2.075032e+03,9.513318e+02
2.077925e+03,9.694578e+02
2.080817e+03,9.587070e+02
2.083710e+03,9.311430e+02
2.086603e+03,9.491313e+02
2.089496e+03,9.481087e+02
2.092388e+03,9.435266e+02
2.095281e+03,9.407004e+02
2.098174e+03,9.391819e+02
2.101066e+03,9.355247e+02
2.103959e+03,9.341732e+02
2.106852e+03,9.359570e+02
2.109744e+03,9.263906e+02
2.112637e+03,9.307655e+02
2.115530e+03,9.159182e+02
2.118422e+03,9.107852e+02
2.121315e+03,9.197035e+02
2.124208e+03,9.130063e+02
2.127101e+03,9.156285e+02
2.129993e+03,9.154063e+02
2.132886e+03,9.095999e+02
2.135779e+03,9.328990e+02
2.138671e+03,9.165753e+02
2.141564e+03,9.104059e+02
2.144457e+03,9.133990e+02
2.147350e+03,8.947763e+02
2.150242e+03,9.020411e+02
2.153135e+03,9.001426e+02
2.156028e+03,8.948560e+02
2.158920e+03,8.783311e+02
2.161813e+03,9.035551e+02
2.164706e+03,8.945164e+02
2.167598e+03,8.868615e+02
2.170491e+03,8.857203e+02
2.173384e+03,8.796754e+02
2.176277e+03,8.789616e+02
2.179169e+03,8.784652e+02
2.182062e+03,8.748414e+02
2.184955e+03,8.709279e+02
2.187847e+03,8.730952e+02
2.190740e+03,8.787469e+02
2.193633e+03,8.629337e+02
2.196525e+03,8.669617e+02
2.199418e+03,8.554951e+02
2.202311e+03,8.554575e+02
2.205204e+03,8.515226e+02
2.208096e+03,8.605206e+02
2.210989e+03,8.468354e+02
2.213882e+03,8.410361e+02
2.216774e+03,8.418915e+02
2.219667e+03,8.555273e+02
2.222560e+03,8.419587e+02
2.225452e+03,8.349434e+02
2.228345e+03,8.344684e+02
2.231238e+03,8.312789e+02
2.234131e+03,8.352443e+02
2.237023e+03,8.435632e+02
2.239916e+03,8.277646e+02
2.242809e+03,8.180498e+02
2.245701e+03,8.194349e+02
2.248594e+03,8.164516e+02
2.251487e+03,8.248533e+02
2.254379e+03,8.207434e+02
2.257272e+03,8.106528e+02
2.260165e+03,8.167465e+02
2.263058e+03,8.082982e+02
2.265950e+03,8.074821e+02
2.268843e+03,8.062774e+02
2.271736e+03,7.911985e+02
2.274628e+03,8.092486e+02
2.277521e+03,8.003469e+02
2.280414e+03,7.928561e+02
2.283306e+03,7.997531e+02
2.286199e+03,7.864051e+02
2.289092e+03,7.918430e+02
2.291985e+03,7.967959e+02
2.294877e+03,7.807763e+02
2.297770e+03,7.970173e+02
2.300663e+03,7.804147e+02
2.303555e+03,7.862925e+02
2.306448e+03,7.812526e+02
2.309341e+03,7.829474e+02
2.312233e+03,7.717460e+02
2.315126e+03,7.734114e+02
2.318019e+03,7.712465e+02
2.320912e+03,7.639572e+02
2.323804e+03,7.590005e+02
2.326697e+03,7.604727e+02
2.329590e+03,7.653093e+02
2.332482e+03,7.552413e+02
2.335375e+03,7.571357e+02
2.338268e+03,7.600682e+02
2.341160e+03,7.496989e+02
2.344053e+03,7.467081e+02
2.346946e+03,7.468483e+02
2.349839e+03,7.475613e+02
2.352731e+03,7.463497e+02
2.355624e+03,7.527003e+02
2.358517e+03,7.449012e+02
2.361409e+03,7.531221e+02
2.364302e+03,7.367492e+02
2.367195e+03,7.437711e+02
2.370087e+03,7.288577e+02
2.372980e+03,7.396572e+02
2.375873e+03,7.372851e+02
2.378766e+03,7.274276e+02
2.381658e+03,7.261678e+02
2.384551e+03,7.150424e+02
2.387444e+03,7.306683e+02
2.390336e+03,7.184525e+02
2.393229e+03,7.185250e+02
2.396122e+03,7.090428e+02
2.399014e+03,7.146924e+02
2.401907e+03,7.236599e+02
2.404800e+03,7.166786e+02
2.407693e+03,7.227895e+02
2.410585e+03,7.187355e+02
2.413478e+03,7.049294e+02
2.416371e+03,7.024708e+02
2.419263e+03,7.001730e+02
2.422156e+03,7.099645e+02
2.425049e+03,7.020213e+02
2.427941e+03,7.046552e+02
2.430834e+03,6.982183e+02
2.433727e+03,6.970424e+02
2.436620e+03,6.982629e+02
2.439512e+03,6.916532e+02
2.442405e+03,6.889598e+02
2.445298e+03,6.905381e+02
2.448190e+03,6.926765e+02
2.451083e+03,6.774043e+02
2.453976e+03,6.885237e+02
2.456868e+03,6.769897e+02
2.459761e+03,6.805767e+02
2.462654e+03,6.729259e+02
2.465547e+03,6.834923e+02
2.468439e+03,6.778154e+02
2.471332e+03,6.656453e+02
2.474225e+03,6.707501e+02
2.477117e+03,6.695751e+02
2.480010e+03,6.731318e+02
2.482903e+03,6.652882e+02
2.485795e+03,6.674889e+02
2.488688e+03,6.797567e+02
2.491581e+03,6.652092e+02
2.494474e+03,6.629208e+02
2.497366e+03,6.607761e+02
2.500259e+03,6.503430e+02
2.503152e+03,6.562658e+02
2.506044e+03,6.517039e+02
2.508937e+03,6.483073e+02
2.511830e+03,6.505652e+02
2.514722e+03,6.539133e+02
2.517615e+03,6.547698e+02
2.520508e+03,6.462313e+02
2.523401e+03,6.536061e+02
2.526293e+03,6.445007e+02
2.529186e+03,6.412259e+02
2.532079e+03,6.482159e+02
2.534971e+03,6.587882e+02
2.537864e+03,6.368640e+02
2.540757e+03,6.353430e+02
2.543649e+03,6.397211e+02
2.546542e+03,6.604178e+02
2.549435e+03,6.412028e+02
2.552328e+03,6.412405e+02
2.555220e+03,6.444730e+02
2.558113e+03,6.441859e+02
2.561006e+03,6.242429e+02
2.563898e+03,6.326814e+02
2.566791e+03,6.364146e+02
2.569684e+03,6.283305e+02
2.572576e+03,6.298361e+02
2.575469e+03,6.420285e+02
2.578362e+03,6.301258e+02
2.581255e+03,6.287940e+02
2.584147e+03,6.102930e+02
2.587040e+03,6.225086e+02
2.589933e+03,6.096492e+02
2.592825e+03,6.174606e+02
2.595718e+03,6.108652e+02
2.598611e+03,6.056010e+02
2.601503e+03,6.293835e+02
2.604396e+03,6.005476e+02
2.607289e+03,6.156318e+02
2.610182e+03,6.060489e+02
2.613074e+03,6.010302e+02
2.615967e+03,6.070328e+02
2.618860e+03,5.937360e+02
2.621752e+03,5.870989e+02
2.624645e+03,6.029485e+02
2.627538e+03,5.959456e+02
2.630430e+03,5.962825e+02
2.633323e+03,5.954036e+02
2.636216e+03,5.975683e+02
2.639109e+03,6.087043e+02
2.642001e+03,5.826443e+02
2.644894e+03,5.926050e+02
2.647787e+03,5.906511e+02
2.650679e+03,5.937818e+02
2.653572e+03,5.827794e+02
2.656465e+03,5.988685e+02
2.659357e+03,5.863020e+02
2.662250e+03,5.844913e+02
2.665143e+03,5.884198e+02
2.668036e+03,5.852289e+02
2.670928e+03,5.973341e+02
2.673821e+03,5.874211e+02
2.676714e+03,5.730586e+02
2.679606e+03,5.819916e+02
2.682499e+03,5.837188e+02
2.685392e+03,5.708630e+02
2.688284e+03,5.764434e+02
2.691177e+03,5.853358e+02
2.694070e+03,5.679241e+02
2.696963e+03,5.669457e+02
2.699855e+03,5.883198e+02
2.702748e+03,5.711429e+02
2.705641e+03,5.680423e+02
2.708533e+03,5.674209e+02
2.711426e+03,5.568132e+02
2.714319e+03,5.644415e+02
2.717211e+03,5.792703e+02
2.720104e+03,5.720648e+02
2.722997e+03,5.658889e+02
2.725890e+03,5.733143e+02
2.728782e+03,5.636351e+02
2.731675e+03,5.464320e+02
2.734568e+03,5.672416e+02
2.737460e+03,5.619616e+02
2.740353e+03,5.726026e+02
2.743246e+03,5.510905e+02
2.746138e+03,5.543376e+02
2.749031e+03,5.604978e+02
2.751924e+03,5.565317e+02
2.754817e+03,5.522510e+02
2.757709e+03,5.562853e+02
2.760602e+03,5.484635e+02
2.763495e+03,5.498718e+02
2.766387e+03,5.490477e+02
2.769280e+03,5.489016e+02
2.772173e+03,5.582774e+02
2.775065e+03,5.436651e+02
2.777958e+03,5.441151e+02
2.780851e+03,5.439901e+02
2.783744e+03,5.408549e+02
2.786636e+03,5.514971e+02
2.789529e+03,5.506666e+02
2.792422e+03,5.566031e+02
2.795314e+03,5.367511e+02
2.798207e+03,5.390933e+02
2.801100e+03,5.404999e+02
2.803992e+03,5.413454e+02
2.806885e+03,5.303339e+02
2.809778e+03,5.426531e+02
2.812671e+03,5.371378e+02
2.815563e+03,5.337229e+02
2.818456e+03,5.387168e+02
2.821349e+03,5.323920e+02
2.824241e+03,5.261269e+02
2.827134e+03,5.396335e+02
2.830027e+03,5.284451e+02
2.832919e+03,5.304199e+02
2.835812e+03,5.427455e+02
2.838705e+03,5.269930e+02
2.841598e+03,5.342346e+02
2.844490e+03,5.469446e+02
2.847383e+03,5.249955e+02
2.850276e+03,5.522748e+02
2.853168e+03,5.521377e+02
2.856061e+03,5.345475e+02
2.858954e+03,5.472776e+02
2.861846e+03,5.458236e+02
2.864739e+03,5.271147e+02
2.867632e+03,5.515421e+02
2.870525e+03,5.524918e+02
2.873417e+03,5.506360e+02
2.876310e+03,5.484203e+02
2.879203e+03,5.232177e+02
2.882095e+03,5.417250e+02
2.884988e+03,5.701525e+02
2.887881e+03,5.636872e+02
2.890773e+03,5.504280e+02
2.893666e+03,5.506345e+02
2.896559e+03,5.608406e+02
2.899452e+03,5.616166e+02
2.902344e+03,5.677386e+02
2.905237e+03,5.571614e+02
2.908130e+03,5.251672e+02
2.911022e+03,5.394595e+02
2.913915e+03,5.176649e+02
2.916808e+03,5.313915e+02
2.919700e+03,5.326408e+02
2.922593e+03,5.175392e+02
2.925486e+03,5.442240e+02
2.928379e+03,5.060373e+02
2.931271e+03,5.241408e+02
2.934164e+03,5.316610e+02
2.937057e+03,5.192717e+02
2.939949e+03,5.190360e+02
2.942842e+03,5.318893e+02
2.945735e+03,5.225280e+02
2.948627e+03,5.125305e+02
2.951520e+03,5.282116e+02
2.954413e+03,5.066978e+02
2.957306e+03,5.742170e+02
2.960198e+03,5.307354e+02
2.963091e+03,5.417217e+02
2.965984e+03,5.209884e+02
2.968876e+03,5.178448e+02
2.971769e+03,5.146431e+02
2.974662e+03,5.094349e+02
2.977554e+03,4.897287e+02
2.980447e+03,4.978159e+02
2.983340e+03,5.095060e+02
2.986233e+03,4.839115e+02
2.989125e+03,4.766355e+02
2.992018e+03,4.945854e+02
2.994911e+03,4.844217e+02
2.997803e+03,5.031127e+02
3.000696e+03,4.855465e+02
3.003589e+03,4.861240e+02
3.006481e+03,4.980193e+02
3.009374e+03,4.799865e+02
3.012267e+03,5.090798e+02
3.015160e+03,4.739466e+02
3.018052e+03,4.592763e+02
3.020945e+03,4.834803e+02
3.023838e+03,4.503401e+02
3.026730e+03,4.901734e+02
3.029623e+03,4.725018e+02
3.032516e+03,4.738904e+02
3.035408e+03,4.601219e+02
3.038301e+03,4.728755e+02
3.041194e+03,4.698393e+02
3.044087e+03,4.705158e+02
3.046979e+03,4.616439e+02
3.049872e+03,4.860712e+02
3.052765e+03,4.458482e+02
3.055657e+03,4.792373e+02
3.058550e+03,4.941359e+02
3.061443e+03,4.801277e+02
3.064335e+03,4.741838e+02
3.067228e+03,4.833390e+02
3.070121e+03,4.826488e+02
3.073014e+03,4.765262e+02
3.075906e+03,4.847521e+02
3.078799e+03,4.895711e+02
3.081692e+03,4.630358e+02
3.084584e+03,4.655076e+02
3.087477e+03,4.741479e+02
3.090370e+03,4.780338e+02
3.093262e+03,4.417568e+02
3.096155e+03,4.797524e+02
3.099048e+03,4.776181e+02
3.101941e+03,4.706994e+02
3.104833e+03,4.538909e+02
3.107726e+03,4.491455e+02
3.110619e+03,4.646635e+02
3.113511e+03,4.352941e+02
3.116404e+03,4.796895e+02
3.119297e+03,4.694785e+02
3.122189e+03,4.493896e+02
3.125082e+03,4.844370e+02
3.127975e+03,4.894895e+02
3.130868e+03,5.065497e+02
3.133760e+03,4.951746e+02
3.136653e+03,4.606591e+02
3.139546e+03,4.757987e+02
3.142438e+03,4.678510e+02
3.145331e+03,4.076461e+02
3.148224e+03,4.771048e+02
3.151116e+03,4.885117e+02
3.154009e+03,4.978731e+02
3.156902e+03,4.564549e+02
3.159795e+03,4.483870e+02
3.162687e+03,4.519630e+02
3.165580e+03,4.627873e+02
3.168473e+03,4.901334e+02
3.171365e+03,4.694532e+02
3.174258e+03,4.690329e+02
3.177151e+03,4.632803e+02
3.180043e+03,4.793965e+02
3.182936e+03,4.770435e+02
3.185829e+03,4.787575e+02
3.188722e+03,4.690887e+02
3.191614e+03,4.991451e+02
3.194507e+03,4.673816e+02
3.197400e+03,4.639383e+02
3.200292e+03,4.964857e+02
3.203185e+03,0.000000e+00
3.206078e+03,0.000000e+00
3.208970e+03,0.000000e+00
3.211863e+03,0.000000e+00
3.214756e+03,0.000000e+00
3.217649e+03,0.000000e+00
3.220541e+03,0.000000e+00
3.223434e+03,0.000000e+00
3.226327e+03,0.000000e+00
3.229219e+03,0.000000e+00
3.232112e+03,0.000000e+00
3.235005e+03,0.000000e+00
3.237897e+03,0.000000e+00
3.240790e+03,0.000000e+00
3.243683e+03,0.000000e+00
3.246576e+03,0.000000e+00
3.249468e+03,0.000000e+00
3.252361e+03,0.000000e+00
3.255254e+03,0.000000e+00
3.258146e+03,0.000000e+00
3.261039e+03,0.000000e+00
3.263932e+03,0.000000e+00
3.266824e+03,0.000000e+00
3.269717e+03,0.000000e+00
3.272610e+03,0.000000e+00
3.275503e+03,0.000000e+00
3.278395e+03,0.000000e+00
3.281288e+03,0.000000e+00
3.284181e+03,0.000000e+00
3.287073e+03,0.000000e+00
3.289966e+03,0.000000e+00
3.292859e+03,0.000000e+00
3.295751e+03,0.000000e+00
3.298644e+03,0.000000e+00
3.301537e+03,0.000000e+00
3.304430e+03,0.000000e+00
3.307322e+03,0.000000e+00
3.310215e+03,0.000000e+00
3.313108e+03,0.000000e+00
3.316000e+03,0.000000e+00
3.318893e+03,0.000000e+00
3.321786e+03,0.000000e+00
3.324678e+03,0.000000e+00
3.327571e+03,0.000000e+00
3.330464e+03,0.000000e+00
3.333357e+03,0.000000e+00
3.336249e+03,0.000000e+00
3.339142e+03,0.000000e+00
3.342035e+03,0.000000e+00
3.344927e+03,0.000000e+00
3.347820e+03,0.000000e+00
3.350713e+03,0.000000e+00
3.353605e+03,0.000000e+00
3.356498e+03,0.000000e+00
3.359391e+03,0.000000e+00
3.362284e+03,0.000000e+00
3.365176e+03,0.000000e+00
3.368069e+03,0.000000e+00
3.370962e+03,0.000000e+00
3.373854e+03,0.000000e+00
3.376747e+03,0.000000e+00
3.379640e+03,0.000000e+00
3.382532e+03,0.000000e+00
3.385425e+03,0.000000e+00
3.388318e+03,0.000000e+00
3.391211e+03,0.000000e+00
3.394103e+03,0.000000e+00
3.396996e+03,0.000000e+00
3.399889e+03,0.000000e+00
3.402781e+03,0.000000e+00
3.405674e+03,0.000000e+00
3.408567e+03,0.000000e+00
3.411459e+03,0.000000e+00
3.414352e+03,0.000000e+00
3.417245e+03,0.000000e+00
3.420138e+03,0.000000e+00
3.423030e+03,0.000000e+00
3.425923e+03,0.000000e+00
3.428816e+03,0.000000e+00
3.431708e+03,0.000000e+00
3.434601e+03,0.000000e+00
3.437494e+03,0.000000e+00
3.440386e+03,0.000000e+00
3.443279e+03,0.000000e+00
3.446172e+03,0.000000e+00
3.449065e+03,0.000000e+00
3.451957e+03,0.000000e+00
3.454850e+03,0.000000e+00
3.457743e+03,0.000000e+00
3.460635e+03,0.000000e+00
3.463528e+03,0.000000e+00
3.466421e+03,0.000000e+00
3.469313e+03,0.000000e+00
3.472206e+03,0.000000e+00
3.475099e+03,0.000000e+00
3.477992e+03,0.000000e+00
3.480884e+03,0.000000e+00
3.483777e+03,0.000000e+00
3.486670e+03,0.000000e+00
3.489563e+03,0.000000e+00
3.492455e+03,0.000000e+00
3.495348e+03,0.000000e+00
3.498240e+03,0.000000e+00
3.500169e+03,0.000000e+00