File: RAMAN_data/20012023_r3/red fibre1.CSV
9.931763e+01,0.000000e+00
1.022103e+02,0.000000e+00
1.051030e+02,0.000000e+00
1.079957e+02,0.000000e+00
1.108884e+02,0.000000e+00
1.137811e+02,0.000000e+00
1.166738e+02,0.000000e+00
1.195665e+02,0.000000e+00
1.224592e+02,0.000000e+00
1.253519e+02,0.000000e+00
1.282446e+02,0.000000e+00
1.311373e+02,0.000000e+00
1.340300e+02,0.000000e+00
1.369227e+02,0.000000e+00
1.398154e+02,0.000000e+00
1.427081e+02,0.000000e+00
1.456008e+02,0.000000e+00
1.484935e+02,0.000000e+00
1.513862e+02,0.000000e+00
1.542789e+02,0.000000e+00
1.571716e+02,0.000000e+00
1.600643e+02,0.000000e+00
1.629570e+02,0.000000e+00
1.658497e+02,0.000000e+00
1.687424e+02,0.000000e+00
1.716351e+02,0.000000e+00
1.745278e+02,0.000000e+00
1.774205e+02,0.000000e+00
1.803132e+02,0.000000e+00
1.832059e+02,0.000000e+00
1.860986e+02,0.000000e+00
1.889913e+02,0.000000e+00
1.918840e+02,0.000000e+00
1.947767e+02,0.000000e+00
1.976694e+02,0.000000e+00
2.005621e+02,5.031123e+03
2.034548e+02,5.056644e+03
2.063475e+02,5.059182e+03
2.092402e+02,5.047885e+03
2.121329e+02,5.033118e+03
2.150256e+02,5.061903e+03
2.179183e+02,5.074204e+03
2.208110e+02,5.060737e+03
2.237037e+02,5.045979e+03
2.265964e+02,5.028435e+03
2.294892e+02,5.052531e+03
2.323819e+02,5.054253e+03
2.352746e+02,5.034476e+03
2.381673e+02,5.057413e+03
2.410600e+02,5.038986e+03
2.439527e+02,5.036937e+03
2.468454e+02,5.055239e+03
2.497381e+02,5.047766e+03
2.526308e+02,5.080955e+03
2.555235e+02,5.043351e+03
2.584161e+02,5.043101e+03
2.613088e+02,5.065916e+03
2.642015e+02,5.052742e+03
2.670942e+02,5.041009e+03
2.699869e+02,5.052028e+03
2.728796e+02,5.054358e+03
2.757723e+02,5.066810e+03
2.786650e+02,5.053775e+03
2.815577e+02,5.069136e+03
2.844504e+02,5.069099e+03
2.873431e+02,5.057724e+03
2.902358e+02,5.060361e+03
2.931285e+02,5.043523e+03
2.960212e+02,5.043167e+03
2.989139e+02,5.058545e+03
3.018066e+02,5.040858e+03
3.046993e+02,5.028596e+03
3.075920e+02,5.046937e+03
3.104847e+02,5.045625e+03
3.133774e+02,5.038976e+03
3.162701e+02,5.049467e+03
3.191628e+02,5.016621e+03
3.220555e+02,5.041275e+03
3.249482e+02,5.027501e+03
3.278409e+02,5.031530e+03
3.307336e+02,5.042919e+03
3.336263e+02,5.023498e+03
3.365190e+02,5.023595e+03
3.394117e+02,5.019769e+03
3.423044e+02,5.012298e+03
3.451971e+02,5.025492e+03
3.480898e+02,5.007877e+03
3.509825e+02,4.989538e+03
3.538752e+02,5.011906e+03
3.567680e+02,5.006981e+03
3.596607e+02,5.017850e+03
3.625534e+02,5.018287e+03
3.654461e+02,4.988539e+03
3.683388e+02,4.987873e+03
3.712315e+02,4.990864e+03
3.741242e+02,4.973802e+03
3.770169e+02,5.003655e+03
3.799096e+02,5.007803e+03
3.828023e+02,4.964092e+03
3.856950e+02,4.967502e+03
3.885877e+02,4.957563e+03
3.914804e+02,4.958997e+03
3.943731e+02,4.939595e+03
3.972658e+02,4.932711e+03
4.001585e+02,4.940657e+03
4.030512e+02,4.938403e+03
4.059439e+02,4.926149e+03
4.088366e+02,4.920014e+03
4.117293e+02,4.920436e+03
4.146220e+02,4.912380e+03
4.175147e+02,4.910693e+03
4.204074e+02,4.901774e+03
4.233001e+02,4.899437e+03
4.261928e+02,4.905079e+03
4.290855e+02,4.892169e+03
4.319782e+02,4.883068e+03
4.348709e+02,4.891301e+03
4.377636e+02,4.898484e+03
4.406563e+02,4.881833e+03
4.435490e+02,4.875561e+03
4.464417e+02,4.883808e+03
4.493344e+02,4.862810e+03
4.522271e+02,4.867003e+03
4.551198e+02,4.862683e+03
4.580125e+02,4.853033e+03
4.609052e+02,4.866201e+03
4.637979e+02,4.843331e+03
4.666906e+02,4.819526e+03
4.695833e+02,4.825386e+03
4.724760e+02,4.809866e+03
4.753687e+02,4.836841e+03
4.782614e+02,4.799263e+03
4.811541e+02,4.804583e+03
4.840468e+02,4.784068e+03
4.869395e+02,4.775098e+03
4.898322e+02,4.776694e+03
4.927249e+02,4.776019e+03
4.956176e+02,4.797829e+03
4.985103e+02,4.755899e+03
5.014030e+02,4.748808e+03
5.042957e+02,4.741307e+03
5.071884e+02,4.748476e+03
5.100811e+02,4.735411e+03
5.129738e+02,4.718095e+03
5.158665e+02,4.749688e+03
5.187592e+02,4.707342e+03
5.216519e+02,4.709695e+03
5.245446e+02,4.721495e+03
5.274373e+02,4.696212e+03
5.303300e+02,4.687767e+03
5.332227e+02,4.697410e+03
5.361154e+02,4.692544e+03
5.390081e+02,4.652281e+03
5.419008e+02,4.666474e+03
5.447935e+02,4.675627e+03
5.476862e+02,4.678930e+03
5.505789e+02,4.640640e+03
5.534716e+02,4.617471e+03
5.563643e+02,4.624359e+03
5.592570e+02,4.628606e+03
5.621497e+02,4.635290e+03
5.650424e+02,4.618853e+03
5.679351e+02,4.595021e+03
5.708278e+02,4.598335e+03
5.737205e+02,4.593882e+03
5.766132e+02,4.599080e+03
5.795059e+02,4.567179e+03
5.823986e+02,4.561279e+03
5.852913e+02,4.571745e+03
5.881840e+02,4.559995e+03
5.910767e+02,4.556013e+03
5.939694e+02,4.546817e+03
5.968621e+02,4.536919e+03
5.997548e+02,4.538472e+03
6.026475e+02,4.525364e+03
6.055402e+02,4.528951e+03
6.084329e+02,4.512936e+03
6.113256e+02,4.514696e+03
6.142183e+02,4.508669e+03
6.171110e+02,4.500559e+03
6.200037e+02,4.495034e+03
6.228964e+02,4.495413e+03
6.257891e+02,4.494079e+03
6.286818e+02,4.489816e+03
6.315745e+02,4.489790e+03
6.344672e+02,4.468638e+03
6.373599e+02,4.451531e+03
6.402526e+02,4.468004e+03
6.431453e+02,4.446226e+03
6.460380e+02,4.425017e+03
6.489307e+02,4.427766e+03
6.518234e+02,4.417672e+03
6.547161e+02,4.407099e+03
6.576088e+02,4.402942e+03
6.605015e+02,4.381650e+03
6.633942e+02,4.385852e+03
6.662869e+02,4.390148e+03
6.691796e+02,4.373708e+03
6.720723e+02,4.369928e+03
6.749650e+02,4.332676e+03
6.778577e+02,4.353265e+03
6.807504e+02,4.341468e+03
6.836431e+02,4.320696e+03
6.865358e+02,4.305198e+03
6.894285e+02,4.305975e+03
6.923212e+02,4.316168e+03
6.952139e+02,4.306408e+03
6.981066e+02,4.297383e+03
7.009993e+02,4.300110e+03
7.038920e+02,4.289832e+03
7.067847e+02,4.271495e+03
7.096774e+02,4.259506e+03
7.125701e+02,4.263847e+03
7.154628e+02,4.243337e+03
7.183555e+02,4.244807e+03
7.212482e+02,4.256094e+03
7.241409e+02,4.239529e+03
7.270336e+02,4.214715e+03
7.299263e+02,4.229101e+03
7.328190e+02,4.195830e+03
7.357117e+02,4.183815e+03
7.386044e+02,4.201407e+03
7.414971e+02,4.181684e+03
7.443898e+02,4.182368e+03
7.472825e+02,4.173821e+03
7.501752e+02,4.177102e+03
7.530679e+02,4.140193e+03
7.559606e+02,4.155609e+03
7.588533e+02,4.154833e+03
7.617460e+02,4.146963e+03
7.646387e+02,4.127765e+03
7.675314e+02,4.094586e+03
7.704241e+02,4.084293e+03
7.733168e+02,4.082338e+03
7.762095e+02,4.111634e+03
7.791022e+02,4.080092e+03
7.819949e+02,4.086025e+03
7.848876e+02,4.069775e+03
7.877803e+02,4.072599e+03
7.906730e+02,4.052816e+03
7.935657e+02,4.060375e+03
7.964584e+02,4.048572e+03
7.993511e+02,4.051242e+03
8.022438e+02,4.018199e+03
8.051365e+02,4.042094e+03
8.080292e+02,4.029697e+03
8.109219e+02,4.009538e+03
8.138146e+02,4.019658e+03
8.167073e+02,3.996647e+03
8.196000e+02,3.997938e+03
8.224927e+02,3.969293e+03
8.253854e+02,3.986511e+03
8.282781e+02,3.957222e+03
8.311708e+02,3.958976e+03
8.340635e+02,3.945777e+03
8.369562e+02,3.943687e+03
8.398489e+02,3.947657e+03
8.427416e+02,3.929424e+03
8.456343e+02,3.943015e+03
8.485270e+02,3.912359e+03
8.514197e+02,3.911196e+03
8.543124e+02,3.919450e+03
8.572051e+02,3.909999e+03
8.600978e+02,3.925359e+03
8.629905e+02,3.902460e+03
8.658832e+02,3.885674e+03
8.687759e+02,3.875231e+03
8.716686e+02,3.873036e+03
8.745613e+02,3.876912e+03
8.774540e+02,3.853884e+03
8.803467e+02,3.841016e+03
8.832394e+02,3.832072e+03
8.861321e+02,3.849584e+03
8.890248e+02,3.839407e+03
8.919175e+02,3.829982e+03
8.948102e+02,3.818973e+03
8.977029e+02,3.817798e+03
9.005956e+02,3.798344e+03
9.034883e+02,3.818387e+03
9.063810e+02,3.776661e+03
9.092737e+02,3.787318e+03
9.121664e+02,3.774747e+03
9.150591e+02,3.756279e+03
9.179518e+02,3.766742e+03
9.208445e+02,3.741866e+03
9.237372e+02,3.744113e+03
9.266299e+02,3.715161e+03
9.295226e+02,3.731499e+03
9.324153e+02,3.723126e+03
9.353080e+02,3.705512e+03
9.382007e+02,3.714921e+03
9.410934e+02,3.694516e+03
9.439861e+02,3.711472e+03
9.468788e+02,3.703119e+03
9.497715e+02,3.688043e+03
9.526642e+02,3.698567e+03
9.555569e+02,3.676680e+03
9.584496e+02,3.681260e+03
9.613423e+02,3.685022e+03
9.642350e+02,3.659816e+03
9.671277e+02,3.661666e+03
9.700204e+02,3.641252e+03
9.729131e+02,3.624680e+03
9.758058e+02,3.630117e+03
9.786985e+02,3.640485e+03
9.815912e+02,3.641164e+03
9.844839e+02,3.629252e+03
9.873766e+02,3.615848e+03
9.902693e+02,3.611559e+03
9.931620e+02,3.618838e+03
9.960547e+02,3.614975e+03
9.989474e+02,3.600383e+03
1.001840e+03,3.571712e+03
1.004733e+03,3.585111e+03
1.007626e+03,3.584471e+03
1.010518e+03,3.564849e+03
1.013411e+03,3.562989e+03
1.016304e+03,3.545522e+03
1.019196e+03,3.549897e+03
1.022089e+03,3.554839e+03
1.024982e+03,3.550081e+03
1.027875e+03,3.561026e+03
1.030767e+03,3.532245e+03
1.033660e+03,3.535771e+03
1.036552e+03,3.525983e+03
1.039445e+03,3.526438e+03
1.042338e+03,3.516638e+03
1.045231e+03,3.534548e+03
1.048123e+03,3.516400e+03
1.051016e+03,3.530489e+03
1.053909e+03,3.509042e+03
1.056802e+03,3.497962e+03
1.059694e+03,3.503897e+03
1.062587e+03,3.486495e+03
1.065479e+03,3.492282e+03
1.068372e+03,3.495307e+03
1.071265e+03,3.480292e+03
1.074158e+03,3.476940e+03
1.077050e+03,3.462205e+03
1.079943e+03,3.463697e+03
1.082836e+03,3.485668e+03
1.085729e+03,3.473641e+03
1.088621e+03,3.498171e+03
1.091514e+03,3.490029e+03
1.094406e+03,3.474457e+03
1.097299e+03,3.477699e+03
1.100192e+03,3.439485e+03
1.103085e+03,3.464136e+03
1.105977e+03,3.440242e+03
1.108870e+03,3.428641e+03
1.111763e+03,3.440942e+03
1.114656e+03,3.450314e+03
1.117548e+03,3.444853e+03
1.120441e+03,3.447203e+03
1.123334e+03,3.425020e+03
1.126226e+03,3.424267e+03
1.129119e+03,3.401118e+03
1.132012e+03,3.403696e+03
1.134904e+03,3.398923e+03
1.137797e+03,3.382873e+03
1.140690e+03,3.406507e+03
1.143583e+03,3.410712e+03
1.146475e+03,3.404524e+03
1.149368e+03,3.402089e+03
1.152261e+03,3.396537e+03
1.155153e+03,3.384289e+03
1.158046e+03,3.376016e+03
1.160939e+03,3.389018e+03
1.163831e+03,3.381531e+03
1.166724e+03,3.353566e+03
1.169617e+03,3.362100e+03
1.172510e+03,3.347129e+03
1.175402e+03,3.342243e+03
1.178295e+03,3.342044e+03
1.181188e+03,3.353224e+03
1.184080e+03,3.352159e+03
1.186973e+03,3.327740e+03
1.189866e+03,3.339045e+03
1.192758e+03,3.327560e+03
1.195651e+03,3.338586e+03
1.198544e+03,3.335548e+03
1.201437e+03,3.328597e+03
1.204329e+03,3.304466e+03
1.207222e+03,3.305448e+03
1.210115e+03,3.325988e+03
1.213007e+03,3.299616e+03
1.215900e+03,3.316086e+03
1.218793e+03,3.287948e+03
1.221685e+03,3.286249e+03
1.224578e+03,3.303450e+03
1.227471e+03,3.301344e+03
1.230364e+03,3.299467e+03
1.233256e+03,3.269620e+03
1.236149e+03,3.273004e+03
1.239042e+03,3.290802e+03
1.241934e+03,3.282411e+03
1.244827e+03,3.297943e+03
1.247720e+03,3.270211e+03
1.250612e+03,3.268137e+03
1.253505e+03,3.262667e+03
1.256398e+03,3.280677e+03
1.259291e+03,3.264874e+03
1.262183e+03,3.270122e+03
1.265076e+03,3.271714e+03
1.267969e+03,3.261363e+03
1.270861e+03,3.273403e+03
1.273754e+03,3.279269e+03
1.276647e+03,3.289422e+03
1.279539e+03,3.275530e+03
1.282432e+03,3.256659e+03
1.285325e+03,3.262054e+03
1.288218e+03,3.268578e+03
1.291110e+03,3.256765e+03
1.294003e+03,3.245023e+03
1.296896e+03,3.229772e+03
1.299788e+03,3.251450e+03
1.302681e+03,3.230832e+03
1.305574e+03,3.230976e+03
1.308466e+03,3.224568e+03
1.311359e+03,3.217829e+03
1.314252e+03,3.225769e+03
1.317145e+03,3.218265e+03
1.320037e+03,3.230341e+03
1.322930e+03,3.233869e+03
1.325823e+03,3.214356e+03
1.328715e+03,3.210144e+03
1.331608e+03,3.211438e+03
1.334501e+03,3.210445e+03
1.337393e+03,3.218353e+03
1.340286e+03,3.212074e+03
1.343179e+03,3.208123e+03
1.346072e+03,3.210402e+03
1.348964e+03,3.189060e+03
1.351857e+03,3.198089e+03
1.354750e+03,3.217463e+03
1.357642e+03,3.187463e+03
1.360535e+03,3.193617e+03
1.363428e+03,3.191765e+03
1.366320e+03,3.185983e+03
1.369213e+03,3.189035e+03
1.372106e+03,3.195840e+03
1.374999e+03,3.159265e+03
1.377891e+03,3.179319e+03
1.380784e+03,3.165098e+03
1.383677e+03,3.184508e+03
1.386569e+03,3.160732e+03
1.389462e+03,3.150243e+03
1.392355e+03,3.141313e+03
1.395247e+03,3.143603e+03
1.398140e+03,3.138572e+03
1.401033e+03,3.122331e+03
1.403926e+03,3.117755e+03
1.406818e+03,3.106124e+03
1.409711e+03,3.124395e+03
1.412604e+03,3.119119e+03
1.415496e+03,3.131227e+03
1.418389e+03,3.110944e+03
1.421282e+03,3.111303e+03
1.424174e+03,3.103650e+03
1.427067e+03,3.106197e+03
1.429960e+03,3.093142e+03
1.432853e+03,3.083095e+03
1.435745e+03,3.078201e+03
1.438638e+03,3.073784e+03
1.441531e+03,3.081555e+03
1.444423e+03,3.076341e+03
1.447316e+03,3.064287e+03
1.450209e+03,3.053850e+03
1.453101e+03,3.052426e+03
1.455994e+03,3.065172e+03
1.458887e+03,3.061236e+03
1.461780e+03,3.063079e+03
1.464672e+03,3.054331e+03
1.467565e+03,3.037078e+03
1.470458e+03,3.041747e+03
1.473350e+03,3.035426e+03
1.476243e+03,3.046484e+03
1.479136e+03,3.009200e+03
1.482028e+03,3.017940e+03
1.484921e+03,3.013375e+03
1.487814e+03,3.010780e+03
1.490707e+03,3.033415e+03
1.493599e+03,3.007537e+03
1.496492e+03,3.011728e+03
1.499385e+03,2.999211e+03
1.502277e+03,3.015953e+03
1.505170e+03,2.995982e+03
1.508063e+03,2.994398e+03
1.510955e+03,3.000747e+03
1.513848e+03,2.983324e+03
1.516741e+03,2.981110e+03
1.519634e+03,2.978183e+03
1.522526e+03,2.975436e+03
1.525419e+03,2.973793e+03
1.528312e+03,2.951063e+03
1.531204e+03,2.948451e+03
1.534097e+03,2.969035e+03
1.536990e+03,2.951352e+03
1.539882e+03,2.953039e+03
1.542775e+03,2.948018e+03
1.545668e+03,2.942722e+03
1.548561e+03,2.945064e+03
1.551453e+03,2.930813e+03
1.554346e+03,2.935224e+03
1.557239e+03,2.920670e+03
1.560131e+03,2.919635e+03
1.563024e+03,2.904299e+03
1.565917e+03,2.903387e+03
1.568809e+03,2.915336e+03
1.571702e+03,2.917188e+03
1.574595e+03,2.905420e+03
1.577488e+03,2.890383e+03
1.580380e+03,2.892886e+03
1.583273e+03,2.908039e+03
1.586166e+03,2.890795e+03
1.589058e+03,2.891398e+03
1.591951e+03,2.886317e+03
1.594844e+03,2.879313e+03
1.597736e+03,2.858722e+03
1.600629e+03,2.866586e+03
1.603522e+03,2.879758e+03
1.606415e+03,2.886276e+03
1.609307e+03,2.892697e+03
1.612200e+03,2.914911e+03
1.615093e+03,2.913170e+03
1.617985e+03,2.870377e+03
1.620878e+03,2.853082e+03
1.623771e+03,2.819660e+03
1.626663e+03,2.816814e+03
1.629556e+03,2.819163e+03
1.632449e+03,2.809063e+03
1.635342e+03,2.775149e+03
1.638234e+03,2.798918e+03
1.641127e+03,2.790127e+03
1.644020e+03,2.804327e+03
1.646912e+03,2.776915e+03
1.649805e+03,2.752470e+03
1.652698e+03,2.779207e+03
1.655590e+03,2.772608e+03
1.658483e+03,2.760340e+03
1.661376e+03,2.757428e+03
1.664269e+03,2.756022e+03
1.667161e+03,2.731772e+03
1.670054e+03,2.741926e+03
1.672947e+03,2.730853e+03
1.675839e+03,2.733569e+03
1.678732e+03,2.721699e+03
1.681625e+03,2.707333e+03
1.684517e+03,2.713909e+03
1.687410e+03,2.705692e+03
1.690303e+03,2.712365e+03
1.693196e+03,2.702180e+03
1.696088e+03,2.691191e+03
1.698981e+03,2.677554e+03
1.701874e+03,2.694583e+03
1.704766e+03,2.693406e+03
1.707659e+03,2.650730e+03
1.710552e+03,2.677631e+03
1.713444e+03,2.682222e+03
1.716337e+03,2.663680e+03
1.719230e+03,2.664640e+03
1.722123e+03,2.667283e+03
1.725015e+03,2.652550e+03
1.727908e+03,2.668837e+03
1.730801e+03,2.656366e+03
1.733693e+03,2.642671e+03
1.736586e+03,2.618687e+03
1.739479e+03,2.615278e+03
1.742371e+03,2.603132e+03
1.745264e+03,2.591589e+03
1.748157e+03,2.611138e+03
1.751050e+03,2.608868e+03
1.753942e+03,2.597194e+03
1.756835e+03,2.583725e+03
1.759728e+03,2.582056e+03
1.762620e+03,2.561083e+03
1.765513e+03,2.573445e+03
1.768406e+03,2.561136e+03
1.771298e+03,2.554708e+03
1.774191e+03,2.538536e+03
1.777084e+03,2.521421e+03
1.779977e+03,2.531554e+03
1.782869e+03,2.544636e+03
1.785762e+03,2.511512e+03
1.788655e+03,2.512563e+03
1.791547e+03,2.511341e+03
1.794440e+03,2.512206e+03
1.797333e+03,2.508495e+03
1.800225e+03,2.511208e+03
1.803118e+03,2.514341e+03
1.806011e+03,2.481278e+03
1.808904e+03,2.488269e+03
1.811796e+03,2.480933e+03
1.814689e+03,2.481218e+03
1.817582e+03,2.449813e+03
1.820474e+03,2.448360e+03
1.823367e+03,2.438923e+03
1.826260e+03,2.424924e+03
1.829152e+03,2.441411e+03
1.832045e+03,2.411698e+03
1.834938e+03,2.430719e+03
1.837831e+03,2.407979e+03
1.840723e+03,2.420242e+03
1.843616e+03,2.419838e+03
1.846509e+03,2.404408e+03
1.849401e+03,2.387628e+03
1.852294e+03,2.389734e+03
1.855187e+03,2.382188e+03
1.858079e+03,2.389695e+03
1.860972e+03,2.388370e+03
1.863865e+03,2.369033e+03
1.866758e+03,2.361478e+03
1.869650e+03,2.336554e+03
1.872543e+03,2.346368e+03
1.875436e+03,2.359789e+03
1.878328e+03,2.349915e+03
1.881221e+03,2.342361e+03
1.884114e+03,2.328951e+03
1.887006e+03,2.309425e+03
1.889899e+03,2.317635e+03
1.892792e+03,2.313033e+03
1.895685e+03,2.294707e+03
1.898577e+03,2.301216e+03
1.901470e+03,2.288859e+03
1.904363e+03,2.285941e+03
1.907255e+03,2.274248e+03
1.910148e+03,2.280543e+03
1.913041e+03,2.258476e+03
1.915933e+03,2.262240e+03
1.918826e+03,2.237772e+03
1.921719e+03,2.255469e+03
1.924612e+03,2.246127e+03
1.927504e+03,2.241884e+03
1.930397e+03,2.236255e+03
1.933290e+03,2.236027e+03
1.936182e+03,2.222792e+03
1.939075e+03,2.193488e+03
1.941968e+03,2.230101e+03
1.944860e+03,2.202121e+03
1.947753e+03,2.196929e+03
1.950646e+03,2.189126e+03
1.953539e+03,2.185344e+03
1.956431e+03,2.174102e+03
1.959324e+03,2.180421e+03
1.962217e+03,2.169265e+03
1.965109e+03,2.154880e+03
1.968002e+03,2.177700e+03
1.970895e+03,2.165148e+03
1.973787e+03,2.145958e+03
1.976680e+03,2.142594e+03
1.979573e+03,2.112294e+03
1.982466e+03,2.114427e+03
1.985358e+03,2.115336e+03
1.988251e+03,2.121763e+03
1.991144e+03,2.109498e+03
1.994036e+03,2.097711e+03
1.996929e+03,2.105528e+03
1.999822e+03,2.084912e+03
2.002714e+03,2.083261e+03
2.005607e+03,2.101241e+03
2.008500e+03,2.077188e+03
2.011393e+03,2.062749e+03
2.014285e+03,2.061854e+03
2.017178e+03,2.077146e+03
2.020071e+03,2.064291e+03
2.022963e+03,2.054809e+03
2.025856e+03,2.057224e+03
2.028749e+03,2.023060e+03
2.031641e+03,2.041048e+03
2.034534e+03,2.004404e+03
2.037427e+03,2.041119e+03
2.040320e+03,2.014201e+03
2.043212e+03,2.020776e+03
2.046105e+03,2.018462e+03
2.048998e+03,2.006306e+03
2.051890e+03,1.982461e+03
2.054783e+03,1.994969e+03
2.057676e+03,1.981496e+03
2.060568e+03,1.972913e+03
2.063461e+03,1.963360e+03
2.066354e+03,1.944215e+03
2.069247e+03,1.964779e+03
2.072139e+03,1.942602e+03
2.075032e+03,1.930159e+03
2.077925e+03,1.937963e+03
2.080817e+03,1.939634e+03
2.083710e+03,1.925192e+03
2.086603e+03,1.907770e+03
2.089496e+03,1.915025e+03
2.092388e+03,1.914815e+03
2.095281e+03,1.916274e+03
2.098174e+03,1.903136e+03
2.101066e+03,1.881604e+03
2.103959e+03,1.875687e+03
2.106852e+03,1.861635e+03
2.109744e+03,1.874208e+03
2.112637e+03,1.859668e+03
2.115530e+03,1.860251e+03
2.118422e+03,1.844456e+03
2.121315e+03,1.858782e+03
2.124208e+03,1.865077e+03
2.127101e+03,1.843234e+03
2.129993e+03,1.835867e+03
2.132886e+03,1.833492e+03
2.135779e+03,1.834963e+03
2.138671e+03,1.828095e+03
2.141564e+03,1.828009e+03
2.144457e+03,1.824377e+03
2.147350e+03,1.815080e+03
2.150242e+03,1.796273e+03
2.153135e+03,1.806916e+03
2.156028e+03,1.789762e+03
2.158920e+03,1.779376e+03
2.161813e+03,1.767465e+03
2.164706e+03,1.774493e+03
2.167598e+03,1.768287e+03
2.170491e+03,1.761217e+03
2.173384e+03,1.763555e+03
2.176277e+03,1.743479e+03
2.179169e+03,1.751708e+03
2.182062e+03,1.754592e+03
2.184955e+03,1.730069e+03
2.187847e+03,1.746069e+03
2.190740e+03,1.729678e+03
2.193633e+03,1.718287e+03
2.196525e+03,1.719615e+03
2.199418e+03,1.720034e+03
2.202311e+03,1.709822e+03
2.205204e+03,1.730207e+03
2.208096e+03,1.699943e+03
2.210989e+03,1.706391e+03
2.213882e+03,1.682911e+03
2.216774e+03,1.687595e+03
2.219667e+03,1.691361e+03
2.222560e+03,1.674572e+03
2.225452e+03,1.669071e+03
2.228345e+03,1.658681e+03
2.231238e+03,1.662717e+03
2.234131e+03,1.650896e+03
2.237023e+03,1.649495e+03
2.239916e+03,1.668112e+03
2.242809e+03,1.638741e+03
2.245701e+03,1.650801e+03
2.248594e+03,1.634488e+03
2.251487e+03,1.634393e+03
2.254379e+03,1.611701e+03
2.257272e+03,1.623933e+03
2.260165e+03,1.612198e+03
2.263058e+03,1.624805e+03
2.265950e+03,1.603192e+03
2.268843e+03,1.573311e+03
2.271736e+03,1.597720e+03
2.274628e+03,1.587914e+03
2.277521e+03,1.594176e+03
2.280414e+03,1.589728e+03
2.283306e+03,1.582299e+03
2.286199e+03,1.566547e+03
2.289092e+03,1.537374e+03
2.291985e+03,1.566372e+03
2.294877e+03,1.555949e+03
2.297770e+03,1.576958e+03
2.300663e+03,1.548009e+03
2.303555e+03,1.554664e+03
2.306448e+03,1.554671e+03
2.309341e+03,1.536472e+03
2.312233e+03,1.527074e+03
2.315126e+03,1.528078e+03
2.318019e+03,1.535376e+03
2.320912e+03,1.534377e+03
2.323804e+03,1.496815e+03
2.326697e+03,1.498450e+03
2.329590e+03,1.508670e+03
2.332482e+03,1.500713e+03
2.335375e+03,1.493514e+03
2.338268e+03,1.497990e+03
2.341160e+03,1.491313e+03
2.344053e+03,1.492372e+03
2.346946e+03,1.497528e+03
2.349839e+03,1.479252e+03
2.352731e+03,1.471668e+03
2.355624e+03,1.460596e+03
2.358517e+03,1.472136e+03
2.361409e+03,1.478309e+03
2.364302e+03,1.445969e+03
2.367195e+03,1.453754e+03
2.370087e+03,1.455823e+03
2.372980e+03,1.451503e+03
2.375873e+03,1.452928e+03
2.378766e+03,1.422428e+03
2.381658e+03,1.432826e+03
2.384551e+03,1.431590e+03
2.387444e+03,1.425289e+03
2.390336e+03,1.438393e+03
2.393229e+03,1.428964e+03
2.396122e+03,1.416811e+03
2.399014e+03,1.398123e+03
2.401907e+03,1.407892e+03
2.404800e+03,1.402891e+03
2.407693e+03,1.396779e+03
2.410585e+03,1.407894e+03
2.413478e+03,1.400931e+03
2.416371e+03,1.391950e+03
2.419263e+03,1.387359e+03
2.422156e+03,1.375266e+03
2.425049e+03,1.382500e+03
2.427941e+03,1.368552e+03
2.430834e+03,1.379176e+03
2.433727e+03,1.373843e+03
2.436620e+03,1.347643e+03
2.439512e+03,1.362033e+03
2.442405e+03,1.341748e+03
2.445298e+03,1.348219e+03
2.448190e+03,1.352934e+03
2.451083e+03,1.360377e+03
2.453976e+03,1.333021e+03
2.456868e+03,1.343592e+03
2.459761e+03,1.339781e+03
2.462654e+03,1.341897e+03
2.465547e+03,1.333628e+03
2.468439e+03,1.313195e+03
2.471332e+03,1.320137e+03
2.474225e+03,1.313908e+03
2.477117e+03,1.313119e+03
2.480010e+03,1.336727e+03
2.482903e+03,1.309982e+03
2.485795e+03,1.321855e+03
2.488688e+03,1.302148e+03
2.491581e+03,1.288584e+03
2.494474e+03,1.286382e+03
2.497366e+03,1.296645e+03
2.500259e+03,1.295410e+03
2.503152e+03,1.279725e+03
2.506044e+03,1.279480e+03
2.508937e+03,1.269526e+03
2.511830e+03,1.286413e+03
2.514722e+03,1.284291e+03
2.517615e+03,1.268781e+03
2.520508e+03,1.274719e+03
2.523401e+03,1.256486e+03
2.526293e+03,1.282487e+03
2.529186e+03,1.263390e+03
2.532079e+03,1.257984e+03
2.534971e+03,1.249012e+03
2.537864e+03,1.252518e+03
2.540757e+03,1.257163e+03
2.543649e+03,1.251539e+03
2.546542e+03,1.258042e+03
2.549435e+03,1.231430e+03
2.552328e+03,1.238658e+03
2.555220e+03,1.250562e+03
2.558113e+03,1.249589e+03
2.561006e+03,1.232654e+03
2.563898e+03,1.234561e+03
2.566791e+03,1.245021e+03
2.569684e+03,1.229585e+03
2.572576e+03,1.228931e+03
2.575469e+03,1.227631e+03
2.578362e+03,1.215772e+03
2.581255e+03,1.221832e+03
2.584147e+03,1.202001e+03
2.587040e+03,1.198370e+03
2.589933e+03,1.217216e+03
2.592825e+03,1.204202e+03
2.595718e+03,1.187689e+03
2.598611e+03,1.195983e+03
2.601503e+03,1.194499e+03
2.604396e+03,1.194670e+03
2.607289e+03,1.182942e+03
2.610182e+03,1.194549e+03
2.613074e+03,1.177061e+03
2.615967e+03,1.189362e+03
2.618860e+03,1.177447e+03
2.621752e+03,1.175645e+03
2.624645e+03,1.178104e+03
2.627538e+03,1.186692e+03
2.630430e+03,1.150108e+03
2.633323e+03,1.160044e+03
2.636216e+03,1.164540e+03
2.639109e+03,1.169543e+03
2.642001e+03,1.153143e+03
2.644894e+03,1.161398e+03
2.647787e+03,1.146429e+03
2.650679e+03,1.148276e+03
2.653572e+03,1.149553e+03
2.656465e+03,1.139573e+03
2.659357e+03,1.141030e+03
2.662250e+03,1.143318e+03
2.665143e+03,1.131032e+03
2.668036e+03,1.157553e+03
2.670928e+03,1.127497e+03
2.673821e+03,1.129581e+03
2.676714e+03,1.127406e+03
2.679606e+03,1.124479e+03
2.682499e+03,1.129592e+03
2.685392e+03,1.128907e+03
2.688284e+03,1.129282e+03
2.691177e+03,1.118816e+03
2.694070e+03,1.109969e+03
2.696963e+03,1.124100e+03
2.699855e+03,1.129318e+03
2.702748e+03,1.121143e+03
2.705641e+03,1.113396e+03
2.708533e+03,1.090741e+03
2.711426e+03,1.107872e+03
2.714319e+03,1.106276e+03
2.717211e+03,1.093340e+03
2.720104e+03,1.093221e+03
2.722997e+03,1.101450e+03
2.725890e+03,1.082662e+03
2.728782e+03,1.093890e+03
2.731675e+03,1.085235e+03
2.734568e+03,1.102740e+03
2.737460e+03,1.091973e+03
2.740353e+03,1.067918e+03
2.743246e+03,1.076598e+03
2.746138e+03,1.070943e+03
2.749031e+03,1.108260e+03
2.751924e+03,1.065084e+03
2.754817e+03,1.074375e+03
2.757709e+03,1.083262e+03
2.760602e+03,1.088573e+03
2.763495e+03,1.050460e+03
2.766387e+03,1.062497e+03
2.769280e+03,1.054836e+03
2.772173e+03,1.074610e+03
2.775065e+03,1.060915e+03
2.777958e+03,1.054695e+03
2.780851e+03,1.059126e+03
2.783744e+03,1.045268e+03
2.786636e+03,1.031763e+03
2.789529e+03,1.051387e+03
2.792422e+03,1.057294e+03
2.795314e+03,1.028731e+03
2.798207e+03,1.059222e+03
2.801100e+03,1.038523e+03
2.803992e+03,1.030276e+03
2.806885e+03,1.038270e+03
2.809778e+03,1.023866e+03
2.812671e+03,1.030831e+03
2.815563e+03,1.027519e+03
2.818456e+03,1.038051e+03
2.821349e+03,1.047136e+03
2.824241e+03,1.009340e+03
2.827134e+03,1.040690e+03
2.830027e+03,1.043073e+03
2.832919e+03,1.024176e+03
2.835812e+03,1.019020e+03
2.838705e+03,1.056496e+03
2.841598e+03,1.026147e+03
2.844490e+03,1.017620e+03
2.847383e+03,1.025519e+03
2.850276e+03,1.011615e+03
2.853168e+03,1.025753e+03
2.856061e+03,9.981992e+02
2.858954e+03,9.913218e+02
2.861846e+03,1.019172e+03
2.864739e+03,1.006186e+03
2.867632e+03,9.996371e+02
2.870525e+03,1.020976e+03
2.873417e+03,1.013743e+03
2.876310e+03,9.828224e+02
2.879203e+03,1.012983e+03
2.882095e+03,1.014784e+03
2.884988e+03,9.979945e+02
2.887881e+03,1.013637e+03
2.890773e+03,1.010894e+03
2.893666e+03,1.001600e+03
2.896559e+03,1.028663e+03
2.899452e+03,1.006573e+03
2.902344e+03,1.007879e+03
2.905237e+03,1.004174e+03
2.908130e+03,9.889704e+02
2.911022e+03,9.945174e+02
2.913915e+03,9.868663e+02
2.916808e+03,9.748605e+02
2.919700e+03,9.552250e+02
2.922593e+03,9.887719e+02
2.925486e+03,9.661828e+02
2.928379e+03,9.728564e+02
2.931271e+03,9.726115e+02
2.934164e+03,9.827045e+02
2.937057e+03,9.567785e+02
2.939949e+03,9.594050e+02
2.942842e+03,9.644865e+02
2.945735e+03,9.481992e+02
2.948627e+03,9.706677e+02
2.951520e+03,9.786010e+02
2.954413e+03,9.738310e+02
2.957306e+03,9.815716e+02
2.960198e+03,9.981623e+02
2.963091e+03,9.456493e+02
2.965984e+03,9.743144e+02
2.968876e+03,9.479187e+02
2.971769e+03,9.555341e+02
2.974662e+03,9.422294e+02
2.977554e+03,9.514155e+02
2.980447e+03,9.417667e+02
2.983340e+03,9.502476e+02
2.986233e+03,9.337727e+02
2.989125e+03,9.175500e+02
2.992018e+03,9.378654e+02
2.994911e+03,9.113878e+02
2.997803e+03,9.175010e+02
3.000696e+03,9.212192e+02
3.003589e+03,9.300677e+02
3.006481e+03,9.452169e+02
3.009374e+03,9.252173e+02
3.012267e+03,9.207296e+02
3.015160e+03,9.187662e+02
3.018052e+03,9.090546e+02
3.020945e+03,9.211790e+02
3.023838e+03,9.277794e+02
3.026730e+03,9.077037e+02
3.029623e+03,9.171879e+02
3.032516e+03,8.916855e+02
3.035408e+03,8.901999e+02
3.038301e+03,9.168326e+02
3.041194e+03,9.047344e+02
3.044087e+03,9.310280e+02
3.046979e+03,9.013961e+02
3.049872e+03,9.144369e+02
3.052765e+03,8.850156e+02
3.055657e+03,8.810724e+02
3.058550e+03,9.026835e+02
3.061443e+03,8.950061e+02
3.064335e+03,8.934411e+02
3.067228e+03,8.977943e+02
3.070121e+03,9.172718e+02
3.073014e+03,8.965869e+02
3.075906e+03,8.769404e+02
3.078799e+03,9.225211e+02
3.081692e+03,8.897477e+02
3.084584e+03,8.951212e+02
3.087477e+03,8.777184e+02
3.090370e+03,9.244199e+02
3.093262e+03,8.827338e+02
3.096155e+03,8.967354e+02
3.099048e+03,8.804410e+02
3.101941e+03,8.785844e+02
3.104833e+03,8.778005e+02
3.107726e+03,9.036469e+02
3.110619e+03,8.809905e+02
3.113511e+03,8.723510e+02
3.116404e+03,8.974149e+02
3.119297e+03,8.395917e+02
3.122189e+03,8.805002e+02
3.125082e+03,9.093193e+02
3.127975e+03,8.721344e+02
3.130868e+03,8.565761e+02
3.133760e+03,9.160485e+02
3.136653e+03,9.156993e+02
3.139546e+03,8.793186e+02
3.142438e+03,8.687051e+02
3.145331e+03,8.707540e+02
3.148224e+03,9.031578e+02
3.151116e+03,8.793456e+02
3.154009e+03,8.951898e+02
3.156902e+03,8.713050e+02
3.159795e+03,8.563736e+02
3.162687e+03,8.758419e+02
3.165580e+03,9.021116e+02
3.168473e+03,9.052375e+02
3.171365e+03,8.814629e+02
3.174258e+03,8.440345e+02
3.177151e+03,8.755527e+02
3.180043e+03,8.930184e+02
3.182936e+03,8.775051e+02
3.185829e+03,8.974377e+02
3.188722e+03,8.467304e+02
3.191614e+03,8.786846e+02
3.194507e+03,8.863876e+02
3.197400e+03,8.634656e+02
3.200292e+03,8.943204e+02
3.203185e+03,0.000000e+00
3.206078e+03,0.000000e+00
3.208970e+03,0.000000e+00
3.211863e+03,0.000000e+00
3.214756e+03,0.000000e+00
3.217649e+03,0.000000e+00
3.220541e+03,0.000000e+00
3.223434e+03,0.000000e+00
3.226327e+03,0.000000e+00
3.229219e+03,0.000000e+00
3.232112e+03,0.000000e+00
3.235005e+03,0.000000e+00
3.237897e+03,0.000000e+00
3.240790e+03,0.000000e+00
3.243683e+03,0.000000e+00
3.246576e+03,0.000000e+00
3.249468e+03,0.000000e+00
3.252361e+03,0.000000e+00
3.255254e+03,0.000000e+00
3.258146e+03,0.000000e+00
3.261039e+03,0.000000e+00
3.263932e+03,0.000000e+00
3.266824e+03,0.000000e+00
3.269717e+03,0.000000e+00
3.272610e+03,0.000000e+00
3.275503e+03,0.000000e+00
3.278395e+03,0.000000e+00
3.281288e+03,0.000000e+00
3.284181e+03,0.000000e+00
3.287073e+03,0.000000e+00
3.289966e+03,0.000000e+00
3.292859e+03,0.000000e+00
3.295751e+03,0.000000e+00
3.298644e+03,0.000000e+00
3.301537e+03,0.000000e+00
3.304430e+03,0.000000e+00
3.307322e+03,0.000000e+00
3.310215e+03,0.000000e+00
3.313108e+03,0.000000e+00
3.316000e+03,0.000000e+00
3.318893e+03,0.000000e+00
3.321786e+03,0.000000e+00
3.324678e+03,0.000000e+00
3.327571e+03,0.000000e+00
3.330464e+03,0.000000e+00
3.333357e+03,0.000000e+00
3.336249e+03,0.000000e+00
3.339142e+03,0.000000e+00
3.342035e+03,0.000000e+00
3.344927e+03,0.000000e+00
3.347820e+03,0.000000e+00
3.350713e+03,0.000000e+00
3.353605e+03,0.000000e+00
3.356498e+03,0.000000e+00
3.359391e+03,0.000000e+00
3.362284e+03,0.000000e+00
3.365176e+03,0.000000e+00
3.368069e+03,0.000000e+00
3.370962e+03,0.000000e+00
3.373854e+03,0.000000e+00
3.376747e+03,0.000000e+00
3.379640e+03,0.000000e+00
3.382532e+03,0.000000e+00
3.385425e+03,0.000000e+00
3.388318e+03,0.000000e+00
3.391211e+03,0.000000e+00
3.394103e+03,0.000000e+00
3.396996e+03,0.000000e+00
3.399889e+03,0.000000e+00
3.402781e+03,0.000000e+00
3.405674e+03,0.000000e+00
3.408567e+03,0.000000e+00
3.411459e+03,0.000000e+00
3.414352e+03,0.000000e+00
3.417245e+03,0.000000e+00
3.420138e+03,0.000000e+00
3.423030e+03,0.000000e+00
3.425923e+03,0.000000e+00
3.428816e+03,0.000000e+00
3.431708e+03,0.000000e+00
3.434601e+03,0.000000e+00
3.437494e+03,0.000000e+00
3.440386e+03,0.000000e+00
3.443279e+03,0.000000e+00
3.446172e+03,0.000000e+00
3.449065e+03,0.000000e+00
3.451957e+03,0.000000e+00
3.454850e+03,0.000000e+00
3.457743e+03,0.000000e+00
3.460635e+03,0.000000e+00
3.463528e+03,0.000000e+00
3.466421e+03,0.000000e+00
3.469313e+03,0.000000e+00
3.472206e+03,0.000000e+00
3.475099e+03,0.000000e+00
3.477992e+03,0.000000e+00
3.480884e+03,0.000000e+00
3.483777e+03,0.000000e+00
3.486670e+03,0.000000e+00
3.489563e+03,0.000000e+00
3.492455e+03,0.000000e+00
3.495348e+03,0.000000e+00
3.498240e+03,0.000000e+00
3.500169e+03,0.000000e+00