File: RAMAN_data/20012023_r1/black fibre1.CSV
1.995979e+02,4.237959e+03
2.024906e+02,4.239136e+03
2.053833e+02,4.243511e+03
2.082760e+02,4.249833e+03
2.111687e+02,4.243099e+03
2.140614e+02,4.263998e+03
2.169541e+02,4.263802e+03
2.198468e+02,4.269709e+03
2.227395e+02,4.278059e+03
2.256322e+02,4.282007e+03
2.285249e+02,4.271916e+03
2.314176e+02,4.271611e+03
2.343103e+02,4.275087e+03
2.372030e+02,4.283435e+03
2.400957e+02,4.284764e+03
2.429884e+02,4.285681e+03
2.458811e+02,4.278396e+03
2.487738e+02,4.293686e+03
2.516665e+02,4.328103e+03
2.545592e+02,4.317220e+03
2.574519e+02,4.309895e+03
2.603446e+02,4.334644e+03
2.632373e+02,4.331271e+03
2.661300e+02,4.324205e+03
2.690227e+02,4.335616e+03
2.719154e+02,4.322662e+03
2.748081e+02,4.331157e+03
2.777008e+02,4.347292e+03
2.805935e+02,4.339440e+03
2.834862e+02,4.358081e+03
2.863789e+02,4.347310e+03
2.892716e+02,4.345851e+03
2.921643e+02,4.359252e+03
2.950570e+02,4.359536e+03
2.979497e+02,4.353193e+03
3.008424e+02,4.359416e+03
3.037351e+02,4.361813e+03
3.066278e+02,4.348288e+03
3.095205e+02,4.370052e+03
3.124132e+02,4.361911e+03
3.153059e+02,4.357397e+03
3.181986e+02,4.356162e+03
3.210913e+02,4.348194e+03
3.239840e+02,4.360524e+03
3.268767e+02,4.360585e+03
3.297694e+02,4.358690e+03
3.326621e+02,4.372645e+03
3.355548e+02,4.349711e+03
3.384475e+02,4.363801e+03
3.413402e+02,4.363768e+03
3.442329e+02,4.391194e+03
3.471256e+02,4.376914e+03
3.500183e+02,4.371014e+03
3.529110e+02,4.355884e+03
3.558037e+02,4.368382e+03
3.586964e+02,4.359234e+03
3.615891e+02,4.383150e+03
3.644818e+02,4.388620e+03
3.673745e+02,4.371793e+03
3.702672e+02,4.375863e+03
3.731599e+02,4.372178e+03
3.760526e+02,4.401884e+03
3.789453e+02,4.381111e+03
3.818380e+02,4.368353e+03
3.847307e+02,4.368464e+03
3.876234e+02,4.373232e+03
3.905161e+02,4.366653e+03
3.934088e+02,4.363104e+03
3.963015e+02,4.375146e+03
3.991942e+02,4.341417e+03
4.020869e+02,4.349149e+03
4.049796e+02,4.350052e+03
4.078723e+02,4.378474e+03
4.107650e+02,4.341861e+03
4.136577e+02,4.342698e+03
4.165504e+02,4.338940e+03
4.194431e+02,4.354049e+03
4.223358e+02,4.358521e+03
4.252285e+02,4.360846e+03
4.281212e+02,4.347266e+03
4.310139e+02,4.312640e+03
4.339066e+02,4.331739e+03
4.367993e+02,4.341201e+03
4.396920e+02,4.331123e+03
4.425847e+02,4.332389e+03
4.454774e+02,4.328304e+03
4.483701e+02,4.341572e+03
4.512628e+02,4.345365e+03
4.541555e+02,4.323046e+03
4.570482e+02,4.305035e+03
4.599409e+02,4.310330e+03
4.628336e+02,4.325438e+03
4.657263e+02,4.302838e+03
4.686190e+02,4.301083e+03
4.715117e+02,4.313795e+03
4.744044e+02,4.307385e+03
4.772971e+02,4.317370e+03
4.801898e+02,4.296608e+03
4.830825e+02,4.312317e+03
4.859752e+02,4.326555e+03
4.888679e+02,4.320270e+03
4.917606e+02,4.325432e+03
4.946533e+02,4.309355e+03
4.975460e+02,4.309750e+03
5.004387e+02,4.293485e+03
5.033314e+02,4.280882e+03
5.062241e+02,4.280769e+03
5.091168e+02,4.252686e+03
5.120095e+02,4.269714e+03
5.149022e+02,4.273241e+03
5.177949e+02,4.263926e+03
5.206876e+02,4.256189e+03
5.235803e+02,4.247052e+03
5.264730e+02,4.238275e+03
5.293657e+02,4.261880e+03
5.322584e+02,4.224815e+03
5.351511e+02,4.235828e+03
5.380438e+02,4.214041e+03
5.409365e+02,4.230379e+03
5.438292e+02,4.222074e+03
5.467219e+02,4.219733e+03
5.496146e+02,4.189137e+03
5.525073e+02,4.212934e+03
5.554000e+02,4.190807e+03
5.582927e+02,4.193305e+03
5.611854e+02,4.206897e+03
5.640781e+02,4.178812e+03
5.669708e+02,4.166859e+03
5.698635e+02,4.190833e+03
5.727562e+02,4.192095e+03
5.756489e+02,4.179573e+03
5.785416e+02,4.179051e+03
5.814343e+02,4.170555e+03
5.843270e+02,4.145330e+03
5.872197e+02,4.156082e+03
5.901124e+02,4.170859e+03
5.930051e+02,4.143642e+03
5.958978e+02,4.149948e+03
5.987905e+02,4.127665e+03
6.016832e+02,4.128410e+03
6.045759e+02,4.126661e+03
6.074686e+02,4.128999e+03
6.103613e+02,4.135667e+03
6.132540e+02,4.113924e+03
6.161467e+02,4.115267e+03
6.190394e+02,4.113438e+03
6.219321e+02,4.106332e+03
6.248248e+02,4.085466e+03
6.277175e+02,4.102735e+03
6.306102e+02,4.070539e+03
6.335029e+02,4.076399e+03
6.363956e+02,4.074725e+03
6.392883e+02,4.061467e+03
6.421810e+02,4.061977e+03
6.450737e+02,4.061601e+03
6.479664e+02,4.057163e+03
6.508591e+02,4.068523e+03
6.537518e+02,4.064863e+03
6.566445e+02,4.059745e+03
6.595372e+02,4.031401e+03
6.624299e+02,4.014883e+03
6.653226e+02,4.015302e+03
6.682153e+02,4.012597e+03
6.711080e+02,4.007623e+03
6.740007e+02,4.003522e+03
6.768934e+02,3.996421e+03
6.797861e+02,3.987654e+03
6.826788e+02,3.981681e+03
6.855715e+02,3.984406e+03
6.884642e+02,3.974036e+03
6.913569e+02,3.969703e+03
6.942496e+02,3.968671e+03
6.971423e+02,3.942723e+03
7.000350e+02,3.972728e+03
7.029277e+02,3.952665e+03
7.058204e+02,3.936521e+03
7.087131e+02,3.925205e+03
7.116058e+02,3.931214e+03
7.144985e+02,3.936984e+03
7.173912e+02,3.930620e+03
7.202839e+02,3.924961e+03
7.231766e+02,3.896451e+03
7.260693e+02,3.897336e+03
7.289620e+02,3.903509e+03
7.318547e+02,3.893624e+03
7.347474e+02,3.882155e+03
7.376401e+02,3.863456e+03
7.405328e+02,3.882238e+03
7.434255e+02,3.872246e+03
7.463182e+02,3.862802e+03
7.492109e+02,3.854822e+03
7.521036e+02,3.852429e+03
7.549963e+02,3.849988e+03
7.578890e+02,3.835708e+03
7.607817e+02,3.837821e+03
7.636744e+02,3.826573e+03
7.665671e+02,3.822019e+03
7.694598e+02,3.798495e+03
7.723525e+02,3.781578e+03
7.752452e+02,3.774712e+03
7.781379e+02,3.803284e+03
7.810306e+02,3.791552e+03
7.839233e+02,3.769732e+03
7.868160e+02,3.768145e+03
7.897087e+02,3.746521e+03
7.926014e+02,3.774829e+03
7.954941e+02,3.761401e+03
7.983868e+02,3.733680e+03
8.012795e+02,3.722930e+03
8.041722e+02,3.733738e+03
8.070649e+02,3.720482e+03
8.099576e+02,3.717483e+03
8.128503e+02,3.704866e+03
8.157430e+02,3.705132e+03
8.186357e+02,3.700285e+03
8.215284e+02,3.689780e+03
8.244211e+02,3.702085e+03
8.273138e+02,3.676913e+03
8.302065e+02,3.673318e+03
8.330992e+02,3.675730e+03
8.359919e+02,3.683077e+03
8.388846e+02,3.664915e+03
8.417773e+02,3.636014e+03
8.446700e+02,3.645475e+03
8.475627e+02,3.644489e+03
8.504554e+02,3.638225e+03
8.533481e+02,3.624024e+03
8.562408e+02,3.628494e+03
8.591335e+02,3.598229e+03
8.620262e+02,3.612576e+03
8.649189e+02,3.592947e+03
8.678116e+02,3.606360e+03
8.707043e+02,3.607352e+03
8.735970e+02,3.588983e+03
8.764897e+02,3.580104e+03
8.793824e+02,3.577422e+03
8.822751e+02,3.589223e+03
8.851678e+02,3.589452e+03
8.880605e+02,3.563352e+03
8.909532e+02,3.565246e+03
8.938459e+02,3.538487e+03
8.967386e+02,3.542325e+03
8.996313e+02,3.531810e+03
9.025240e+02,3.531126e+03
9.054167e+02,3.524368e+03
9.083094e+02,3.522087e+03
9.112021e+02,3.513383e+03
9.140948e+02,3.491645e+03
9.169875e+02,3.500517e+03
9.198802e+02,3.482234e+03
9.227729e+02,3.463220e+03
9.256656e+02,3.458661e+03
9.285583e+02,3.460388e+03
9.314510e+02,3.447904e+03
9.343438e+02,3.457496e+03
9.372365e+02,3.440402e+03
9.401292e+02,3.440224e+03
9.430219e+02,3.427960e+03
9.459146e+02,3.429404e+03
9.488073e+02,3.428275e+03
9.517000e+02,3.409608e+03
9.545927e+02,3.401217e+03
9.574854e+02,3.399874e+03
9.603781e+02,3.396217e+03
9.632708e+02,3.396229e+03
9.661635e+02,3.384010e+03
9.690562e+02,3.375681e+03
9.719489e+02,3.358770e+03
9.748416e+02,3.375095e+03
9.777343e+02,3.365989e+03
9.806270e+02,3.360097e+03
9.835197e+02,3.343516e+03
9.864124e+02,3.333018e+03
9.893051e+02,3.338120e+03
9.921978e+02,3.331601e+03
9.950905e+02,3.322098e+03
9.979832e+02,3.317513e+03
1.000876e+03,3.301609e+03
1.003769e+03,3.302153e+03
1.006661e+03,3.294645e+03
1.009554e+03,3.306743e+03
1.012447e+03,3.291109e+03
1.015339e+03,3.273531e+03
1.018232e+03,3.252989e+03
1.021125e+03,3.270288e+03
1.024017e+03,3.267576e+03
1.026910e+03,3.261410e+03
1.029803e+03,3.250779e+03
1.032696e+03,3.240030e+03
1.035588e+03,3.253938e+03
1.038481e+03,3.242221e+03
1.041374e+03,3.233561e+03
1.044266e+03,3.204815e+03
1.047159e+03,3.220683e+03
1.050052e+03,3.214447e+03
1.052944e+03,3.218805e+03
1.055837e+03,3.201399e+03
1.058730e+03,3.196472e+03
1.061623e+03,3.181238e+03
1.064515e+03,3.201625e+03
1.067408e+03,3.184000e+03
1.070301e+03,3.189964e+03
1.073193e+03,3.184273e+03
1.076086e+03,3.176320e+03
1.078979e+03,3.148641e+03
1.081871e+03,3.170708e+03
1.084764e+03,3.174489e+03
1.087657e+03,3.168529e+03
1.090550e+03,3.178618e+03
1.093442e+03,3.173714e+03
1.096335e+03,3.151200e+03
1.099228e+03,3.141938e+03
1.102120e+03,3.129433e+03
1.105013e+03,3.133681e+03
1.107906e+03,3.121363e+03
1.110798e+03,3.105000e+03
1.113691e+03,3.120463e+03
1.116584e+03,3.130164e+03
1.119477e+03,3.118008e+03
1.122369e+03,3.130673e+03
1.125262e+03,3.107682e+03
1.128155e+03,3.097937e+03
1.131047e+03,3.091696e+03
1.133940e+03,3.091379e+03
1.136833e+03,3.056344e+03
1.139725e+03,3.075612e+03
1.142618e+03,3.066995e+03
1.145511e+03,3.088228e+03
1.148404e+03,3.074480e+03
1.151296e+03,3.089036e+03
1.154189e+03,3.081548e+03
1.157082e+03,3.048750e+03
1.159974e+03,3.033713e+03
1.162867e+03,3.020466e+03
1.165760e+03,3.014339e+03
1.168652e+03,3.009003e+03
1.171545e+03,3.017128e+03
1.174438e+03,3.011886e+03
1.177331e+03,3.005570e+03
1.180223e+03,3.011272e+03
1.183116e+03,3.010427e+03
1.186009e+03,2.980544e+03
1.188901e+03,2.975800e+03
1.191794e+03,2.973253e+03
1.194687e+03,2.963966e+03
1.197579e+03,2.973148e+03
1.200472e+03,2.946520e+03
1.203365e+03,2.954625e+03
1.206258e+03,2.939817e+03
1.209150e+03,2.935661e+03
1.212043e+03,2.933064e+03
1.214936e+03,2.945540e+03
1.217828e+03,2.943265e+03
1.220721e+03,2.926651e+03
1.223614e+03,2.927897e+03
1.226506e+03,2.924211e+03
1.229399e+03,2.924242e+03
1.232292e+03,2.905889e+03
1.235185e+03,2.889971e+03
1.238077e+03,2.890927e+03
1.240970e+03,2.881233e+03
1.243863e+03,2.878850e+03
1.246755e+03,2.872609e+03
1.249648e+03,2.863716e+03
1.252541e+03,2.859605e+03
1.255433e+03,2.870503e+03
1.258326e+03,2.876100e+03
1.261219e+03,2.856445e+03
1.264112e+03,2.848049e+03
1.267004e+03,2.847723e+03
1.269897e+03,2.825381e+03
1.272790e+03,2.857143e+03
1.275682e+03,2.845266e+03
1.278575e+03,2.839373e+03
1.281468e+03,2.849708e+03
1.284360e+03,2.838661e+03
1.287253e+03,2.837835e+03
1.290146e+03,2.845288e+03
1.293039e+03,2.824141e+03
1.295931e+03,2.803895e+03
1.298824e+03,2.791577e+03
1.301717e+03,2.806439e+03
1.304609e+03,2.793613e+03
1.307502e+03,2.786923e+03
1.310395e+03,2.789100e+03
1.313287e+03,2.778489e+03
1.316180e+03,2.782774e+03
1.319073e+03,2.784642e+03
1.321966e+03,2.778554e+03
1.324858e+03,2.754702e+03
1.327751e+03,2.758703e+03
1.330644e+03,2.759582e+03
1.333536e+03,2.768768e+03
1.336429e+03,2.754250e+03
1.339322e+03,2.760248e+03
1.342214e+03,2.743558e+03
1.345107e+03,2.744333e+03
1.348000e+03,2.748310e+03
1.350893e+03,2.751492e+03
1.353785e+03,2.745549e+03
1.356678e+03,2.731026e+03
1.359571e+03,2.714345e+03
1.362463e+03,2.731138e+03
1.365356e+03,2.721686e+03
1.368249e+03,2.708029e+03
1.371141e+03,2.701336e+03
1.374034e+03,2.683062e+03
1.376927e+03,2.698637e+03
1.379820e+03,2.698691e+03
1.382712e+03,2.677803e+03
1.385605e+03,2.669615e+03
1.388498e+03,2.665537e+03
1.391390e+03,2.652827e+03
1.394283e+03,2.656212e+03
1.397176e+03,2.648304e+03
1.400068e+03,2.637426e+03
1.402961e+03,2.651287e+03
1.405854e+03,2.638758e+03
1.408747e+03,2.645692e+03
1.411639e+03,2.645284e+03
1.414532e+03,2.628972e+03
1.417425e+03,2.630983e+03
1.420317e+03,2.617735e+03
1.423210e+03,2.610543e+03
1.426103e+03,2.608146e+03
1.428995e+03,2.598567e+03
1.431888e+03,2.599950e+03
1.434781e+03,2.575703e+03
1.437674e+03,2.577405e+03
1.440566e+03,2.572514e+03
1.443459e+03,2.574088e+03
1.446352e+03,2.575331e+03
1.449244e+03,2.568317e+03
1.452137e+03,2.561566e+03
1.455030e+03,2.554235e+03
1.457922e+03,2.550093e+03
1.460815e+03,2.542455e+03
1.463708e+03,2.550736e+03
1.466601e+03,2.528032e+03
1.469493e+03,2.518818e+03
1.472386e+03,2.528540e+03
1.475279e+03,2.532246e+03
1.478171e+03,2.531453e+03
1.481064e+03,2.500589e+03
1.483957e+03,2.496017e+03
1.486849e+03,2.503822e+03
1.489742e+03,2.500524e+03
1.492635e+03,2.493570e+03
1.495528e+03,2.502894e+03
1.498420e+03,2.479601e+03
1.501313e+03,2.474561e+03
1.504206e+03,2.464504e+03
1.507098e+03,2.487542e+03
1.509991e+03,2.477816e+03
1.512884e+03,2.469042e+03
1.515776e+03,2.458424e+03
1.518669e+03,2.457645e+03
1.521562e+03,2.444557e+03
1.524455e+03,2.443801e+03
1.527347e+03,2.442787e+03
1.530240e+03,2.425327e+03
1.533133e+03,2.433609e+03
1.536025e+03,2.426214e+03
1.538918e+03,2.429002e+03
1.541811e+03,2.439167e+03
1.544703e+03,2.422135e+03
1.547596e+03,2.412917e+03
1.550489e+03,2.420829e+03
1.553382e+03,2.436105e+03
1.556274e+03,2.418146e+03
1.559167e+03,2.408253e+03
1.562060e+03,2.410401e+03
1.564952e+03,2.412614e+03
1.567845e+03,2.411581e+03
1.570738e+03,2.407155e+03
1.573630e+03,2.399486e+03
1.576523e+03,2.399051e+03
1.579416e+03,2.388531e+03
1.582309e+03,2.407853e+03
1.585201e+03,2.394784e+03
1.588094e+03,2.395435e+03
1.590987e+03,2.380162e+03
1.593879e+03,2.382870e+03
1.596772e+03,2.368710e+03
1.599665e+03,2.351934e+03
1.602557e+03,2.352694e+03
1.605450e+03,2.337519e+03
1.608343e+03,2.334055e+03
1.611236e+03,2.314813e+03
1.614128e+03,2.344088e+03
1.617021e+03,2.331887e+03
1.619914e+03,2.317577e+03
1.622806e+03,2.306548e+03
1.625699e+03,2.308208e+03
1.628592e+03,2.285436e+03
1.631484e+03,2.290710e+03
1.634377e+03,2.301291e+03
1.637270e+03,2.280715e+03
1.640163e+03,2.269483e+03
1.643055e+03,2.278448e+03
1.645948e+03,2.271500e+03
1.648841e+03,2.266108e+03
1.651733e+03,2.262356e+03
1.654626e+03,2.236033e+03
1.657519e+03,2.253991e+03
1.660411e+03,2.244806e+03
1.663304e+03,2.231405e+03
1.666197e+03,2.233622e+03
1.669090e+03,2.228720e+03
1.671982e+03,2.228080e+03
1.674875e+03,2.224297e+03
1.677768e+03,2.218383e+03
1.680660e+03,2.216499e+03
1.683553e+03,2.217517e+03
1.686446e+03,2.197535e+03
1.689339e+03,2.200134e+03
1.692231e+03,2.180073e+03
1.695124e+03,2.195679e+03
1.698017e+03,2.196933e+03
1.700909e+03,2.188491e+03
1.703802e+03,2.171552e+03
1.706695e+03,2.173704e+03
1.709587e+03,2.181846e+03
1.712480e+03,2.162812e+03
1.715373e+03,2.164019e+03
1.718266e+03,2.145725e+03
1.721158e+03,2.148434e+03
1.724051e+03,2.142347e+03
1.726944e+03,2.134471e+03
1.729836e+03,2.140839e+03
1.732729e+03,2.140782e+03
1.735622e+03,2.113732e+03
1.738514e+03,2.127876e+03
1.741407e+03,2.109764e+03
1.744300e+03,2.108491e+03
1.747193e+03,2.112625e+03
1.750085e+03,2.107646e+03
1.752978e+03,2.104509e+03
1.755871e+03,2.100405e+03
1.758763e+03,2.086970e+03
1.761656e+03,2.087175e+03
1.764549e+03,2.082428e+03
1.767441e+03,2.074384e+03
1.770334e+03,2.073876e+03
1.773227e+03,2.072070e+03
1.776120e+03,2.078640e+03
1.779012e+03,2.056467e+03
1.781905e+03,2.042793e+03
1.784798e+03,2.051647e+03
1.787690e+03,2.044292e+03
1.790583e+03,2.033607e+03
1.793476e+03,2.024997e+03
1.796368e+03,2.031834e+03
1.799261e+03,2.021682e+03
1.802154e+03,2.030572e+03
1.805047e+03,2.005624e+03
1.807939e+03,2.008518e+03
1.810832e+03,1.999531e+03
1.813725e+03,1.996034e+03
1.816617e+03,2.008250e+03
1.819510e+03,1.984306e+03
1.822403e+03,1.963676e+03
1.825295e+03,1.994840e+03
1.828188e+03,1.978716e+03
1.831081e+03,1.990515e+03
1.833974e+03,1.986036e+03
1.836866e+03,1.974500e+03
1.839759e+03,1.949698e+03
1.842652e+03,1.950251e+03
1.845544e+03,1.958900e+03
1.848437e+03,1.959983e+03
1.851330e+03,1.934204e+03
1.854222e+03,1.933809e+03
1.857115e+03,1.930858e+03
1.860008e+03,1.942125e+03
1.862901e+03,1.931254e+03
1.865793e+03,1.922206e+03
1.868686e+03,1.904840e+03
1.871579e+03,1.911071e+03
1.874471e+03,1.913074e+03
1.877364e+03,1.901176e+03
1.880257e+03,1.893049e+03
1.883149e+03,1.901927e+03
1.886042e+03,1.884759e+03
1.888935e+03,1.875996e+03
1.891828e+03,1.890787e+03
1.894720e+03,1.855118e+03
1.897613e+03,1.863774e+03
1.900506e+03,1.868271e+03
1.903398e+03,1.854699e+03
1.906291e+03,1.844376e+03
1.909184e+03,1.858531e+03
1.912076e+03,1.847051e+03
1.914969e+03,1.824286e+03
1.917862e+03,1.822627e+03
1.920755e+03,1.827001e+03
1.923647e+03,1.827730e+03
1.926540e+03,1.798052e+03
1.929433e+03,1.812890e+03
1.932325e+03,1.798640e+03
1.935218e+03,1.809236e+03
1.938111e+03,1.803694e+03
1.941003e+03,1.787290e+03
1.943896e+03,1.807963e+03
1.946789e+03,1.791690e+03
1.949682e+03,1.780260e+03
1.952574e+03,1.772167e+03
1.955467e+03,1.785969e+03
1.958360e+03,1.768002e+03
1.961252e+03,1.768567e+03
1.964145e+03,1.754683e+03
1.967038e+03,1.732902e+03
1.969930e+03,1.754558e+03
1.972823e+03,1.756828e+03
1.975716e+03,1.736715e+03
1.978609e+03,1.753214e+03
1.981501e+03,1.729215e+03
1.984394e+03,1.743154e+03
1.987287e+03,1.732163e+03
1.990179e+03,1.727435e+03
1.993072e+03,1.698904e+03
1.995965e+03,1.704120e+03
1.998857e+03,1.689697e+03
2.001750e+03,1.687711e+03
2.004643e+03,1.703401e+03
2.007536e+03,1.697116e+03
2.010428e+03,1.694260e+03
2.013321e+03,1.687699e+03
2.016214e+03,1.668637e+03
2.019106e+03,1.667267e+03
2.021999e+03,1.662810e+03
2.024892e+03,1.658148e+03
2.027784e+03,1.656955e+03
2.030677e+03,1.640425e+03
2.033570e+03,1.643082e+03
2.036463e+03,1.644560e+03
2.039355e+03,1.633362e+03
2.042248e+03,1.625487e+03
2.045141e+03,1.631109e+03
2.048033e+03,1.629021e+03
2.050926e+03,1.613576e+03
2.053819e+03,1.612387e+03
2.056711e+03,1.598117e+03
2.059604e+03,1.606963e+03
2.062497e+03,1.595070e+03
2.065390e+03,1.586227e+03
2.068282e+03,1.592286e+03
2.071175e+03,1.575564e+03
2.074068e+03,1.580101e+03
2.076960e+03,1.591091e+03
2.079853e+03,1.579390e+03
2.082746e+03,1.559858e+03
2.085638e+03,1.546719e+03
2.088531e+03,1.564115e+03
2.091424e+03,1.562589e+03
2.094316e+03,1.560021e+03
2.097209e+03,1.531196e+03
2.100102e+03,1.539660e+03
2.102995e+03,1.522678e+03
2.105887e+03,1.517419e+03
2.108780e+03,1.530548e+03
2.111673e+03,1.517991e+03
2.114565e+03,1.507881e+03
2.117458e+03,1.507268e+03
2.120351e+03,1.509532e+03
2.123244e+03,1.516062e+03
2.126136e+03,1.502599e+03
2.129029e+03,1.488084e+03
2.131922e+03,1.499704e+03
2.134814e+03,1.479521e+03
2.137707e+03,1.475462e+03
2.140600e+03,1.467109e+03
2.143492e+03,1.451541e+03
2.146385e+03,1.460972e+03
2.149278e+03,1.468640e+03
2.152170e+03,1.463000e+03
2.155063e+03,1.445494e+03
2.157956e+03,1.462006e+03
2.160849e+03,1.417266e+03
2.163741e+03,1.440907e+03
2.166634e+03,1.430178e+03
2.169527e+03,1.432276e+03
2.172419e+03,1.443672e+03
2.175312e+03,1.411750e+03
2.178205e+03,1.421355e+03
2.181098e+03,1.417966e+03
2.183990e+03,1.417691e+03
2.186883e+03,1.401987e+03
2.189776e+03,1.389146e+03
2.192668e+03,1.392292e+03
2.195561e+03,1.374641e+03
2.198454e+03,1.387816e+03
2.201346e+03,1.378758e+03
2.204239e+03,1.377926e+03
2.207132e+03,1.384093e+03
2.210024e+03,1.359736e+03
2.212917e+03,1.359256e+03
2.215810e+03,1.374203e+03
2.218703e+03,1.351313e+03
2.221595e+03,1.356237e+03
2.224488e+03,1.342964e+03
2.227381e+03,1.342934e+03
2.230273e+03,1.345664e+03
2.233166e+03,1.339649e+03
2.236059e+03,1.328104e+03
2.238952e+03,1.329791e+03
2.241844e+03,1.319113e+03
2.244737e+03,1.311807e+03
2.247630e+03,1.307372e+03
2.250522e+03,1.315914e+03
2.253415e+03,1.332354e+03
2.256308e+03,1.306788e+03
2.259200e+03,1.295021e+03
2.262093e+03,1.305677e+03
2.264986e+03,1.288343e+03
2.267879e+03,1.281141e+03
2.270771e+03,1.268030e+03
2.273664e+03,1.276391e+03
2.276557e+03,1.274261e+03
2.279449e+03,1.280104e+03
2.282342e+03,1.261048e+03
2.285235e+03,1.260178e+03
2.288127e+03,1.251817e+03
2.291020e+03,1.256037e+03
2.293913e+03,1.248293e+03
2.296805e+03,1.249329e+03
2.299698e+03,1.257011e+03
2.302591e+03,1.236475e+03
2.305484e+03,1.236925e+03
2.308376e+03,1.230798e+03
2.311269e+03,1.223446e+03
2.314162e+03,1.221403e+03
2.317054e+03,1.210480e+03
2.319947e+03,1.210958e+03
2.322840e+03,1.216517e+03
2.325733e+03,1.190760e+03
2.328625e+03,1.224721e+03
2.331518e+03,1.200099e+03
2.334411e+03,1.202243e+03
2.337303e+03,1.195216e+03
2.340196e+03,1.186880e+03
2.343089e+03,1.181054e+03
2.345981e+03,1.188900e+03
2.348874e+03,1.192031e+03
2.351767e+03,1.171250e+03
2.354659e+03,1.180669e+03
2.357552e+03,1.171942e+03
2.360445e+03,1.177242e+03
2.363338e+03,1.166024e+03
2.366230e+03,1.150312e+03
2.369123e+03,1.166775e+03
2.372016e+03,1.147594e+03
2.374908e+03,1.156488e+03
2.377801e+03,1.144832e+03
2.380694e+03,1.133284e+03
2.383587e+03,1.144012e+03
2.386479e+03,1.143540e+03
2.389372e+03,1.135813e+03
2.392265e+03,1.122408e+03
2.395157e+03,1.130248e+03
2.398050e+03,1.109210e+03
2.400943e+03,1.112112e+03
2.403835e+03,1.110907e+03
2.406728e+03,1.115927e+03
2.409621e+03,1.099150e+03
2.412513e+03,1.106886e+03
2.415406e+03,1.091236e+03
2.418299e+03,1.102754e+03
2.421192e+03,1.071840e+03
2.424084e+03,1.092498e+03
2.426977e+03,1.085181e+03
2.429870e+03,1.075715e+03
2.432762e+03,1.060913e+03
2.435655e+03,1.084739e+03
2.438548e+03,1.065190e+03
2.441441e+03,1.079456e+03
2.444333e+03,1.058492e+03
2.447226e+03,1.073233e+03
2.450119e+03,1.061055e+03
2.453011e+03,1.069546e+03
2.455904e+03,1.072794e+03
2.458797e+03,1.051805e+03
2.461689e+03,1.049962e+03
2.464582e+03,1.037201e+03
2.467475e+03,1.034863e+03
2.470367e+03,1.038836e+03
2.473260e+03,1.032546e+03
2.476153e+03,1.024761e+03
2.479046e+03,1.037034e+03
2.481938e+03,1.034465e+03
2.484831e+03,1.019409e+03
2.487724e+03,1.023833e+03
2.490616e+03,1.008692e+03
2.493509e+03,1.018109e+03
2.496402e+03,1.002543e+03
2.499295e+03,1.005582e+03
2.502187e+03,9.996967e+02
2.505080e+03,1.004642e+03
2.507973e+03,1.003172e+03
2.510865e+03,1.019303e+03
2.513758e+03,9.892347e+02
2.516651e+03,9.845673e+02
2.519543e+03,9.960831e+02
2.522436e+03,9.837009e+02
2.525329e+03,9.738687e+02
2.528221e+03,9.803425e+02
2.531114e+03,9.929095e+02
2.534007e+03,9.732000e+02
2.536900e+03,9.851754e+02
2.539792e+03,9.728201e+02
2.542685e+03,9.685692e+02
2.545578e+03,9.616537e+02
2.548470e+03,9.636970e+02
2.551363e+03,9.769326e+02
2.554256e+03,9.694132e+02
2.557149e+03,9.562518e+02
2.560041e+03,9.752619e+02
2.562934e+03,9.757370e+02
2.565827e+03,9.454030e+02
2.568719e+03,9.459715e+02
2.571612e+03,9.375471e+02
2.574505e+03,9.363356e+02
2.577397e+03,9.562679e+02
2.580290e+03,9.438344e+02
2.583183e+03,9.366777e+02
2.586075e+03,9.297344e+02
2.588968e+03,9.395460e+02
2.591861e+03,9.282638e+02
2.594754e+03,9.303371e+02
2.597646e+03,9.360518e+02
2.600539e+03,9.154156e+02
2.603432e+03,9.250768e+02
2.606324e+03,9.315655e+02
2.609217e+03,9.024745e+02
2.612110e+03,8.968038e+02
2.615003e+03,9.065912e+02
2.617895e+03,9.056651e+02
2.620788e+03,8.981312e+02
2.623681e+03,8.946882e+02
2.626573e+03,9.043124e+02
2.629466e+03,8.933877e+02
2.632359e+03,8.925132e+02
2.635251e+03,9.006231e+02
2.638144e+03,9.065976e+02
2.641037e+03,8.921005e+02
2.643929e+03,8.794662e+02
2.646822e+03,8.821553e+02
2.649715e+03,8.761496e+02
2.652608e+03,8.764575e+02
2.655500e+03,8.774626e+02
2.658393e+03,8.717361e+02
2.661286e+03,8.785868e+02
2.664178e+03,8.815574e+02
2.667071e+03,8.610585e+02
2.669964e+03,8.658970e+02
2.672857e+03,8.746640e+02
2.675749e+03,8.656688e+02
2.678642e+03,8.613681e+02
2.681535e+03,8.662691e+02
2.684427e+03,8.706450e+02
2.687320e+03,8.557609e+02
2.690213e+03,8.473011e+02
2.693105e+03,8.480698e+02
2.695998e+03,8.427673e+02
2.698891e+03,8.379012e+02
2.701783e+03,8.543052e+02
2.704676e+03,8.509318e+02
2.707569e+03,8.410869e+02
2.710462e+03,8.572427e+02
2.713354e+03,8.427267e+02
2.716247e+03,8.162220e+02
2.719140e+03,8.517013e+02
2.722032e+03,8.350472e+02
2.724925e+03,8.352966e+02
2.727818e+03,8.243082e+02
2.730711e+03,8.199572e+02
2.733603e+03,8.266246e+02
2.736496e+03,8.302737e+02
2.739389e+03,8.092896e+02
2.742281e+03,8.257061e+02
2.745174e+03,8.114987e+02
2.748067e+03,8.092299e+02
2.750959e+03,8.026987e+02
2.753852e+03,8.044813e+02
2.756745e+03,8.199893e+02
2.759637e+03,8.066223e+02
2.762530e+03,7.923936e+02
2.765423e+03,8.004473e+02
2.768316e+03,8.120934e+02
2.771208e+03,7.974336e+02
2.774101e+03,7.946046e+02
2.776994e+03,7.978848e+02
2.779886e+03,7.884672e+02
2.782779e+03,7.855434e+02
2.785672e+03,7.952060e+02
2.788565e+03,7.765540e+02
2.791457e+03,8.085564e+02
2.794350e+03,7.768699e+02
2.797243e+03,7.770634e+02
2.800135e+03,7.912405e+02
2.803028e+03,7.850076e+02
2.805921e+03,7.941888e+02
2.808813e+03,7.797205e+02
2.811706e+03,7.869706e+02
2.814599e+03,7.722288e+02
2.817491e+03,7.937686e+02
2.820384e+03,7.869928e+02
2.823277e+03,7.791412e+02
2.826170e+03,7.706749e+02
2.829062e+03,7.783446e+02
2.831955e+03,7.957315e+02
2.834848e+03,7.636382e+02
2.837740e+03,7.786967e+02
2.840633e+03,7.562442e+02
2.843526e+03,7.784056e+02
2.846419e+03,7.790945e+02
2.849311e+03,7.538487e+02
2.852204e+03,8.043028e+02
2.855097e+03,7.722609e+02
2.857990e+03,7.620898e+02
2.860882e+03,7.534482e+02
2.863775e+03,7.773746e+02
2.866667e+03,7.677933e+02
2.869560e+03,7.720005e+02
2.872453e+03,7.718732e+02
2.875345e+03,7.845468e+02
2.878238e+03,7.547923e+02
2.881131e+03,7.789815e+02
2.884024e+03,7.745499e+02
2.886916e+03,7.653652e+02
2.889809e+03,8.052012e+02
2.892702e+03,7.699205e+02
2.895594e+03,7.766900e+02
2.898487e+03,7.708295e+02
2.901380e+03,7.779362e+02
2.904273e+03,7.592372e+02
2.907165e+03,7.850303e+02
2.910058e+03,7.592819e+02
2.912951e+03,7.703972e+02
2.915844e+03,7.560133e+02
2.918736e+03,7.455065e+02
2.921629e+03,7.557493e+02
2.924521e+03,7.378684e+02
2.927414e+03,7.443463e+02
2.930307e+03,7.275062e+02
2.933199e+03,7.383740e+02
2.936092e+03,7.459051e+02
2.938985e+03,7.153444e+02
2.941878e+03,7.402895e+02
2.944770e+03,7.221675e+02
2.947663e+03,7.165999e+02
2.950556e+03,7.198168e+02
2.953448e+03,7.371746e+02
2.956341e+03,7.505358e+02
2.959234e+03,7.416273e+02
2.962127e+03,7.102661e+02
2.965019e+03,7.107861e+02
2.967912e+03,7.033412e+02
2.970805e+03,7.153604e+02
2.973698e+03,7.263840e+02
2.976590e+03,7.115037e+02
2.979483e+03,7.178046e+02
2.982375e+03,7.189211e+02
2.985268e+03,7.262963e+02
2.988161e+03,6.778202e+02
2.991053e+03,6.951663e+02
2.993946e+03,6.937146e+02
2.996839e+03,6.987783e+02
2.999732e+03,6.674106e+02
3.002624e+03,6.835079e+02
3.005517e+03,6.805263e+02
3.008410e+03,6.999464e+02
3.011302e+03,6.786719e+02
3.014195e+03,6.881586e+02
3.017088e+03,6.914512e+02
3.019981e+03,6.745344e+02
3.022873e+03,6.893662e+02
3.025766e+03,6.819196e+02
3.028659e+03,6.955089e+02
3.031552e+03,6.632538e+02
3.034444e+03,6.831529e+02
3.037337e+03,6.653004e+02
3.040229e+03,6.944218e+02
3.043122e+03,6.649270e+02
3.046015e+03,6.534478e+02
3.048907e+03,6.599338e+02
3.051800e+03,6.738680e+02
3.054693e+03,6.550748e+02
3.057586e+03,6.750040e+02
3.060478e+03,6.581215e+02
3.063371e+03,6.384573e+02
3.066264e+03,6.549084e+02
3.069156e+03,6.629816e+02
3.072049e+03,6.955801e+02
3.074942e+03,6.673498e+02
3.077835e+03,6.538766e+02
3.080727e+03,6.713947e+02
3.083620e+03,6.636548e+02
3.086513e+03,6.687805e+02
3.089406e+03,7.028159e+02
3.092298e+03,6.638855e+02
3.095191e+03,6.852225e+02
3.098083e+03,6.459083e+02
3.100976e+03,6.622133e+02
3.103869e+03,6.401576e+02
3.106761e+03,6.646042e+02
3.109654e+03,6.804460e+02
3.112547e+03,6.449492e+02
3.115440e+03,6.877574e+02
3.118332e+03,6.400443e+02
3.121225e+03,6.710560e+02
3.124118e+03,6.754314e+02
3.127010e+03,6.546190e+02
3.129903e+03,6.419531e+02
3.132796e+03,6.589257e+02
3.135689e+03,6.430840e+02
3.138581e+03,6.514180e+02
3.141474e+03,6.594695e+02
3.144367e+03,6.573776e+02
3.147260e+03,6.573958e+02
3.150152e+03,6.467458e+02
3.153045e+03,6.411739e+02
3.155938e+03,6.701251e+02
3.158830e+03,6.452156e+02
3.161723e+03,6.536330e+02
3.164615e+03,6.981822e+02
3.167508e+03,6.826064e+02
3.170401e+03,6.540753e+02
3.173294e+03,6.399846e+02
3.176186e+03,6.633945e+02
3.179079e+03,6.368324e+02
3.181972e+03,6.845286e+02
3.184865e+03,6.541638e+02
3.187757e+03,6.829362e+02
3.190650e+03,6.985974e+02
3.193543e+03,6.739649e+02
3.196435e+03,6.858427e+02
3.199328e+03,6.797539e+02
3.200292e+03,6.964701e+02