File: RAMAN_data/20012023_r1/black fibre9.CSV
1.995979e+02,6.841952e+03
2.024906e+02,6.870420e+03
2.053833e+02,6.917823e+03
2.082760e+02,6.925754e+03
2.111687e+02,6.936304e+03
2.140614e+02,6.966789e+03
2.169541e+02,6.975436e+03
2.198468e+02,7.029352e+03
2.227395e+02,7.037462e+03
2.256322e+02,7.022480e+03
2.285249e+02,7.052870e+03
2.314176e+02,7.092642e+03
2.343103e+02,7.147919e+03
2.372030e+02,7.161904e+03
2.400957e+02,7.171667e+03
2.429884e+02,7.185755e+03
2.458811e+02,7.248396e+03
2.487738e+02,7.293536e+03
2.516665e+02,7.316717e+03
2.545592e+02,7.300301e+03
2.574519e+02,7.296066e+03
2.603446e+02,7.330292e+03
2.632373e+02,7.378248e+03
2.661300e+02,7.410630e+03
2.690227e+02,7.456806e+03
2.719154e+02,7.492163e+03
2.748081e+02,7.542469e+03
2.777008e+02,7.619864e+03
2.805935e+02,7.633069e+03
2.834862e+02,7.631598e+03
2.863789e+02,7.637484e+03
2.892716e+02,7.585377e+03
2.921643e+02,7.591694e+03
2.950570e+02,7.585484e+03
2.979497e+02,7.617466e+03
3.008424e+02,7.631942e+03
3.037351e+02,7.646897e+03
3.066278e+02,7.655459e+03
3.095205e+02,7.677908e+03
3.124132e+02,7.700861e+03
3.153059e+02,7.698024e+03
3.181986e+02,7.692577e+03
3.210913e+02,7.704013e+03
3.239840e+02,7.768433e+03
3.268767e+02,7.768731e+03
3.297694e+02,7.780585e+03
3.326621e+02,7.807883e+03
3.355548e+02,7.820659e+03
3.384475e+02,7.803955e+03
3.413402e+02,7.827452e+03
3.442329e+02,7.834572e+03
3.471256e+02,7.873240e+03
3.500183e+02,7.848314e+03
3.529110e+02,7.879368e+03
3.558037e+02,7.889182e+03
3.586964e+02,7.943977e+03
3.615891e+02,7.973587e+03
3.644818e+02,7.962980e+03
3.673745e+02,7.929435e+03
3.702672e+02,7.936322e+03
3.731599e+02,7.984681e+03
3.760526e+02,8.026513e+03
3.789453e+02,8.020813e+03
3.818380e+02,7.998071e+03
3.847307e+02,8.026336e+03
3.876234e+02,8.040964e+03
3.905161e+02,8.052908e+03
3.934088e+02,8.056897e+03
3.963015e+02,8.056936e+03
3.991942e+02,8.048500e+03
4.020869e+02,8.091729e+03
4.049796e+02,8.082538e+03
4.078723e+02,8.080541e+03
4.107650e+02,8.093977e+03
4.136577e+02,8.117195e+03
4.165504e+02,8.125508e+03
4.194431e+02,8.143175e+03
4.223358e+02,8.128404e+03
4.252285e+02,8.142684e+03
4.281212e+02,8.161820e+03
4.310139e+02,8.134288e+03
4.339066e+02,8.161224e+03
4.367993e+02,8.162892e+03
4.396920e+02,8.184751e+03
4.425847e+02,8.174780e+03
4.454774e+02,8.183349e+03
4.483701e+02,8.218668e+03
4.512628e+02,8.214488e+03
4.541555e+02,8.217028e+03
4.570482e+02,8.218222e+03
4.599409e+02,8.204989e+03
4.628336e+02,8.203708e+03
4.657263e+02,8.238988e+03
4.686190e+02,8.225192e+03
4.715117e+02,8.242590e+03
4.744044e+02,8.217735e+03
4.772971e+02,8.218793e+03
4.801898e+02,8.201229e+03
4.830825e+02,8.233759e+03
4.859752e+02,8.260161e+03
4.888679e+02,8.236252e+03
4.917606e+02,8.250325e+03
4.946533e+02,8.262931e+03
4.975460e+02,8.265576e+03
5.004387e+02,8.265664e+03
5.033314e+02,8.266884e+03
5.062241e+02,8.251378e+03
5.091168e+02,8.261271e+03
5.120095e+02,8.257625e+03
5.149022e+02,8.272847e+03
5.177949e+02,8.314371e+03
5.206876e+02,8.278082e+03
5.235803e+02,8.291551e+03
5.264730e+02,8.310110e+03
5.293657e+02,8.286915e+03
5.322584e+02,8.291970e+03
5.351511e+02,8.311154e+03
5.380438e+02,8.337494e+03
5.409365e+02,8.347765e+03
5.438292e+02,8.344265e+03
5.467219e+02,8.390284e+03
5.496146e+02,8.386376e+03
5.525073e+02,8.427449e+03
5.554000e+02,8.484048e+03
5.582927e+02,8.511674e+03
5.611854e+02,8.467583e+03
5.640781e+02,8.431116e+03
5.669708e+02,8.335106e+03
5.698635e+02,8.323483e+03
5.727562e+02,8.272588e+03
5.756489e+02,8.272525e+03
5.785416e+02,8.280962e+03
5.814343e+02,8.285160e+03
5.843270e+02,8.273018e+03
5.872197e+02,8.239415e+03
5.901124e+02,8.257085e+03
5.930051e+02,8.286546e+03
5.958978e+02,8.325410e+03
5.987905e+02,8.297222e+03
6.016832e+02,8.295120e+03
6.045759e+02,8.325552e+03
6.074686e+02,8.396615e+03
6.103613e+02,8.418456e+03
6.132540e+02,8.380705e+03
6.161467e+02,8.291538e+03
6.190394e+02,8.247869e+03
6.219321e+02,8.218339e+03
6.248248e+02,8.240774e+03
6.277175e+02,8.245843e+03
6.306102e+02,8.199156e+03
6.335029e+02,8.198840e+03
6.363956e+02,8.189357e+03
6.392883e+02,8.184245e+03
6.421810e+02,8.172720e+03
6.450737e+02,8.149110e+03
6.479664e+02,8.159550e+03
6.508591e+02,8.146590e+03
6.537518e+02,8.145941e+03
6.566445e+02,8.136968e+03
6.595372e+02,8.130899e+03
6.624299e+02,8.129391e+03
6.653226e+02,8.136707e+03
6.682153e+02,8.129434e+03
6.711080e+02,8.127033e+03
6.740007e+02,8.112860e+03
6.768934e+02,8.091777e+03
6.797861e+02,8.077963e+03
6.826788e+02,8.118176e+03
6.855715e+02,8.089671e+03
6.884642e+02,8.071958e+03
6.913569e+02,8.029994e+03
6.942496e+02,8.026041e+03
6.971423e+02,8.022330e+03
7.000350e+02,8.006829e+03
7.029277e+02,8.033424e+03
7.058204e+02,7.995593e+03
7.087131e+02,7.996234e+03
7.116058e+02,7.973615e+03
7.144985e+02,7.987716e+03
7.173912e+02,7.970834e+03
7.202839e+02,7.936979e+03
7.231766e+02,7.932390e+03
7.260693e+02,7.934428e+03
7.289620e+02,7.926809e+03
7.318547e+02,7.903672e+03
7.347474e+02,7.866252e+03
7.376401e+02,7.871300e+03
7.405328e+02,7.884680e+03
7.434255e+02,7.852465e+03
7.463182e+02,7.888657e+03
7.492109e+02,7.853945e+03
7.521036e+02,7.821786e+03
7.549963e+02,7.826557e+03
7.578890e+02,7.854583e+03
7.607817e+02,7.856550e+03
7.636744e+02,7.822633e+03
7.665671e+02,7.783291e+03
7.694598e+02,7.802516e+03
7.723525e+02,7.753282e+03
7.752452e+02,7.780312e+03
7.781379e+02,7.819411e+03
7.810306e+02,7.811764e+03
7.839233e+02,7.780325e+03
7.868160e+02,7.777990e+03
7.897087e+02,7.773837e+03
7.926014e+02,7.777548e+03
7.954941e+02,7.740525e+03
7.983868e+02,7.676828e+03
8.012795e+02,7.660868e+03
8.041722e+02,7.632389e+03
8.070649e+02,7.648915e+03
8.099576e+02,7.648542e+03
8.128503e+02,7.611989e+03
8.157430e+02,7.589768e+03
8.186357e+02,7.568208e+03
8.215284e+02,7.598555e+03
8.244211e+02,7.573542e+03
8.273138e+02,7.557467e+03
8.302065e+02,7.567580e+03
8.330992e+02,7.556317e+03
8.359919e+02,7.557990e+03
8.388846e+02,7.532729e+03
8.417773e+02,7.514977e+03
8.446700e+02,7.503848e+03
8.475627e+02,7.498973e+03
8.504554e+02,7.468481e+03
8.533481e+02,7.462853e+03
8.562408e+02,7.465943e+03
8.591335e+02,7.431702e+03
8.620262e+02,7.406243e+03
8.649189e+02,7.401624e+03
8.678116e+02,7.396928e+03
8.707043e+02,7.407643e+03
8.735970e+02,7.357531e+03
8.764897e+02,7.364265e+03
8.793824e+02,7.360167e+03
8.822751e+02,7.329500e+03
8.851678e+02,7.319550e+03
8.880605e+02,7.302841e+03
8.909532e+02,7.291272e+03
8.938459e+02,7.283774e+03
8.967386e+02,7.277855e+03
8.996313e+02,7.245919e+03
9.025240e+02,7.238328e+03
9.054167e+02,7.238148e+03
9.083094e+02,7.209380e+03
9.112021e+02,7.217226e+03
9.140948e+02,7.167200e+03
9.169875e+02,7.156154e+03
9.198802e+02,7.161713e+03
9.227729e+02,7.121884e+03
9.256656e+02,7.129620e+03
9.285583e+02,7.106481e+03
9.314510e+02,7.089582e+03
9.343438e+02,7.100322e+03
9.372365e+02,7.061334e+03
9.401292e+02,7.052281e+03
9.430219e+02,7.055168e+03
9.459146e+02,7.038614e+03
9.488073e+02,7.060303e+03
9.517000e+02,6.990938e+03
9.545927e+02,6.990673e+03
9.574854e+02,6.956104e+03
9.603781e+02,6.961022e+03
9.632708e+02,6.944276e+03
9.661635e+02,6.938149e+03
9.690562e+02,6.934092e+03
9.719489e+02,6.898359e+03
9.748416e+02,6.865351e+03
9.777343e+02,6.861259e+03
9.806270e+02,6.866412e+03
9.835197e+02,6.818824e+03
9.864124e+02,6.831890e+03
9.893051e+02,6.809775e+03
9.921978e+02,6.820790e+03
9.950905e+02,6.807923e+03
9.979832e+02,6.796956e+03
1.000876e+03,6.749167e+03
1.003769e+03,6.738618e+03
1.006661e+03,6.754633e+03
1.009554e+03,6.757325e+03
1.012447e+03,6.733947e+03
1.015339e+03,6.714856e+03
1.018232e+03,6.682977e+03
1.021125e+03,6.697929e+03
1.024017e+03,6.670984e+03
1.026910e+03,6.661639e+03
1.029803e+03,6.640755e+03
1.032696e+03,6.650630e+03
1.035588e+03,6.655550e+03
1.038481e+03,6.620905e+03
1.041374e+03,6.596205e+03
1.044266e+03,6.598205e+03
1.047159e+03,6.584148e+03
1.050052e+03,6.559855e+03
1.052944e+03,6.551589e+03
1.055837e+03,6.536473e+03
1.058730e+03,6.523817e+03
1.061623e+03,6.513062e+03
1.064515e+03,6.525466e+03
1.067408e+03,6.531370e+03
1.070301e+03,6.535020e+03
1.073193e+03,6.544948e+03
1.076086e+03,6.507361e+03
1.078979e+03,6.485378e+03
1.081871e+03,6.534930e+03
1.084764e+03,6.523572e+03
1.087657e+03,6.502832e+03
1.090550e+03,6.469862e+03
1.093442e+03,6.446012e+03
1.096335e+03,6.414323e+03
1.099228e+03,6.395147e+03
1.102120e+03,6.381186e+03
1.105013e+03,6.366213e+03
1.107906e+03,6.329431e+03
1.110798e+03,6.354978e+03
1.113691e+03,6.329901e+03
1.116584e+03,6.319729e+03
1.119477e+03,6.332362e+03
1.122369e+03,6.293221e+03
1.125262e+03,6.280146e+03
1.128155e+03,6.257047e+03
1.131047e+03,6.239540e+03
1.133940e+03,6.267693e+03
1.136833e+03,6.214547e+03
1.139725e+03,6.204851e+03
1.142618e+03,6.210675e+03
1.145511e+03,6.204671e+03
1.148404e+03,6.193700e+03
1.151296e+03,6.169000e+03
1.154189e+03,6.169628e+03
1.157082e+03,6.147368e+03
1.159974e+03,6.112459e+03
1.162867e+03,6.128363e+03
1.165760e+03,6.102523e+03
1.168652e+03,6.095296e+03
1.171545e+03,6.080603e+03
1.174438e+03,6.083674e+03
1.177331e+03,6.059432e+03
1.180223e+03,6.055159e+03
1.183116e+03,6.084012e+03
1.186009e+03,6.046531e+03
1.188901e+03,6.042197e+03
1.191794e+03,6.033858e+03
1.194687e+03,6.027013e+03
1.197579e+03,6.033086e+03
1.200472e+03,5.987177e+03
1.203365e+03,5.972099e+03
1.206258e+03,5.963293e+03
1.209150e+03,5.943280e+03
1.212043e+03,5.943656e+03
1.214936e+03,5.907650e+03
1.217828e+03,5.895851e+03
1.220721e+03,5.935491e+03
1.223614e+03,5.915034e+03
1.226506e+03,5.917352e+03
1.229399e+03,5.902335e+03
1.232292e+03,5.865292e+03
1.235185e+03,5.845847e+03
1.238077e+03,5.855624e+03
1.240970e+03,5.865360e+03
1.243863e+03,5.824693e+03
1.246755e+03,5.817458e+03
1.249648e+03,5.810180e+03
1.252541e+03,5.779915e+03
1.255433e+03,5.781297e+03
1.258326e+03,5.778253e+03
1.261219e+03,5.774678e+03
1.264112e+03,5.719161e+03
1.267004e+03,5.731721e+03
1.269897e+03,5.715333e+03
1.272790e+03,5.721700e+03
1.275682e+03,5.718182e+03
1.278575e+03,5.692486e+03
1.281468e+03,5.681600e+03
1.284360e+03,5.678035e+03
1.287253e+03,5.688445e+03
1.290146e+03,5.664476e+03
1.293039e+03,5.654116e+03
1.295931e+03,5.626896e+03
1.298824e+03,5.606737e+03
1.301717e+03,5.634436e+03
1.304609e+03,5.631029e+03
1.307502e+03,5.631014e+03
1.310395e+03,5.612058e+03
1.313287e+03,5.613033e+03
1.316180e+03,5.591948e+03
1.319073e+03,5.592866e+03
1.321966e+03,5.581335e+03
1.324858e+03,5.566651e+03
1.327751e+03,5.551749e+03
1.330644e+03,5.568808e+03
1.333536e+03,5.550972e+03
1.336429e+03,5.568547e+03
1.339322e+03,5.508945e+03
1.342214e+03,5.495673e+03
1.345107e+03,5.514347e+03
1.348000e+03,5.489467e+03
1.350893e+03,5.482298e+03
1.353785e+03,5.502263e+03
1.356678e+03,5.473677e+03
1.359571e+03,5.442921e+03
1.362463e+03,5.448146e+03
1.365356e+03,5.462245e+03
1.368249e+03,5.452516e+03
1.371141e+03,5.423985e+03
1.374034e+03,5.415673e+03
1.376927e+03,5.423484e+03
1.379820e+03,5.407829e+03
1.382712e+03,5.414684e+03
1.385605e+03,5.391406e+03
1.388498e+03,5.354958e+03
1.391390e+03,5.342944e+03
1.394283e+03,5.368884e+03
1.397176e+03,5.340493e+03
1.400068e+03,5.329746e+03
1.402961e+03,5.329856e+03
1.405854e+03,5.290435e+03
1.408747e+03,5.306766e+03
1.411639e+03,5.307932e+03
1.414532e+03,5.299950e+03
1.417425e+03,5.293344e+03
1.420317e+03,5.253075e+03
1.423210e+03,5.242558e+03
1.426103e+03,5.253643e+03
1.428995e+03,5.253787e+03
1.431888e+03,5.229835e+03
1.434781e+03,5.216667e+03
1.437674e+03,5.199042e+03
1.440566e+03,5.203282e+03
1.443459e+03,5.204688e+03
1.446352e+03,5.228019e+03
1.449244e+03,5.228933e+03
1.452137e+03,5.224703e+03
1.455030e+03,5.199019e+03
1.457922e+03,5.186191e+03
1.460815e+03,5.178138e+03
1.463708e+03,5.178633e+03
1.466601e+03,5.166408e+03
1.469493e+03,5.136721e+03
1.472386e+03,5.115943e+03
1.475279e+03,5.124153e+03
1.478171e+03,5.106796e+03
1.481064e+03,5.111463e+03
1.483957e+03,5.085079e+03
1.486849e+03,5.092478e+03
1.489742e+03,5.111208e+03
1.492635e+03,5.075932e+03
1.495528e+03,5.074069e+03
1.498420e+03,5.083164e+03
1.501313e+03,5.041436e+03
1.504206e+03,5.052176e+03
1.507098e+03,5.067508e+03
1.509991e+03,5.057193e+03
1.512884e+03,5.050464e+03
1.515776e+03,5.037691e+03
1.518669e+03,5.030354e+03
1.521562e+03,4.995669e+03
1.524455e+03,4.985382e+03
1.527347e+03,4.963234e+03
1.530240e+03,4.934021e+03
1.533133e+03,4.957380e+03
1.536025e+03,4.962667e+03
1.538918e+03,4.916174e+03
1.541811e+03,4.928311e+03
1.544703e+03,4.890888e+03
1.547596e+03,4.902366e+03
1.550489e+03,4.923731e+03
1.553382e+03,4.944470e+03
1.556274e+03,4.897564e+03
1.559167e+03,4.901576e+03
1.562060e+03,4.923864e+03
1.564952e+03,4.938435e+03
1.567845e+03,4.971717e+03
1.570738e+03,4.977159e+03
1.573630e+03,4.978154e+03
1.576523e+03,4.940797e+03
1.579416e+03,4.905145e+03
1.582309e+03,4.909784e+03
1.585201e+03,4.874583e+03
1.588094e+03,4.859312e+03
1.590987e+03,4.827654e+03
1.593879e+03,4.820968e+03
1.596772e+03,4.807132e+03
1.599665e+03,4.808690e+03
1.602557e+03,4.800655e+03
1.605450e+03,4.767556e+03
1.608343e+03,4.752515e+03
1.611236e+03,4.760078e+03
1.614128e+03,4.763058e+03
1.617021e+03,4.745800e+03
1.619914e+03,4.737816e+03
1.622806e+03,4.725362e+03
1.625699e+03,4.739919e+03
1.628592e+03,4.734437e+03
1.631484e+03,4.715694e+03
1.634377e+03,4.699533e+03
1.637270e+03,4.668395e+03
1.640163e+03,4.655062e+03
1.643055e+03,4.640056e+03
1.645948e+03,4.631701e+03
1.648841e+03,4.622856e+03
1.651733e+03,4.629067e+03
1.654626e+03,4.591346e+03
1.657519e+03,4.604739e+03
1.660411e+03,4.597547e+03
1.663304e+03,4.579954e+03
1.666197e+03,4.576303e+03
1.669090e+03,4.565843e+03
1.671982e+03,4.572430e+03
1.674875e+03,4.560624e+03
1.677768e+03,4.575282e+03
1.680660e+03,4.559380e+03
1.683553e+03,4.538375e+03
1.686446e+03,4.510697e+03
1.689339e+03,4.516019e+03
1.692231e+03,4.500393e+03
1.695124e+03,4.475936e+03
1.698017e+03,4.444524e+03
1.700909e+03,4.453125e+03
1.703802e+03,4.455818e+03
1.706695e+03,4.438167e+03
1.709587e+03,4.443251e+03
1.712480e+03,4.408871e+03
1.715373e+03,4.393200e+03
1.718266e+03,4.403233e+03
1.721158e+03,4.388034e+03
1.724051e+03,4.374609e+03
1.726944e+03,4.395076e+03
1.729836e+03,4.376296e+03
1.732729e+03,4.349893e+03
1.735622e+03,4.346760e+03
1.738514e+03,4.348897e+03
1.741407e+03,4.344476e+03
1.744300e+03,4.312075e+03
1.747193e+03,4.305577e+03
1.750085e+03,4.295654e+03
1.752978e+03,4.304576e+03
1.755871e+03,4.283806e+03
1.758763e+03,4.294102e+03
1.761656e+03,4.247690e+03
1.764549e+03,4.263079e+03
1.767441e+03,4.235365e+03
1.770334e+03,4.247468e+03
1.773227e+03,4.233644e+03
1.776120e+03,4.225183e+03
1.779012e+03,4.205807e+03
1.781905e+03,4.201092e+03
1.784798e+03,4.231109e+03
1.787690e+03,4.188140e+03
1.790583e+03,4.169039e+03
1.793476e+03,4.163569e+03
1.796368e+03,4.155734e+03
1.799261e+03,4.166177e+03
1.802154e+03,4.146494e+03
1.805047e+03,4.150118e+03
1.807939e+03,4.105076e+03
1.810832e+03,4.110301e+03
1.813725e+03,4.120419e+03
1.816617e+03,4.108828e+03
1.819510e+03,4.083017e+03
1.822403e+03,4.067134e+03
1.825295e+03,4.089012e+03
1.828188e+03,4.045179e+03
1.831081e+03,4.051788e+03
1.833974e+03,4.042809e+03
1.836866e+03,4.009659e+03
1.839759e+03,4.029638e+03
1.842652e+03,4.015766e+03
1.845544e+03,4.035804e+03
1.848437e+03,3.995607e+03
1.851330e+03,3.987444e+03
1.854222e+03,3.968129e+03
1.857115e+03,3.990444e+03
1.860008e+03,3.970579e+03
1.862901e+03,3.966583e+03
1.865793e+03,3.953724e+03
1.868686e+03,3.919423e+03
1.871579e+03,3.935279e+03
1.874471e+03,3.939462e+03
1.877364e+03,3.939428e+03
1.880257e+03,3.923665e+03
1.883149e+03,3.895151e+03
1.886042e+03,3.847469e+03
1.888935e+03,3.872488e+03
1.891828e+03,3.865276e+03
1.894720e+03,3.850818e+03
1.897613e+03,3.824787e+03
1.900506e+03,3.831100e+03
1.903398e+03,3.828723e+03
1.906291e+03,3.819011e+03
1.909184e+03,3.831663e+03
1.912076e+03,3.809269e+03
1.914969e+03,3.782007e+03
1.917862e+03,3.760768e+03
1.920755e+03,3.770333e+03
1.923647e+03,3.754851e+03
1.926540e+03,3.782730e+03
1.929433e+03,3.755468e+03
1.932325e+03,3.737069e+03
1.935218e+03,3.713324e+03
1.938111e+03,3.710845e+03
1.941003e+03,3.721855e+03
1.943896e+03,3.700129e+03
1.946789e+03,3.687798e+03
1.949682e+03,3.667230e+03
1.952574e+03,3.658256e+03
1.955467e+03,3.662202e+03
1.958360e+03,3.661763e+03
1.961252e+03,3.635646e+03
1.964145e+03,3.635786e+03
1.967038e+03,3.631093e+03
1.969930e+03,3.637718e+03
1.972823e+03,3.591660e+03
1.975716e+03,3.603069e+03
1.978609e+03,3.597601e+03
1.981501e+03,3.604996e+03
1.984394e+03,3.573098e+03
1.987287e+03,3.584129e+03
1.990179e+03,3.563838e+03
1.993072e+03,3.532595e+03
1.995965e+03,3.535268e+03
1.998857e+03,3.526039e+03
2.001750e+03,3.523538e+03
2.004643e+03,3.507402e+03
2.007536e+03,3.505819e+03
2.010428e+03,3.485782e+03
2.013321e+03,3.491334e+03
2.016214e+03,3.474141e+03
2.019106e+03,3.454605e+03
2.021999e+03,3.462822e+03
2.024892e+03,3.449142e+03
2.027784e+03,3.410105e+03
2.030677e+03,3.411656e+03
2.033570e+03,3.444568e+03
2.036463e+03,3.395746e+03
2.039355e+03,3.366682e+03
2.042248e+03,3.348135e+03
2.045141e+03,3.386384e+03
2.048033e+03,3.367335e+03
2.050926e+03,3.357083e+03
2.053819e+03,3.335537e+03
2.056711e+03,3.335416e+03
2.059604e+03,3.332677e+03
2.062497e+03,3.345405e+03
2.065390e+03,3.318469e+03
2.068282e+03,3.332743e+03
2.071175e+03,3.290859e+03
2.074068e+03,3.273289e+03
2.076960e+03,3.263652e+03
2.079853e+03,3.245072e+03
2.082746e+03,3.249042e+03
2.085638e+03,3.231489e+03
2.088531e+03,3.254583e+03
2.091424e+03,3.223865e+03
2.094316e+03,3.237211e+03
2.097209e+03,3.203597e+03
2.100102e+03,3.209711e+03
2.102995e+03,3.182019e+03
2.105887e+03,3.157711e+03
2.108780e+03,3.190163e+03
2.111673e+03,3.157800e+03
2.114565e+03,3.161785e+03
2.117458e+03,3.153120e+03
2.120351e+03,3.158127e+03
2.123244e+03,3.146711e+03
2.126136e+03,3.100558e+03
2.129029e+03,3.090417e+03
2.131922e+03,3.105906e+03
2.134814e+03,3.101116e+03
2.137707e+03,3.113119e+03
2.140600e+03,3.060146e+03
2.143492e+03,3.039490e+03
2.146385e+03,3.042569e+03
2.149278e+03,3.043861e+03
2.152170e+03,3.058143e+03
2.155063e+03,3.030815e+03
2.157956e+03,3.021764e+03
2.160849e+03,3.017727e+03
2.163741e+03,3.024779e+03
2.166634e+03,2.999861e+03
2.169527e+03,3.022531e+03
2.172419e+03,3.001238e+03
2.175312e+03,2.999177e+03
2.178205e+03,2.961105e+03
2.181098e+03,2.951577e+03
2.183990e+03,2.975200e+03
2.186883e+03,2.948400e+03
2.189776e+03,2.914794e+03
2.192668e+03,2.932618e+03
2.195561e+03,2.910463e+03
2.198454e+03,2.905101e+03
2.201346e+03,2.911128e+03
2.204239e+03,2.904952e+03
2.207132e+03,2.908949e+03
2.210024e+03,2.873782e+03
2.212917e+03,2.861287e+03
2.215810e+03,2.872632e+03
2.218703e+03,2.851245e+03
2.221595e+03,2.867874e+03
2.224488e+03,2.830147e+03
2.227381e+03,2.810784e+03
2.230273e+03,2.837578e+03
2.233166e+03,2.831799e+03
2.236059e+03,2.797513e+03
2.238952e+03,2.787705e+03
2.241844e+03,2.757079e+03
2.244737e+03,2.779093e+03
2.247630e+03,2.772530e+03
2.250522e+03,2.777567e+03
2.253415e+03,2.754892e+03
2.256308e+03,2.733906e+03
2.259200e+03,2.733304e+03
2.262093e+03,2.712294e+03
2.264986e+03,2.694015e+03
2.267879e+03,2.699017e+03
2.270771e+03,2.683969e+03
2.273664e+03,2.664336e+03
2.276557e+03,2.689860e+03
2.279449e+03,2.682495e+03
2.282342e+03,2.676849e+03
2.285235e+03,2.664855e+03
2.288127e+03,2.652376e+03
2.291020e+03,2.629785e+03
2.293913e+03,2.639610e+03
2.296805e+03,2.645071e+03
2.299698e+03,2.616504e+03
2.302591e+03,2.596925e+03
2.305484e+03,2.618227e+03
2.308376e+03,2.593916e+03
2.311269e+03,2.576996e+03
2.314162e+03,2.595257e+03
2.317054e+03,2.583933e+03
2.319947e+03,2.569112e+03
2.322840e+03,2.597325e+03
2.325733e+03,2.558601e+03
2.328625e+03,2.546838e+03
2.331518e+03,2.545263e+03
2.334411e+03,2.519103e+03
2.337303e+03,2.526320e+03
2.340196e+03,2.498754e+03
2.343089e+03,2.510477e+03
2.345981e+03,2.525649e+03
2.348874e+03,2.509032e+03
2.351767e+03,2.498003e+03
2.354659e+03,2.471267e+03
2.357552e+03,2.472758e+03
2.360445e+03,2.508883e+03
2.363338e+03,2.455681e+03
2.366230e+03,2.450480e+03
2.369123e+03,2.450439e+03
2.372016e+03,2.437196e+03
2.374908e+03,2.438375e+03
2.377801e+03,2.436460e+03
2.380694e+03,2.411215e+03
2.383587e+03,2.428081e+03
2.386479e+03,2.419516e+03
2.389372e+03,2.403212e+03
2.392265e+03,2.407499e+03
2.395157e+03,2.389168e+03
2.398050e+03,2.398008e+03
2.400943e+03,2.370996e+03
2.403835e+03,2.371376e+03
2.406728e+03,2.389330e+03
2.409621e+03,2.328926e+03
2.412513e+03,2.329718e+03
2.415406e+03,2.345001e+03
2.418299e+03,2.330270e+03
2.421192e+03,2.310173e+03
2.424084e+03,2.330054e+03
2.426977e+03,2.320112e+03
2.429870e+03,2.308136e+03
2.432762e+03,2.313855e+03
2.435655e+03,2.301935e+03
2.438548e+03,2.296652e+03
2.441441e+03,2.279570e+03
2.444333e+03,2.277037e+03
2.447226e+03,2.268749e+03
2.450119e+03,2.254615e+03
2.453011e+03,2.277991e+03
2.455904e+03,2.255039e+03
2.458797e+03,2.252719e+03
2.461689e+03,2.248960e+03
2.464582e+03,2.225737e+03
2.467475e+03,2.219960e+03
2.470367e+03,2.226373e+03
2.473260e+03,2.212548e+03
2.476153e+03,2.207395e+03
2.479046e+03,2.201068e+03
2.481938e+03,2.216501e+03
2.484831e+03,2.208239e+03
2.487724e+03,2.210547e+03
2.490616e+03,2.158975e+03
2.493509e+03,2.187168e+03
2.496402e+03,2.157295e+03
2.499295e+03,2.178635e+03
2.502187e+03,2.168892e+03
2.505080e+03,2.153192e+03
2.507973e+03,2.150905e+03
2.510865e+03,2.166206e+03
2.513758e+03,2.144535e+03
2.516651e+03,2.134615e+03
2.519543e+03,2.128343e+03
2.522436e+03,2.126505e+03
2.525329e+03,2.089714e+03
2.528221e+03,2.118099e+03
2.531114e+03,2.106325e+03
2.534007e+03,2.110093e+03
2.536900e+03,2.072240e+03
2.539792e+03,2.106588e+03
2.542685e+03,2.090150e+03
2.545578e+03,2.099427e+03
2.548470e+03,2.081555e+03
2.551363e+03,2.102759e+03
2.554256e+03,2.081083e+03
2.557149e+03,2.051274e+03
2.560041e+03,2.056810e+03
2.562934e+03,2.056636e+03
2.565827e+03,2.043790e+03
2.568719e+03,2.040546e+03
2.571612e+03,2.030270e+03
2.574505e+03,2.036649e+03
2.577397e+03,2.052572e+03
2.580290e+03,2.032678e+03
2.583183e+03,2.012154e+03
2.586075e+03,2.016734e+03
2.588968e+03,2.010725e+03
2.591861e+03,1.986659e+03
2.594754e+03,2.002585e+03
2.597646e+03,1.999682e+03
2.600539e+03,2.004083e+03
2.603432e+03,1.976975e+03
2.606324e+03,1.977109e+03
2.609217e+03,1.975310e+03
2.612110e+03,1.946979e+03
2.615003e+03,1.960124e+03
2.617895e+03,1.972861e+03
2.620788e+03,1.956957e+03
2.623681e+03,1.972080e+03
2.626573e+03,1.950683e+03
2.629466e+03,1.952588e+03
2.632359e+03,1.931916e+03
2.635251e+03,1.936390e+03
2.638144e+03,1.923015e+03
2.641037e+03,1.930212e+03
2.643929e+03,1.936906e+03
2.646822e+03,1.907759e+03
2.649715e+03,1.891921e+03
2.652608e+03,1.914843e+03
2.655500e+03,1.879577e+03
2.658393e+03,1.890713e+03
2.661286e+03,1.893922e+03
2.664178e+03,1.868495e+03
2.667071e+03,1.871123e+03
2.669964e+03,1.881344e+03
2.672857e+03,1.845833e+03
2.675749e+03,1.855233e+03
2.678642e+03,1.852772e+03
2.681535e+03,1.858047e+03
2.684427e+03,1.823759e+03
2.687320e+03,1.853739e+03
2.690213e+03,1.873305e+03
2.693105e+03,1.846919e+03
2.695998e+03,1.859760e+03
2.698891e+03,1.849225e+03
2.701783e+03,1.832314e+03
2.704676e+03,1.810454e+03
2.707569e+03,1.816412e+03
2.710462e+03,1.805749e+03
2.713354e+03,1.803719e+03
2.716247e+03,1.803115e+03
2.719140e+03,1.816836e+03
2.722032e+03,1.810942e+03
2.724925e+03,1.795928e+03
2.727818e+03,1.809719e+03
2.730711e+03,1.773352e+03
2.733603e+03,1.768917e+03
2.736496e+03,1.783973e+03
2.739389e+03,1.760034e+03
2.742281e+03,1.774162e+03
2.745174e+03,1.764066e+03
2.748067e+03,1.755491e+03
2.750959e+03,1.741391e+03
2.753852e+03,1.761421e+03
2.756745e+03,1.746836e+03
2.759637e+03,1.765151e+03
2.762530e+03,1.769199e+03
2.765423e+03,1.743735e+03
2.768316e+03,1.753256e+03
2.771208e+03,1.722422e+03
2.774101e+03,1.720659e+03
2.776994e+03,1.756791e+03
2.779886e+03,1.722773e+03
2.782779e+03,1.693987e+03
2.785672e+03,1.702432e+03
2.788565e+03,1.695890e+03
2.791457e+03,1.724449e+03
2.794350e+03,1.688209e+03
2.797243e+03,1.698631e+03
2.800135e+03,1.708715e+03
2.803028e+03,1.682799e+03
2.805921e+03,1.695554e+03
2.808813e+03,1.681288e+03
2.811706e+03,1.673074e+03
2.814599e+03,1.698337e+03
2.817491e+03,1.720887e+03
2.820384e+03,1.653045e+03
2.823277e+03,1.657193e+03
2.826170e+03,1.651085e+03
2.829062e+03,1.665823e+03
2.831955e+03,1.667036e+03
2.834848e+03,1.667491e+03
2.837740e+03,1.670604e+03
2.840633e+03,1.634645e+03
2.843526e+03,1.642423e+03
2.846419e+03,1.642647e+03
2.849311e+03,1.642902e+03
2.852204e+03,1.609686e+03
2.855097e+03,1.647671e+03
2.857990e+03,1.637597e+03
2.860882e+03,1.612498e+03
2.863775e+03,1.652296e+03
2.866667e+03,1.618705e+03
2.869560e+03,1.619604e+03
2.872453e+03,1.632163e+03
2.875345e+03,1.618549e+03
2.878238e+03,1.639347e+03
2.881131e+03,1.629979e+03
2.884024e+03,1.636767e+03
2.886916e+03,1.629240e+03
2.889809e+03,1.644661e+03
2.892702e+03,1.611919e+03
2.895594e+03,1.620066e+03
2.898487e+03,1.625678e+03
2.901380e+03,1.572876e+03
2.904273e+03,1.616008e+03
2.907165e+03,1.618566e+03
2.910058e+03,1.618193e+03
2.912951e+03,1.599939e+03
2.915844e+03,1.602954e+03
2.918736e+03,1.604329e+03
2.921629e+03,1.610152e+03
2.924521e+03,1.548655e+03
2.927414e+03,1.558756e+03
2.930307e+03,1.558600e+03
2.933199e+03,1.563718e+03
2.936092e+03,1.582017e+03
2.938985e+03,1.565984e+03
2.941878e+03,1.548260e+03
2.944770e+03,1.559754e+03
2.947663e+03,1.548353e+03
2.950556e+03,1.556556e+03
2.953448e+03,1.544933e+03
2.956341e+03,1.560422e+03
2.959234e+03,1.593286e+03
2.962127e+03,1.531817e+03
2.965019e+03,1.502201e+03
2.967912e+03,1.536016e+03
2.970805e+03,1.510254e+03
2.973698e+03,1.500302e+03
2.976590e+03,1.495488e+03
2.979483e+03,1.503098e+03
2.982375e+03,1.480164e+03
2.985268e+03,1.493227e+03
2.988161e+03,1.517482e+03
2.991053e+03,1.491256e+03
2.993946e+03,1.488383e+03
2.996839e+03,1.493370e+03
2.999732e+03,1.497435e+03
3.002624e+03,1.461614e+03
3.005517e+03,1.487546e+03
3.008410e+03,1.501161e+03
3.011302e+03,1.497372e+03
3.014195e+03,1.445934e+03
3.017088e+03,1.488099e+03
3.019981e+03,1.482230e+03
3.022873e+03,1.455358e+03
3.025766e+03,1.483280e+03
3.028659e+03,1.434962e+03
3.031552e+03,1.457009e+03
3.034444e+03,1.461703e+03
3.037337e+03,1.460686e+03
3.040229e+03,1.454047e+03
3.043122e+03,1.479837e+03
3.046015e+03,1.488674e+03
3.048907e+03,1.434127e+03
3.051800e+03,1.446741e+03
3.054693e+03,1.427537e+03
3.057586e+03,1.458672e+03
3.060478e+03,1.472438e+03
3.063371e+03,1.430999e+03
3.066264e+03,1.439798e+03
3.069156e+03,1.446193e+03
3.072049e+03,1.426837e+03
3.074942e+03,1.452747e+03
3.077835e+03,1.429206e+03
3.080727e+03,1.408973e+03
3.083620e+03,1.373542e+03
3.086513e+03,1.450646e+03
3.089406e+03,1.472746e+03
3.092298e+03,1.412980e+03
3.095191e+03,1.409451e+03
3.098083e+03,1.393126e+03
3.100976e+03,1.461294e+03
3.103869e+03,1.429223e+03
3.106761e+03,1.386641e+03
3.109654e+03,1.397177e+03
3.112547e+03,1.439876e+03
3.115440e+03,1.428131e+03
3.118332e+03,1.412537e+03
3.121225e+03,1.418444e+03
3.124118e+03,1.408959e+03
3.127010e+03,1.397756e+03
3.129903e+03,1.402542e+03
3.132796e+03,1.462084e+03
3.135689e+03,1.382322e+03
3.138581e+03,1.415303e+03
3.141474e+03,1.414555e+03
3.144367e+03,1.423828e+03
3.147260e+03,1.406356e+03
3.150152e+03,1.446045e+03
3.153045e+03,1.420740e+03
3.155938e+03,1.454555e+03
3.158830e+03,1.408659e+03
3.161723e+03,1.464877e+03
3.164615e+03,1.401302e+03
3.167508e+03,1.436931e+03
3.170401e+03,1.398911e+03
3.173294e+03,1.403898e+03
3.176186e+03,1.406241e+03
3.179079e+03,1.448652e+03
3.181972e+03,1.424240e+03
3.184865e+03,1.396522e+03
3.187757e+03,1.445324e+03
3.190650e+03,1.445383e+03
3.193543e+03,1.412059e+03
3.196435e+03,1.460572e+03
3.199328e+03,1.388301e+03
3.200292e+03,1.398874e+03