File: RAMAN_data/20012023_r1/black fibre11.CSV
1.995979e+02,5.896507e+03
2.024906e+02,5.916817e+03
2.053833e+02,5.931255e+03
2.082760e+02,5.935455e+03
2.111687e+02,5.926786e+03
2.140614e+02,5.930701e+03
2.169541e+02,5.946875e+03
2.198468e+02,5.952224e+03
2.227395e+02,5.957143e+03
2.256322e+02,5.960529e+03
2.285249e+02,5.972338e+03
2.314176e+02,5.986450e+03
2.343103e+02,5.986401e+03
2.372030e+02,6.019908e+03
2.400957e+02,5.994655e+03
2.429884e+02,5.978455e+03
2.458811e+02,6.010521e+03
2.487738e+02,6.011830e+03
2.516665e+02,6.049159e+03
2.545592e+02,6.029196e+03
2.574519e+02,6.030570e+03
2.603446e+02,6.050937e+03
2.632373e+02,6.047213e+03
2.661300e+02,6.058583e+03
2.690227e+02,6.057299e+03
2.719154e+02,6.041453e+03
2.748081e+02,6.052702e+03
2.777008e+02,6.068252e+03
2.805935e+02,6.059721e+03
2.834862e+02,6.072901e+03
2.863789e+02,6.058609e+03
2.892716e+02,6.053904e+03
2.921643e+02,6.069605e+03
2.950570e+02,6.068917e+03
2.979497e+02,6.061489e+03
3.008424e+02,6.069399e+03
3.037351e+02,6.074236e+03
3.066278e+02,6.077653e+03
3.095205e+02,6.082800e+03
3.124132e+02,6.083477e+03
3.153059e+02,6.104994e+03
3.181986e+02,6.074354e+03
3.210913e+02,6.111399e+03
3.239840e+02,6.118084e+03
3.268767e+02,6.107209e+03
3.297694e+02,6.103854e+03
3.326621e+02,6.114625e+03
3.355548e+02,6.099208e+03
3.384475e+02,6.073568e+03
3.413402e+02,6.099233e+03
3.442329e+02,6.129939e+03
3.471256e+02,6.121706e+03
3.500183e+02,6.100523e+03
3.529110e+02,6.093742e+03
3.558037e+02,6.127408e+03
3.586964e+02,6.109479e+03
3.615891e+02,6.128953e+03
3.644818e+02,6.121139e+03
3.673745e+02,6.111149e+03
3.702672e+02,6.142337e+03
3.731599e+02,6.140706e+03
3.760526e+02,6.126644e+03
3.789453e+02,6.120671e+03
3.818380e+02,6.109158e+03
3.847307e+02,6.089501e+03
3.876234e+02,6.106811e+03
3.905161e+02,6.112672e+03
3.934088e+02,6.103865e+03
3.963015e+02,6.082415e+03
3.991942e+02,6.084555e+03
4.020869e+02,6.114791e+03
4.049796e+02,6.128076e+03
4.078723e+02,6.086338e+03
4.107650e+02,6.080877e+03
4.136577e+02,6.100424e+03
4.165504e+02,6.069459e+03
4.194431e+02,6.078321e+03
4.223358e+02,6.091510e+03
4.252285e+02,6.089200e+03
4.281212e+02,6.088297e+03
4.310139e+02,6.081661e+03
4.339066e+02,6.087375e+03
4.367993e+02,6.079541e+03
4.396920e+02,6.067545e+03
4.425847e+02,6.060742e+03
4.454774e+02,6.073200e+03
4.483701e+02,6.080680e+03
4.512628e+02,6.087705e+03
4.541555e+02,6.072305e+03
4.570482e+02,6.033813e+03
4.599409e+02,6.045450e+03
4.628336e+02,6.027101e+03
4.657263e+02,6.046568e+03
4.686190e+02,6.041191e+03
4.715117e+02,6.027636e+03
4.744044e+02,6.014509e+03
4.772971e+02,6.030827e+03
4.801898e+02,6.070948e+03
4.830825e+02,6.084050e+03
4.859752e+02,6.093021e+03
4.888679e+02,6.079531e+03
4.917606e+02,6.055254e+03
4.946533e+02,6.046626e+03
4.975460e+02,6.044089e+03
5.004387e+02,6.046927e+03
5.033314e+02,6.011722e+03
5.062241e+02,5.998424e+03
5.091168e+02,5.988438e+03
5.120095e+02,5.991318e+03
5.149022e+02,5.978032e+03
5.177949e+02,5.992174e+03
5.206876e+02,5.972734e+03
5.235803e+02,5.950096e+03
5.264730e+02,5.948320e+03
5.293657e+02,5.944128e+03
5.322584e+02,5.943009e+03
5.351511e+02,5.927412e+03
5.380438e+02,5.913957e+03
5.409365e+02,5.939752e+03
5.438292e+02,5.912175e+03
5.467219e+02,5.931439e+03
5.496146e+02,5.924558e+03
5.525073e+02,5.887910e+03
5.554000e+02,5.897030e+03
5.582927e+02,5.888929e+03
5.611854e+02,5.904578e+03
5.640781e+02,5.897819e+03
5.669708e+02,5.876651e+03
5.698635e+02,5.870493e+03
5.727562e+02,5.851283e+03
5.756489e+02,5.884107e+03
5.785416e+02,5.879160e+03
5.814343e+02,5.856370e+03
5.843270e+02,5.857657e+03
5.872197e+02,5.827003e+03
5.901124e+02,5.831081e+03
5.930051e+02,5.835672e+03
5.958978e+02,5.833253e+03
5.987905e+02,5.815269e+03
6.016832e+02,5.791391e+03
6.045759e+02,5.835558e+03
6.074686e+02,5.850002e+03
6.103613e+02,5.787687e+03
6.132540e+02,5.799654e+03
6.161467e+02,5.775859e+03
6.190394e+02,5.764312e+03
6.219321e+02,5.775080e+03
6.248248e+02,5.774022e+03
6.277175e+02,5.758761e+03
6.306102e+02,5.749033e+03
6.335029e+02,5.775608e+03
6.363956e+02,5.756171e+03
6.392883e+02,5.729957e+03
6.421810e+02,5.716346e+03
6.450737e+02,5.698015e+03
6.479664e+02,5.716748e+03
6.508591e+02,5.703747e+03
6.537518e+02,5.694275e+03
6.566445e+02,5.676654e+03
6.595372e+02,5.669025e+03
6.624299e+02,5.654341e+03
6.653226e+02,5.656165e+03
6.682153e+02,5.656401e+03
6.711080e+02,5.662639e+03
6.740007e+02,5.652218e+03
6.768934e+02,5.639211e+03
6.797861e+02,5.609901e+03
6.826788e+02,5.629906e+03
6.855715e+02,5.609667e+03
6.884642e+02,5.598692e+03
6.913569e+02,5.577695e+03
6.942496e+02,5.597255e+03
6.971423e+02,5.599473e+03
7.000350e+02,5.577628e+03
7.029277e+02,5.544600e+03
7.058204e+02,5.541620e+03
7.087131e+02,5.548159e+03
7.116058e+02,5.557204e+03
7.144985e+02,5.550165e+03
7.173912e+02,5.555931e+03
7.202839e+02,5.519608e+03
7.231766e+02,5.528701e+03
7.260693e+02,5.516392e+03
7.289620e+02,5.520665e+03
7.318547e+02,5.498052e+03
7.347474e+02,5.469408e+03
7.376401e+02,5.484750e+03
7.405328e+02,5.452799e+03
7.434255e+02,5.446990e+03
7.463182e+02,5.467551e+03
7.492109e+02,5.457031e+03
7.521036e+02,5.459418e+03
7.549963e+02,5.429678e+03
7.578890e+02,5.416605e+03
7.607817e+02,5.422443e+03
7.636744e+02,5.408751e+03
7.665671e+02,5.396604e+03
7.694598e+02,5.382017e+03
7.723525e+02,5.366375e+03
7.752452e+02,5.370862e+03
7.781379e+02,5.370144e+03
7.810306e+02,5.352463e+03
7.839233e+02,5.348612e+03
7.868160e+02,5.346299e+03
7.897087e+02,5.328498e+03
7.926014e+02,5.332896e+03
7.954941e+02,5.318506e+03
7.983868e+02,5.299338e+03
8.012795e+02,5.283153e+03
8.041722e+02,5.274833e+03
8.070649e+02,5.291285e+03
8.099576e+02,5.275710e+03
8.128503e+02,5.257548e+03
8.157430e+02,5.272784e+03
8.186357e+02,5.259700e+03
8.215284e+02,5.257532e+03
8.244211e+02,5.242534e+03
8.273138e+02,5.241668e+03
8.302065e+02,5.194958e+03
8.330992e+02,5.213311e+03
8.359919e+02,5.211977e+03
8.388846e+02,5.205976e+03
8.417773e+02,5.203064e+03
8.446700e+02,5.180072e+03
8.475627e+02,5.157588e+03
8.504554e+02,5.155436e+03
8.533481e+02,5.171671e+03
8.562408e+02,5.152846e+03
8.591335e+02,5.141052e+03
8.620262e+02,5.106211e+03
8.649189e+02,5.093356e+03
8.678116e+02,5.098755e+03
8.707043e+02,5.115263e+03
8.735970e+02,5.115347e+03
8.764897e+02,5.079579e+03
8.793824e+02,5.068326e+03
8.822751e+02,5.067247e+03
8.851678e+02,5.089200e+03
8.880605e+02,5.066783e+03
8.909532e+02,5.055614e+03
8.938459e+02,5.048314e+03
8.967386e+02,5.039999e+03
8.996313e+02,5.015477e+03
9.025240e+02,5.025982e+03
9.054167e+02,5.018748e+03
9.083094e+02,4.992576e+03
9.112021e+02,4.994622e+03
9.140948e+02,4.990185e+03
9.169875e+02,4.973431e+03
9.198802e+02,4.944826e+03
9.227729e+02,4.968630e+03
9.256656e+02,4.933509e+03
9.285583e+02,4.930169e+03
9.314510e+02,4.915468e+03
9.343438e+02,4.928796e+03
9.372365e+02,4.906216e+03
9.401292e+02,4.893637e+03
9.430219e+02,4.871052e+03
9.459146e+02,4.896580e+03
9.488073e+02,4.870311e+03
9.517000e+02,4.868972e+03
9.545927e+02,4.843826e+03
9.574854e+02,4.840163e+03
9.603781e+02,4.849619e+03
9.632708e+02,4.847636e+03
9.661635e+02,4.809362e+03
9.690562e+02,4.812236e+03
9.719489e+02,4.780952e+03
9.748416e+02,4.802810e+03
9.777343e+02,4.767563e+03
9.806270e+02,4.790471e+03
9.835197e+02,4.755775e+03
9.864124e+02,4.742323e+03
9.893051e+02,4.760577e+03
9.921978e+02,4.745519e+03
9.950905e+02,4.756454e+03
9.979832e+02,4.751719e+03
1.000876e+03,4.722460e+03
1.003769e+03,4.711309e+03
1.006661e+03,4.727143e+03
1.009554e+03,4.708719e+03
1.012447e+03,4.698837e+03
1.015339e+03,4.669008e+03
1.018232e+03,4.678563e+03
1.021125e+03,4.660464e+03
1.024017e+03,4.678490e+03
1.026910e+03,4.669775e+03
1.029803e+03,4.649094e+03
1.032696e+03,4.647417e+03
1.035588e+03,4.636821e+03
1.038481e+03,4.630288e+03
1.041374e+03,4.626344e+03
1.044266e+03,4.611651e+03
1.047159e+03,4.593615e+03
1.050052e+03,4.579075e+03
1.052944e+03,4.578372e+03
1.055837e+03,4.587730e+03
1.058730e+03,4.561964e+03
1.061623e+03,4.563547e+03
1.064515e+03,4.552911e+03
1.067408e+03,4.577314e+03
1.070301e+03,4.559810e+03
1.073193e+03,4.551929e+03
1.076086e+03,4.539191e+03
1.078979e+03,4.519754e+03
1.081871e+03,4.548547e+03
1.084764e+03,4.559175e+03
1.087657e+03,4.570899e+03
1.090550e+03,4.544357e+03
1.093442e+03,4.508075e+03
1.096335e+03,4.527135e+03
1.099228e+03,4.502923e+03
1.102120e+03,4.500662e+03
1.105013e+03,4.493514e+03
1.107906e+03,4.485823e+03
1.110798e+03,4.486580e+03
1.113691e+03,4.492228e+03
1.116584e+03,4.508269e+03
1.119477e+03,4.518310e+03
1.122369e+03,4.519461e+03
1.125262e+03,4.512443e+03
1.128155e+03,4.489405e+03
1.131047e+03,4.495230e+03
1.133940e+03,4.492003e+03
1.136833e+03,4.464009e+03
1.139725e+03,4.433812e+03
1.142618e+03,4.441219e+03
1.145511e+03,4.438411e+03
1.148404e+03,4.451943e+03
1.151296e+03,4.439047e+03
1.154189e+03,4.436382e+03
1.157082e+03,4.398569e+03
1.159974e+03,4.362700e+03
1.162867e+03,4.373072e+03
1.165760e+03,4.352888e+03
1.168652e+03,4.347316e+03
1.171545e+03,4.353384e+03
1.174438e+03,4.341357e+03
1.177331e+03,4.344522e+03
1.180223e+03,4.351774e+03
1.183116e+03,4.345506e+03
1.186009e+03,4.318822e+03
1.188901e+03,4.301098e+03
1.191794e+03,4.308219e+03
1.194687e+03,4.286810e+03
1.197579e+03,4.285332e+03
1.200472e+03,4.276596e+03
1.203365e+03,4.258393e+03
1.206258e+03,4.255496e+03
1.209150e+03,4.269194e+03
1.212043e+03,4.267576e+03
1.214936e+03,4.258606e+03
1.217828e+03,4.245331e+03
1.220721e+03,4.234276e+03
1.223614e+03,4.220520e+03
1.226506e+03,4.238837e+03
1.229399e+03,4.244738e+03
1.232292e+03,4.190757e+03
1.235185e+03,4.177415e+03
1.238077e+03,4.193532e+03
1.240970e+03,4.193638e+03
1.243863e+03,4.177998e+03
1.246755e+03,4.169556e+03
1.249648e+03,4.153632e+03
1.252541e+03,4.130201e+03
1.255433e+03,4.126971e+03
1.258326e+03,4.118832e+03
1.261219e+03,4.136025e+03
1.264112e+03,4.137894e+03
1.267004e+03,4.125954e+03
1.269897e+03,4.150064e+03
1.272790e+03,4.149794e+03
1.275682e+03,4.150376e+03
1.278575e+03,4.157077e+03
1.281468e+03,4.147786e+03
1.284360e+03,4.149450e+03
1.287253e+03,4.135485e+03
1.290146e+03,4.112090e+03
1.293039e+03,4.082411e+03
1.295931e+03,4.066489e+03
1.298824e+03,4.073428e+03
1.301717e+03,4.061462e+03
1.304609e+03,4.048103e+03
1.307502e+03,4.047583e+03
1.310395e+03,4.036054e+03
1.313287e+03,4.043674e+03
1.316180e+03,4.025225e+03
1.319073e+03,4.036989e+03
1.321966e+03,4.038836e+03
1.324858e+03,4.011406e+03
1.327751e+03,4.011295e+03
1.330644e+03,4.013376e+03
1.333536e+03,4.034767e+03
1.336429e+03,4.030240e+03
1.339322e+03,4.012530e+03
1.342214e+03,4.023827e+03
1.345107e+03,3.996524e+03
1.348000e+03,3.993554e+03
1.350893e+03,3.972270e+03
1.353785e+03,3.965126e+03
1.356678e+03,3.955928e+03
1.359571e+03,3.949134e+03
1.362463e+03,3.940099e+03
1.365356e+03,3.941706e+03
1.368249e+03,3.921763e+03
1.371141e+03,3.917300e+03
1.374034e+03,3.897446e+03
1.376927e+03,3.902342e+03
1.379820e+03,3.898294e+03
1.382712e+03,3.886079e+03
1.385605e+03,3.873723e+03
1.388498e+03,3.829113e+03
1.391390e+03,3.840672e+03
1.394283e+03,3.840787e+03
1.397176e+03,3.832854e+03
1.400068e+03,3.827365e+03
1.402961e+03,3.818936e+03
1.405854e+03,3.825773e+03
1.408747e+03,3.820445e+03
1.411639e+03,3.832206e+03
1.414532e+03,3.830913e+03
1.417425e+03,3.812953e+03
1.420317e+03,3.785286e+03
1.423210e+03,3.781863e+03
1.426103e+03,3.786255e+03
1.428995e+03,3.754817e+03
1.431888e+03,3.770433e+03
1.434781e+03,3.749448e+03
1.437674e+03,3.730748e+03
1.440566e+03,3.744866e+03
1.443459e+03,3.722971e+03
1.446352e+03,3.724752e+03
1.449244e+03,3.683621e+03
1.452137e+03,3.693260e+03
1.455030e+03,3.699996e+03
1.457922e+03,3.693231e+03
1.460815e+03,3.691114e+03
1.463708e+03,3.684818e+03
1.466601e+03,3.666672e+03
1.469493e+03,3.659378e+03
1.472386e+03,3.638923e+03
1.475279e+03,3.668205e+03
1.478171e+03,3.652589e+03
1.481064e+03,3.636079e+03
1.483957e+03,3.632508e+03
1.486849e+03,3.625978e+03
1.489742e+03,3.623162e+03
1.492635e+03,3.627132e+03
1.495528e+03,3.641841e+03
1.498420e+03,3.605873e+03
1.501313e+03,3.600237e+03
1.504206e+03,3.603604e+03
1.507098e+03,3.598804e+03
1.509991e+03,3.589529e+03
1.512884e+03,3.569700e+03
1.515776e+03,3.563567e+03
1.518669e+03,3.555170e+03
1.521562e+03,3.562258e+03
1.524455e+03,3.550907e+03
1.527347e+03,3.535061e+03
1.530240e+03,3.544448e+03
1.533133e+03,3.508922e+03
1.536025e+03,3.537169e+03
1.538918e+03,3.516063e+03
1.541811e+03,3.516559e+03
1.544703e+03,3.501834e+03
1.547596e+03,3.497943e+03
1.550489e+03,3.503118e+03
1.553382e+03,3.495138e+03
1.556274e+03,3.507620e+03
1.559167e+03,3.485796e+03
1.562060e+03,3.471011e+03
1.564952e+03,3.479812e+03
1.567845e+03,3.503991e+03
1.570738e+03,3.491045e+03
1.573630e+03,3.465798e+03
1.576523e+03,3.470743e+03
1.579416e+03,3.466615e+03
1.582309e+03,3.476695e+03
1.585201e+03,3.488840e+03
1.588094e+03,3.471815e+03
1.590987e+03,3.444427e+03
1.593879e+03,3.436383e+03
1.596772e+03,3.447235e+03
1.599665e+03,3.419949e+03
1.602557e+03,3.406984e+03
1.605450e+03,3.379462e+03
1.608343e+03,3.377417e+03
1.611236e+03,3.369542e+03
1.614128e+03,3.351257e+03
1.617021e+03,3.358588e+03
1.619914e+03,3.344605e+03
1.622806e+03,3.325720e+03
1.625699e+03,3.327872e+03
1.628592e+03,3.324227e+03
1.631484e+03,3.304635e+03
1.634377e+03,3.307143e+03
1.637270e+03,3.281593e+03
1.640163e+03,3.278524e+03
1.643055e+03,3.271987e+03
1.645948e+03,3.275600e+03
1.648841e+03,3.258320e+03
1.651733e+03,3.248728e+03
1.654626e+03,3.259739e+03
1.657519e+03,3.250021e+03
1.660411e+03,3.221599e+03
1.663304e+03,3.229864e+03
1.666197e+03,3.214007e+03
1.669090e+03,3.208199e+03
1.671982e+03,3.209047e+03
1.674875e+03,3.213902e+03
1.677768e+03,3.206985e+03
1.680660e+03,3.207210e+03
1.683553e+03,3.179987e+03
1.686446e+03,3.178499e+03
1.689339e+03,3.169258e+03
1.692231e+03,3.154782e+03
1.695124e+03,3.165678e+03
1.698017e+03,3.160046e+03
1.700909e+03,3.148826e+03
1.703802e+03,3.150607e+03
1.706695e+03,3.131754e+03
1.709587e+03,3.128839e+03
1.712480e+03,3.111731e+03
1.715373e+03,3.106493e+03
1.718266e+03,3.103376e+03
1.721158e+03,3.106081e+03
1.724051e+03,3.091399e+03
1.726944e+03,3.070344e+03
1.729836e+03,3.076123e+03
1.732729e+03,3.085296e+03
1.735622e+03,3.075802e+03
1.738514e+03,3.053731e+03
1.741407e+03,3.043485e+03
1.744300e+03,3.040652e+03
1.747193e+03,3.037803e+03
1.750085e+03,3.024997e+03
1.752978e+03,3.028069e+03
1.755871e+03,3.025792e+03
1.758763e+03,3.003424e+03
1.761656e+03,3.001202e+03
1.764549e+03,3.001420e+03
1.767441e+03,3.003854e+03
1.770334e+03,3.007245e+03
1.773227e+03,2.986328e+03
1.776120e+03,2.977462e+03
1.779012e+03,2.971895e+03
1.781905e+03,2.957119e+03
1.784798e+03,2.946134e+03
1.787690e+03,2.954737e+03
1.790583e+03,2.922914e+03
1.793476e+03,2.950949e+03
1.796368e+03,2.916835e+03
1.799261e+03,2.928920e+03
1.802154e+03,2.918407e+03
1.805047e+03,2.894983e+03
1.807939e+03,2.916764e+03
1.810832e+03,2.900739e+03
1.813725e+03,2.888528e+03
1.816617e+03,2.884556e+03
1.819510e+03,2.868926e+03
1.822403e+03,2.874206e+03
1.825295e+03,2.837169e+03
1.828188e+03,2.875613e+03
1.831081e+03,2.853001e+03
1.833974e+03,2.854543e+03
1.836866e+03,2.830410e+03
1.839759e+03,2.815073e+03
1.842652e+03,2.835781e+03
1.845544e+03,2.801020e+03
1.848437e+03,2.813016e+03
1.851330e+03,2.786603e+03
1.854222e+03,2.797031e+03
1.857115e+03,2.769893e+03
1.860008e+03,2.772620e+03
1.862901e+03,2.775732e+03
1.865793e+03,2.785430e+03
1.868686e+03,2.774573e+03
1.871579e+03,2.739586e+03
1.874471e+03,2.739820e+03
1.877364e+03,2.729508e+03
1.880257e+03,2.733023e+03
1.883149e+03,2.712494e+03
1.886042e+03,2.706683e+03
1.888935e+03,2.734978e+03
1.891828e+03,2.710070e+03
1.894720e+03,2.693934e+03
1.897613e+03,2.701407e+03
1.900506e+03,2.703604e+03
1.903398e+03,2.670085e+03
1.906291e+03,2.711168e+03
1.909184e+03,2.688826e+03
1.912076e+03,2.672898e+03
1.914969e+03,2.647894e+03
1.917862e+03,2.654291e+03
1.920755e+03,2.632755e+03
1.923647e+03,2.652963e+03
1.926540e+03,2.626949e+03
1.929433e+03,2.636473e+03
1.932325e+03,2.601078e+03
1.935218e+03,2.602569e+03
1.938111e+03,2.587751e+03
1.941003e+03,2.596736e+03
1.943896e+03,2.582116e+03
1.946789e+03,2.561806e+03
1.949682e+03,2.565259e+03
1.952574e+03,2.556401e+03
1.955467e+03,2.567644e+03
1.958360e+03,2.573131e+03
1.961252e+03,2.539435e+03
1.964145e+03,2.539932e+03
1.967038e+03,2.534239e+03
1.969930e+03,2.548790e+03
1.972823e+03,2.511263e+03
1.975716e+03,2.515204e+03
1.978609e+03,2.517216e+03
1.981501e+03,2.491659e+03
1.984394e+03,2.511581e+03
1.987287e+03,2.483247e+03
1.990179e+03,2.479737e+03
1.993072e+03,2.473000e+03
1.995965e+03,2.464574e+03
1.998857e+03,2.459438e+03
2.001750e+03,2.443941e+03
2.004643e+03,2.454003e+03
2.007536e+03,2.449950e+03
2.010428e+03,2.416424e+03
2.013321e+03,2.425887e+03
2.016214e+03,2.424872e+03
2.019106e+03,2.407823e+03
2.021999e+03,2.395147e+03
2.024892e+03,2.375725e+03
2.027784e+03,2.376246e+03
2.030677e+03,2.385440e+03
2.033570e+03,2.380881e+03
2.036463e+03,2.378454e+03
2.039355e+03,2.358335e+03
2.042248e+03,2.349635e+03
2.045141e+03,2.349300e+03
2.048033e+03,2.350589e+03
2.050926e+03,2.352818e+03
2.053819e+03,2.341072e+03
2.056711e+03,2.299627e+03
2.059604e+03,2.308177e+03
2.062497e+03,2.308675e+03
2.065390e+03,2.310040e+03
2.068282e+03,2.275990e+03
2.071175e+03,2.280532e+03
2.074068e+03,2.290177e+03
2.076960e+03,2.270382e+03
2.079853e+03,2.278638e+03
2.082746e+03,2.268862e+03
2.085638e+03,2.253698e+03
2.088531e+03,2.258672e+03
2.091424e+03,2.233669e+03
2.094316e+03,2.234417e+03
2.097209e+03,2.244240e+03
2.100102e+03,2.235872e+03
2.102995e+03,2.207250e+03
2.105887e+03,2.197937e+03
2.108780e+03,2.216679e+03
2.111673e+03,2.187351e+03
2.114565e+03,2.204497e+03
2.117458e+03,2.191301e+03
2.120351e+03,2.180942e+03
2.123244e+03,2.188906e+03
2.126136e+03,2.169432e+03
2.129029e+03,2.161144e+03
2.131922e+03,2.157294e+03
2.134814e+03,2.152279e+03
2.137707e+03,2.143533e+03
2.140600e+03,2.135587e+03
2.143492e+03,2.115543e+03
2.146385e+03,2.108009e+03
2.149278e+03,2.115794e+03
2.152170e+03,2.110238e+03
2.155063e+03,2.094452e+03
2.157956e+03,2.100148e+03
2.160849e+03,2.075002e+03
2.163741e+03,2.106266e+03
2.166634e+03,2.070232e+03
2.169527e+03,2.080288e+03
2.172419e+03,2.083453e+03
2.175312e+03,2.061833e+03
2.178205e+03,2.066120e+03
2.181098e+03,2.025386e+03
2.183990e+03,2.041740e+03
2.186883e+03,2.033697e+03
2.189776e+03,2.016707e+03
2.192668e+03,2.018135e+03
2.195561e+03,2.011420e+03
2.198454e+03,2.006959e+03
2.201346e+03,2.003672e+03
2.204239e+03,2.005418e+03
2.207132e+03,2.001712e+03
2.210024e+03,1.983658e+03
2.212917e+03,1.952020e+03
2.215810e+03,1.975291e+03
2.218703e+03,1.967106e+03
2.221595e+03,1.974904e+03
2.224488e+03,1.923874e+03
2.227381e+03,1.941296e+03
2.230273e+03,1.942857e+03
2.233166e+03,1.942382e+03
2.236059e+03,1.932630e+03
2.238952e+03,1.919402e+03
2.241844e+03,1.921458e+03
2.244737e+03,1.905803e+03
2.247630e+03,1.930799e+03
2.250522e+03,1.899014e+03
2.253415e+03,1.894881e+03
2.256308e+03,1.878607e+03
2.259200e+03,1.873714e+03
2.262093e+03,1.876010e+03
2.264986e+03,1.848755e+03
2.267879e+03,1.875124e+03
2.270771e+03,1.836174e+03
2.273664e+03,1.836501e+03
2.276557e+03,1.846452e+03
2.279449e+03,1.850110e+03
2.282342e+03,1.845836e+03
2.285235e+03,1.838576e+03
2.288127e+03,1.826001e+03
2.291020e+03,1.804969e+03
2.293913e+03,1.799124e+03
2.296805e+03,1.827050e+03
2.299698e+03,1.802972e+03
2.302591e+03,1.794905e+03
2.305484e+03,1.787034e+03
2.308376e+03,1.776271e+03
2.311269e+03,1.778057e+03
2.314162e+03,1.772643e+03
2.317054e+03,1.752928e+03
2.319947e+03,1.767104e+03
2.322840e+03,1.751337e+03
2.325733e+03,1.756715e+03
2.328625e+03,1.765340e+03
2.331518e+03,1.756245e+03
2.334411e+03,1.725383e+03
2.337303e+03,1.715014e+03
2.340196e+03,1.715019e+03
2.343089e+03,1.722471e+03
2.345981e+03,1.724440e+03
2.348874e+03,1.707318e+03
2.351767e+03,1.701953e+03
2.354659e+03,1.707736e+03
2.357552e+03,1.704578e+03
2.360445e+03,1.693569e+03
2.363338e+03,1.688522e+03
2.366230e+03,1.679343e+03
2.369123e+03,1.675334e+03
2.372016e+03,1.670223e+03
2.374908e+03,1.658705e+03
2.377801e+03,1.648830e+03
2.380694e+03,1.646344e+03
2.383587e+03,1.653408e+03
2.386479e+03,1.634450e+03
2.389372e+03,1.646046e+03
2.392265e+03,1.646961e+03
2.395157e+03,1.622715e+03
2.398050e+03,1.609233e+03
2.400943e+03,1.618255e+03
2.403835e+03,1.609266e+03
2.406728e+03,1.621546e+03
2.409621e+03,1.592378e+03
2.412513e+03,1.587315e+03
2.415406e+03,1.595701e+03
2.418299e+03,1.590367e+03
2.421192e+03,1.580063e+03
2.424084e+03,1.569888e+03
2.426977e+03,1.571917e+03
2.429870e+03,1.555712e+03
2.432762e+03,1.574165e+03
2.435655e+03,1.568106e+03
2.438548e+03,1.556848e+03
2.441441e+03,1.538671e+03
2.444333e+03,1.544921e+03
2.447226e+03,1.544243e+03
2.450119e+03,1.536208e+03
2.453011e+03,1.535981e+03
2.455904e+03,1.527893e+03
2.458797e+03,1.502142e+03
2.461689e+03,1.510036e+03
2.464582e+03,1.523987e+03
2.467475e+03,1.508273e+03
2.470367e+03,1.490432e+03
2.473260e+03,1.501686e+03
2.476153e+03,1.497947e+03
2.479046e+03,1.496266e+03
2.481938e+03,1.489152e+03
2.484831e+03,1.487356e+03
2.487724e+03,1.493594e+03
2.490616e+03,1.493409e+03
2.493509e+03,1.442254e+03
2.496402e+03,1.489310e+03
2.499295e+03,1.474133e+03
2.502187e+03,1.452612e+03
2.505080e+03,1.453006e+03
2.507973e+03,1.439519e+03
2.510865e+03,1.451688e+03
2.513758e+03,1.444345e+03
2.516651e+03,1.456944e+03
2.519543e+03,1.423020e+03
2.522436e+03,1.441626e+03
2.525329e+03,1.414289e+03
2.528221e+03,1.432883e+03
2.531114e+03,1.422280e+03
2.534007e+03,1.424232e+03
2.536900e+03,1.399381e+03
2.539792e+03,1.396687e+03
2.542685e+03,1.415133e+03
2.545578e+03,1.401452e+03
2.548470e+03,1.394883e+03
2.551363e+03,1.414484e+03
2.554256e+03,1.401311e+03
2.557149e+03,1.389251e+03
2.560041e+03,1.396459e+03
2.562934e+03,1.377486e+03
2.565827e+03,1.383706e+03
2.568719e+03,1.378597e+03
2.571612e+03,1.365011e+03
2.574505e+03,1.393214e+03
2.577397e+03,1.359910e+03
2.580290e+03,1.362534e+03
2.583183e+03,1.353474e+03
2.586075e+03,1.343102e+03
2.588968e+03,1.338087e+03
2.591861e+03,1.355102e+03
2.594754e+03,1.348036e+03
2.597646e+03,1.336434e+03
2.600539e+03,1.320146e+03
2.603432e+03,1.341694e+03
2.606324e+03,1.325640e+03
2.609217e+03,1.330963e+03
2.612110e+03,1.307861e+03
2.615003e+03,1.302211e+03
2.617895e+03,1.333153e+03
2.620788e+03,1.302285e+03
2.623681e+03,1.294217e+03
2.626573e+03,1.300494e+03
2.629466e+03,1.296416e+03
2.632359e+03,1.303770e+03
2.635251e+03,1.280083e+03
2.638144e+03,1.297127e+03
2.641037e+03,1.259985e+03
2.643929e+03,1.278874e+03
2.646822e+03,1.286223e+03
2.649715e+03,1.283287e+03
2.652608e+03,1.279207e+03
2.655500e+03,1.255314e+03
2.658393e+03,1.286759e+03
2.661286e+03,1.241589e+03
2.664178e+03,1.253724e+03
2.667071e+03,1.259903e+03
2.669964e+03,1.254001e+03
2.672857e+03,1.233990e+03
2.675749e+03,1.259525e+03
2.678642e+03,1.238506e+03
2.681535e+03,1.229787e+03
2.684427e+03,1.231170e+03
2.687320e+03,1.233560e+03
2.690213e+03,1.225599e+03
2.693105e+03,1.228621e+03
2.695998e+03,1.221379e+03
2.698891e+03,1.214632e+03
2.701783e+03,1.223681e+03
2.704676e+03,1.201226e+03
2.707569e+03,1.233222e+03
2.710462e+03,1.206463e+03
2.713354e+03,1.214206e+03
2.716247e+03,1.211480e+03
2.719140e+03,1.184239e+03
2.722032e+03,1.208636e+03
2.724925e+03,1.192981e+03
2.727818e+03,1.197227e+03
2.730711e+03,1.180495e+03
2.733603e+03,1.167038e+03
2.736496e+03,1.185519e+03
2.739389e+03,1.164199e+03
2.742281e+03,1.186123e+03
2.745174e+03,1.182427e+03
2.748067e+03,1.164643e+03
2.750959e+03,1.154601e+03
2.753852e+03,1.150441e+03
2.756745e+03,1.183819e+03
2.759637e+03,1.153021e+03
2.762530e+03,1.142594e+03
2.765423e+03,1.139839e+03
2.768316e+03,1.147264e+03
2.771208e+03,1.155784e+03
2.774101e+03,1.147666e+03
2.776994e+03,1.148512e+03
2.779886e+03,1.137249e+03
2.782779e+03,1.129622e+03
2.785672e+03,1.129219e+03
2.788565e+03,1.138337e+03
2.791457e+03,1.139041e+03
2.794350e+03,1.110459e+03
2.797243e+03,1.118309e+03
2.800135e+03,1.137382e+03
2.803028e+03,1.102635e+03
2.805921e+03,1.124852e+03
2.808813e+03,1.117517e+03
2.811706e+03,1.112179e+03
2.814599e+03,1.117316e+03
2.817491e+03,1.137697e+03
2.820384e+03,1.080218e+03
2.823277e+03,1.101821e+03
2.826170e+03,1.112068e+03
2.829062e+03,1.111022e+03
2.831955e+03,1.099619e+03
2.834848e+03,1.100065e+03
2.837740e+03,1.093062e+03
2.840633e+03,1.086005e+03
2.843526e+03,1.089244e+03
2.846419e+03,1.095802e+03
2.849311e+03,1.102360e+03
2.852204e+03,1.081579e+03
2.855097e+03,1.101970e+03
2.857990e+03,1.105136e+03
2.860882e+03,1.090443e+03
2.863775e+03,1.087638e+03
2.866667e+03,1.122268e+03
2.869560e+03,1.082152e+03
2.872453e+03,1.110404e+03
2.875345e+03,1.081870e+03
2.878238e+03,1.090140e+03
2.881131e+03,1.096492e+03
2.884024e+03,1.100110e+03
2.886916e+03,1.106157e+03
2.889809e+03,1.096383e+03
2.892702e+03,1.096857e+03
2.895594e+03,1.099538e+03
2.898487e+03,1.085430e+03
2.901380e+03,1.090350e+03
2.904273e+03,1.077607e+03
2.907165e+03,1.066010e+03
2.910058e+03,1.094216e+03
2.912951e+03,1.089987e+03
2.915844e+03,1.070669e+03
2.918736e+03,1.052633e+03
2.921629e+03,1.054550e+03
2.924521e+03,1.037443e+03
2.927414e+03,1.040548e+03
2.930307e+03,1.039048e+03
2.933199e+03,1.034859e+03
2.936092e+03,1.039183e+03
2.938985e+03,1.034920e+03
2.941878e+03,1.032995e+03
2.944770e+03,1.059353e+03
2.947663e+03,1.029896e+03
2.950556e+03,1.027908e+03
2.953448e+03,1.044299e+03
2.956341e+03,1.070605e+03
2.959234e+03,1.070143e+03
2.962127e+03,1.016714e+03
2.965019e+03,1.015939e+03
2.967912e+03,1.003638e+03
2.970805e+03,1.018026e+03
2.973698e+03,1.006484e+03
2.976590e+03,9.988391e+02
2.979483e+03,1.015005e+03
2.982375e+03,9.608566e+02
2.985268e+03,1.000830e+03
2.988161e+03,1.015633e+03
2.991053e+03,9.785547e+02
2.993946e+03,9.452333e+02
2.996839e+03,9.748099e+02
2.999732e+03,9.910782e+02
3.002624e+03,9.884589e+02
3.005517e+03,9.688300e+02
3.008410e+03,9.589384e+02
3.011302e+03,1.000756e+03
3.014195e+03,9.571197e+02
3.017088e+03,9.878268e+02
3.019981e+03,9.718222e+02
3.022873e+03,9.569209e+02
3.025766e+03,9.366505e+02
3.028659e+03,9.676959e+02
3.031552e+03,9.444355e+02
3.034444e+03,9.698701e+02
3.037337e+03,9.660258e+02
3.040229e+03,9.487970e+02
3.043122e+03,9.877872e+02
3.046015e+03,9.747890e+02
3.048907e+03,9.553538e+02
3.051800e+03,9.334172e+02
3.054693e+03,9.263402e+02
3.057586e+03,9.774515e+02
3.060478e+03,9.568928e+02
3.063371e+03,9.609480e+02
3.066264e+03,9.506390e+02
3.069156e+03,9.613895e+02
3.072049e+03,9.724444e+02
3.074942e+03,9.735120e+02
3.077835e+03,9.106904e+02
3.080727e+03,9.436263e+02
3.083620e+03,9.235633e+02
3.086513e+03,9.607032e+02
3.089406e+03,9.431641e+02
3.092298e+03,9.369641e+02
3.095191e+03,9.075510e+02
3.098083e+03,9.129181e+02
3.100976e+03,9.260645e+02
3.103869e+03,9.233653e+02
3.106761e+03,9.196298e+02
3.109654e+03,8.987580e+02
3.112547e+03,9.000809e+02
3.115440e+03,9.386555e+02
3.118332e+03,9.402968e+02
3.121225e+03,9.435614e+02
3.124118e+03,9.951207e+02
3.127010e+03,9.199370e+02
3.129903e+03,9.266950e+02
3.132796e+03,9.173967e+02
3.135689e+03,9.403383e+02
3.138581e+03,9.714840e+02
3.141474e+03,9.596312e+02
3.144367e+03,9.329031e+02
3.147260e+03,9.314664e+02
3.150152e+03,9.570453e+02
3.153045e+03,9.360151e+02
3.155938e+03,9.293045e+02
3.158830e+03,9.201856e+02
3.161723e+03,9.477442e+02
3.164615e+03,9.526813e+02
3.167508e+03,9.757987e+02
3.170401e+03,9.175358e+02
3.173294e+03,9.092918e+02
3.176186e+03,9.596935e+02
3.179079e+03,9.151883e+02
3.181972e+03,9.828174e+02
3.184865e+03,9.383071e+02
3.187757e+03,9.446033e+02
3.190650e+03,9.043588e+02
3.193543e+03,9.380426e+02
3.196435e+03,9.732070e+02
3.199328e+03,9.666755e+02
3.200292e+03,9.447448e+02