File: RAMAN_data/20012023_r1/black fibre4.CSV
1.995979e+02,4.914709e+03
2.024906e+02,4.930688e+03
2.053833e+02,4.952328e+03
2.082760e+02,4.971721e+03
2.111687e+02,4.942966e+03
2.140614e+02,4.953832e+03
2.169541e+02,4.968721e+03
2.198468e+02,4.970033e+03
2.227395e+02,4.968632e+03
2.256322e+02,4.958208e+03
2.285249e+02,4.964904e+03
2.314176e+02,4.972445e+03
2.343103e+02,4.999052e+03
2.372030e+02,5.009147e+03
2.400957e+02,4.986353e+03
2.429884e+02,4.996183e+03
2.458811e+02,5.002807e+03
2.487738e+02,5.000282e+03
2.516665e+02,5.020251e+03
2.545592e+02,5.020149e+03
2.574519e+02,5.043989e+03
2.603446e+02,5.033907e+03
2.632373e+02,5.025727e+03
2.661300e+02,5.058489e+03
2.690227e+02,5.049919e+03
2.719154e+02,5.060221e+03
2.748081e+02,5.054961e+03
2.777008e+02,5.081750e+03
2.805935e+02,5.085547e+03
2.834862e+02,5.081133e+03
2.863789e+02,5.061758e+03
2.892716e+02,5.067563e+03
2.921643e+02,5.068899e+03
2.950570e+02,5.060807e+03
2.979497e+02,5.074851e+03
3.008424e+02,5.082691e+03
3.037351e+02,5.079893e+03
3.066278e+02,5.078748e+03
3.095205e+02,5.070401e+03
3.124132e+02,5.087792e+03
3.153059e+02,5.077542e+03
3.181986e+02,5.077196e+03
3.210913e+02,5.086864e+03
3.239840e+02,5.073943e+03
3.268767e+02,5.102097e+03
3.297694e+02,5.108993e+03
3.326621e+02,5.110586e+03
3.355548e+02,5.087918e+03
3.384475e+02,5.092756e+03
3.413402e+02,5.087863e+03
3.442329e+02,5.081060e+03
3.471256e+02,5.099395e+03
3.500183e+02,5.086974e+03
3.529110e+02,5.083655e+03
3.558037e+02,5.108609e+03
3.586964e+02,5.116252e+03
3.615891e+02,5.127454e+03
3.644818e+02,5.102036e+03
3.673745e+02,5.091635e+03
3.702672e+02,5.093598e+03
3.731599e+02,5.108413e+03
3.760526e+02,5.108384e+03
3.789453e+02,5.117815e+03
3.818380e+02,5.123342e+03
3.847307e+02,5.082185e+03
3.876234e+02,5.103386e+03
3.905161e+02,5.114847e+03
3.934088e+02,5.104205e+03
3.963015e+02,5.101229e+03
3.991942e+02,5.092146e+03
4.020869e+02,5.075650e+03
4.049796e+02,5.083831e+03
4.078723e+02,5.086072e+03
4.107650e+02,5.092226e+03
4.136577e+02,5.077000e+03
4.165504e+02,5.076935e+03
4.194431e+02,5.080177e+03
4.223358e+02,5.082142e+03
4.252285e+02,5.069032e+03
4.281212e+02,5.080017e+03
4.310139e+02,5.063274e+03
4.339066e+02,5.085359e+03
4.367993e+02,5.071514e+03
4.396920e+02,5.066252e+03
4.425847e+02,5.065884e+03
4.454774e+02,5.066631e+03
4.483701e+02,5.060735e+03
4.512628e+02,5.071911e+03
4.541555e+02,5.057563e+03
4.570482e+02,5.072762e+03
4.599409e+02,5.054554e+03
4.628336e+02,5.053198e+03
4.657263e+02,5.037628e+03
4.686190e+02,5.040042e+03
4.715117e+02,5.039382e+03
4.744044e+02,5.040771e+03
4.772971e+02,5.029342e+03
4.801898e+02,5.054375e+03
4.830825e+02,5.067298e+03
4.859752e+02,5.067361e+03
4.888679e+02,5.083457e+03
4.917606e+02,5.048792e+03
4.946533e+02,5.032232e+03
4.975460e+02,5.038914e+03
5.004387e+02,5.027432e+03
5.033314e+02,5.023023e+03
5.062241e+02,5.016563e+03
5.091168e+02,5.010098e+03
5.120095e+02,5.007507e+03
5.149022e+02,4.999704e+03
5.177949e+02,5.011771e+03
5.206876e+02,5.005349e+03
5.235803e+02,4.981514e+03
5.264730e+02,4.983112e+03
5.293657e+02,4.984309e+03
5.322584e+02,4.978805e+03
5.351511e+02,4.952660e+03
5.380438e+02,4.965335e+03
5.409365e+02,4.955419e+03
5.438292e+02,4.950758e+03
5.467219e+02,4.960075e+03
5.496146e+02,4.954577e+03
5.525073e+02,4.914295e+03
5.554000e+02,4.912649e+03
5.582927e+02,4.950858e+03
5.611854e+02,4.929366e+03
5.640781e+02,4.904567e+03
5.669708e+02,4.914848e+03
5.698635e+02,4.885275e+03
5.727562e+02,4.881568e+03
5.756489e+02,4.898115e+03
5.785416e+02,4.909835e+03
5.814343e+02,4.913117e+03
5.843270e+02,4.885696e+03
5.872197e+02,4.890614e+03
5.901124e+02,4.893334e+03
5.930051e+02,4.879717e+03
5.958978e+02,4.863274e+03
5.987905e+02,4.869144e+03
6.016832e+02,4.865741e+03
6.045759e+02,4.859194e+03
6.074686e+02,4.871521e+03
6.103613e+02,4.883885e+03
6.132540e+02,4.862497e+03
6.161467e+02,4.837329e+03
6.190394e+02,4.843438e+03
6.219321e+02,4.841713e+03
6.248248e+02,4.833343e+03
6.277175e+02,4.826855e+03
6.306102e+02,4.826919e+03
6.335029e+02,4.832499e+03
6.363956e+02,4.801291e+03
6.392883e+02,4.809306e+03
6.421810e+02,4.780902e+03
6.450737e+02,4.781447e+03
6.479664e+02,4.795247e+03
6.508591e+02,4.790141e+03
6.537518e+02,4.790503e+03
6.566445e+02,4.768097e+03
6.595372e+02,4.761037e+03
6.624299e+02,4.738895e+03
6.653226e+02,4.746043e+03
6.682153e+02,4.770701e+03
6.711080e+02,4.741131e+03
6.740007e+02,4.738497e+03
6.768934e+02,4.721117e+03
6.797861e+02,4.730443e+03
6.826788e+02,4.734205e+03
6.855715e+02,4.716391e+03
6.884642e+02,4.688846e+03
6.913569e+02,4.681078e+03
6.942496e+02,4.687197e+03
6.971423e+02,4.687872e+03
7.000350e+02,4.694027e+03
7.029277e+02,4.662640e+03
7.058204e+02,4.646009e+03
7.087131e+02,4.666864e+03
7.116058e+02,4.662440e+03
7.144985e+02,4.657232e+03
7.173912e+02,4.647904e+03
7.202839e+02,4.657208e+03
7.231766e+02,4.643770e+03
7.260693e+02,4.635672e+03
7.289620e+02,4.611510e+03
7.318547e+02,4.615545e+03
7.347474e+02,4.618640e+03
7.376401e+02,4.607304e+03
7.405328e+02,4.587345e+03
7.434255e+02,4.575124e+03
7.463182e+02,4.593608e+03
7.492109e+02,4.595009e+03
7.521036e+02,4.566140e+03
7.549963e+02,4.576403e+03
7.578890e+02,4.565040e+03
7.607817e+02,4.554300e+03
7.636744e+02,4.537989e+03
7.665671e+02,4.550304e+03
7.694598e+02,4.553956e+03
7.723525e+02,4.516125e+03
7.752452e+02,4.533704e+03
7.781379e+02,4.522124e+03
7.810306e+02,4.498988e+03
7.839233e+02,4.502492e+03
7.868160e+02,4.465798e+03
7.897087e+02,4.502594e+03
7.926014e+02,4.479792e+03
7.954941e+02,4.470986e+03
7.983868e+02,4.475048e+03
8.012795e+02,4.471331e+03
8.041722e+02,4.455617e+03
8.070649e+02,4.465014e+03
8.099576e+02,4.460959e+03
8.128503e+02,4.465303e+03
8.157430e+02,4.433242e+03
8.186357e+02,4.442222e+03
8.215284e+02,4.436915e+03
8.244211e+02,4.435365e+03
8.273138e+02,4.412678e+03
8.302065e+02,4.397110e+03
8.330992e+02,4.408082e+03
8.359919e+02,4.402680e+03
8.388846e+02,4.397693e+03
8.417773e+02,4.406450e+03
8.446700e+02,4.380916e+03
8.475627e+02,4.358841e+03
8.504554e+02,4.381911e+03
8.533481e+02,4.359993e+03
8.562408e+02,4.348435e+03
8.591335e+02,4.353257e+03
8.620262e+02,4.346954e+03
8.649189e+02,4.320050e+03
8.678116e+02,4.319014e+03
8.707043e+02,4.324584e+03
8.735970e+02,4.311387e+03
8.764897e+02,4.316645e+03
8.793824e+02,4.307000e+03
8.822751e+02,4.304528e+03
8.851678e+02,4.312022e+03
8.880605e+02,4.300484e+03
8.909532e+02,4.274417e+03
8.938459e+02,4.281558e+03
8.967386e+02,4.270614e+03
8.996313e+02,4.248977e+03
9.025240e+02,4.258815e+03
9.054167e+02,4.268876e+03
9.083094e+02,4.258797e+03
9.112021e+02,4.256271e+03
9.140948e+02,4.227957e+03
9.169875e+02,4.216714e+03
9.198802e+02,4.209721e+03
9.227729e+02,4.191054e+03
9.256656e+02,4.192696e+03
9.285583e+02,4.205429e+03
9.314510e+02,4.179850e+03
9.343438e+02,4.184056e+03
9.372365e+02,4.170870e+03
9.401292e+02,4.174059e+03
9.430219e+02,4.160367e+03
9.459146e+02,4.151099e+03
9.488073e+02,4.172224e+03
9.517000e+02,4.131967e+03
9.545927e+02,4.143420e+03
9.574854e+02,4.119874e+03
9.603781e+02,4.117459e+03
9.632708e+02,4.118794e+03
9.661635e+02,4.102638e+03
9.690562e+02,4.098315e+03
9.719489e+02,4.099650e+03
9.748416e+02,4.082596e+03
9.777343e+02,4.082573e+03
9.806270e+02,4.072364e+03
9.835197e+02,4.075180e+03
9.864124e+02,4.051493e+03
9.893051e+02,4.023092e+03
9.921978e+02,4.044589e+03
9.950905e+02,4.048815e+03
9.979832e+02,4.031686e+03
1.000876e+03,4.011451e+03
1.003769e+03,4.017566e+03
1.006661e+03,4.036470e+03
1.009554e+03,4.028885e+03
1.012447e+03,4.005943e+03
1.015339e+03,3.998565e+03
1.018232e+03,3.982282e+03
1.021125e+03,3.999575e+03
1.024017e+03,3.995450e+03
1.026910e+03,3.973631e+03
1.029803e+03,3.962725e+03
1.032696e+03,3.955986e+03
1.035588e+03,3.958179e+03
1.038481e+03,3.985275e+03
1.041374e+03,3.949113e+03
1.044266e+03,3.953969e+03
1.047159e+03,3.929172e+03
1.050052e+03,3.926728e+03
1.052944e+03,3.927004e+03
1.055837e+03,3.930049e+03
1.058730e+03,3.909533e+03
1.061623e+03,3.911436e+03
1.064515e+03,3.886017e+03
1.067408e+03,3.899813e+03
1.070301e+03,3.910741e+03
1.073193e+03,3.908775e+03
1.076086e+03,3.895159e+03
1.078979e+03,3.875785e+03
1.081871e+03,3.893570e+03
1.084764e+03,3.902877e+03
1.087657e+03,3.906472e+03
1.090550e+03,3.913623e+03
1.093442e+03,3.886705e+03
1.096335e+03,3.889520e+03
1.099228e+03,3.871079e+03
1.102120e+03,3.870136e+03
1.105013e+03,3.860966e+03
1.107906e+03,3.853052e+03
1.110798e+03,3.872790e+03
1.113691e+03,3.857395e+03
1.116584e+03,3.858375e+03
1.119477e+03,3.874148e+03
1.122369e+03,3.854105e+03
1.125262e+03,3.875101e+03
1.128155e+03,3.851119e+03
1.131047e+03,3.852878e+03
1.133940e+03,3.847675e+03
1.136833e+03,3.841313e+03
1.139725e+03,3.843906e+03
1.142618e+03,3.829987e+03
1.145511e+03,3.824519e+03
1.148404e+03,3.821177e+03
1.151296e+03,3.839132e+03
1.154189e+03,3.823724e+03
1.157082e+03,3.806877e+03
1.159974e+03,3.776832e+03
1.162867e+03,3.754327e+03
1.165760e+03,3.756164e+03
1.168652e+03,3.754210e+03
1.171545e+03,3.736112e+03
1.174438e+03,3.723966e+03
1.177331e+03,3.738547e+03
1.180223e+03,3.739814e+03
1.183116e+03,3.731265e+03
1.186009e+03,3.717647e+03
1.188901e+03,3.707825e+03
1.191794e+03,3.712301e+03
1.194687e+03,3.697735e+03
1.197579e+03,3.709978e+03
1.200472e+03,3.679875e+03
1.203365e+03,3.683464e+03
1.206258e+03,3.680235e+03
1.209150e+03,3.693636e+03
1.212043e+03,3.692520e+03
1.214936e+03,3.668348e+03
1.217828e+03,3.682694e+03
1.220721e+03,3.661563e+03
1.223614e+03,3.660287e+03
1.226506e+03,3.657755e+03
1.229399e+03,3.649746e+03
1.232292e+03,3.629384e+03
1.235185e+03,3.625017e+03
1.238077e+03,3.632323e+03
1.240970e+03,3.656892e+03
1.243863e+03,3.608441e+03
1.246755e+03,3.584035e+03
1.249648e+03,3.601264e+03
1.252541e+03,3.597793e+03
1.255433e+03,3.600959e+03
1.258326e+03,3.588503e+03
1.261219e+03,3.581991e+03
1.264112e+03,3.566558e+03
1.267004e+03,3.582131e+03
1.269897e+03,3.597517e+03
1.272790e+03,3.600559e+03
1.275682e+03,3.581093e+03
1.278575e+03,3.615480e+03
1.281468e+03,3.617278e+03
1.284360e+03,3.606278e+03
1.287253e+03,3.590642e+03
1.290146e+03,3.586981e+03
1.293039e+03,3.558929e+03
1.295931e+03,3.530376e+03
1.298824e+03,3.541137e+03
1.301717e+03,3.539505e+03
1.304609e+03,3.533013e+03
1.307502e+03,3.532872e+03
1.310395e+03,3.523133e+03
1.313287e+03,3.513913e+03
1.316180e+03,3.519492e+03
1.319073e+03,3.519773e+03
1.321966e+03,3.521938e+03
1.324858e+03,3.514882e+03
1.327751e+03,3.497591e+03
1.330644e+03,3.498831e+03
1.333536e+03,3.527087e+03
1.336429e+03,3.525275e+03
1.339322e+03,3.523246e+03
1.342214e+03,3.505806e+03
1.345107e+03,3.500630e+03
1.348000e+03,3.494512e+03
1.350893e+03,3.487623e+03
1.353785e+03,3.477896e+03
1.356678e+03,3.469013e+03
1.359571e+03,3.456421e+03
1.362463e+03,3.459623e+03
1.365356e+03,3.463769e+03
1.368249e+03,3.457999e+03
1.371141e+03,3.454770e+03
1.374034e+03,3.419027e+03
1.376927e+03,3.412967e+03
1.379820e+03,3.437587e+03
1.382712e+03,3.409991e+03
1.385605e+03,3.426985e+03
1.388498e+03,3.374560e+03
1.391390e+03,3.376483e+03
1.394283e+03,3.358740e+03
1.397176e+03,3.372790e+03
1.400068e+03,3.371497e+03
1.402961e+03,3.366797e+03
1.405854e+03,3.357228e+03
1.408747e+03,3.350685e+03
1.411639e+03,3.354782e+03
1.414532e+03,3.361730e+03
1.417425e+03,3.336618e+03
1.420317e+03,3.328762e+03
1.423210e+03,3.323074e+03
1.426103e+03,3.332071e+03
1.428995e+03,3.325366e+03
1.431888e+03,3.313382e+03
1.434781e+03,3.303031e+03
1.437674e+03,3.295792e+03
1.440566e+03,3.264193e+03
1.443459e+03,3.276374e+03
1.446352e+03,3.268838e+03
1.449244e+03,3.262070e+03
1.452137e+03,3.260080e+03
1.455030e+03,3.242143e+03
1.457922e+03,3.240503e+03
1.460815e+03,3.254056e+03
1.463708e+03,3.248633e+03
1.466601e+03,3.225282e+03
1.469493e+03,3.229769e+03
1.472386e+03,3.222141e+03
1.475279e+03,3.219625e+03
1.478171e+03,3.225634e+03
1.481064e+03,3.222266e+03
1.483957e+03,3.211233e+03
1.486849e+03,3.222898e+03
1.489742e+03,3.215214e+03
1.492635e+03,3.213395e+03
1.495528e+03,3.191686e+03
1.498420e+03,3.198815e+03
1.501313e+03,3.184653e+03
1.504206e+03,3.181129e+03
1.507098e+03,3.160371e+03
1.509991e+03,3.153220e+03
1.512884e+03,3.159480e+03
1.515776e+03,3.153488e+03
1.518669e+03,3.151541e+03
1.521562e+03,3.154104e+03
1.524455e+03,3.157827e+03
1.527347e+03,3.137640e+03
1.530240e+03,3.133163e+03
1.533133e+03,3.140207e+03
1.536025e+03,3.129876e+03
1.538918e+03,3.118553e+03
1.541811e+03,3.124314e+03
1.544703e+03,3.129739e+03
1.547596e+03,3.113180e+03
1.550489e+03,3.118636e+03
1.553382e+03,3.113164e+03
1.556274e+03,3.108699e+03
1.559167e+03,3.092450e+03
1.562060e+03,3.105781e+03
1.564952e+03,3.103852e+03
1.567845e+03,3.124000e+03
1.570738e+03,3.118965e+03
1.573630e+03,3.101800e+03
1.576523e+03,3.101512e+03
1.579416e+03,3.107773e+03
1.582309e+03,3.102016e+03
1.585201e+03,3.103321e+03
1.588094e+03,3.077134e+03
1.590987e+03,3.086886e+03
1.593879e+03,3.062777e+03
1.596772e+03,3.069257e+03
1.599665e+03,3.047658e+03
1.602557e+03,3.036365e+03
1.605450e+03,3.027887e+03
1.608343e+03,3.030275e+03
1.611236e+03,3.013602e+03
1.614128e+03,3.026786e+03
1.617021e+03,2.999196e+03
1.619914e+03,2.980341e+03
1.622806e+03,2.976577e+03
1.625699e+03,2.987202e+03
1.628592e+03,2.969250e+03
1.631484e+03,2.952122e+03
1.634377e+03,2.949122e+03
1.637270e+03,2.945141e+03
1.640163e+03,2.946077e+03
1.643055e+03,2.939121e+03
1.645948e+03,2.927053e+03
1.648841e+03,2.926446e+03
1.651733e+03,2.924468e+03
1.654626e+03,2.923277e+03
1.657519e+03,2.909047e+03
1.660411e+03,2.909978e+03
1.663304e+03,2.878565e+03
1.666197e+03,2.901292e+03
1.669090e+03,2.878970e+03
1.671982e+03,2.886946e+03
1.674875e+03,2.896569e+03
1.677768e+03,2.888083e+03
1.680660e+03,2.866348e+03
1.683553e+03,2.846344e+03
1.686446e+03,2.863893e+03
1.689339e+03,2.860746e+03
1.692231e+03,2.826254e+03
1.695124e+03,2.844957e+03
1.698017e+03,2.842969e+03
1.700909e+03,2.812129e+03
1.703802e+03,2.830750e+03
1.706695e+03,2.814570e+03
1.709587e+03,2.818346e+03
1.712480e+03,2.816144e+03
1.715373e+03,2.791232e+03
1.718266e+03,2.788334e+03
1.721158e+03,2.795333e+03
1.724051e+03,2.790417e+03
1.726944e+03,2.777173e+03
1.729836e+03,2.778262e+03
1.732729e+03,2.766749e+03
1.735622e+03,2.748560e+03
1.738514e+03,2.782951e+03
1.741407e+03,2.747842e+03
1.744300e+03,2.743870e+03
1.747193e+03,2.718943e+03
1.750085e+03,2.731166e+03
1.752978e+03,2.736951e+03
1.755871e+03,2.737104e+03
1.758763e+03,2.716116e+03
1.761656e+03,2.697632e+03
1.764549e+03,2.695889e+03
1.767441e+03,2.701633e+03
1.770334e+03,2.702392e+03
1.773227e+03,2.702116e+03
1.776120e+03,2.689325e+03
1.779012e+03,2.692996e+03
1.781905e+03,2.680849e+03
1.784798e+03,2.685297e+03
1.787690e+03,2.675110e+03
1.790583e+03,2.642064e+03
1.793476e+03,2.653919e+03
1.796368e+03,2.676537e+03
1.799261e+03,2.644527e+03
1.802154e+03,2.633780e+03
1.805047e+03,2.617219e+03
1.807939e+03,2.626722e+03
1.810832e+03,2.624253e+03
1.813725e+03,2.633799e+03
1.816617e+03,2.624176e+03
1.819510e+03,2.596413e+03
1.822403e+03,2.592040e+03
1.825295e+03,2.592878e+03
1.828188e+03,2.600129e+03
1.831081e+03,2.574984e+03
1.833974e+03,2.572709e+03
1.836866e+03,2.566936e+03
1.839759e+03,2.560492e+03
1.842652e+03,2.582450e+03
1.845544e+03,2.555327e+03
1.848437e+03,2.541648e+03
1.851330e+03,2.543188e+03
1.854222e+03,2.532626e+03
1.857115e+03,2.524043e+03
1.860008e+03,2.523817e+03
1.862901e+03,2.520646e+03
1.865793e+03,2.512000e+03
1.868686e+03,2.510919e+03
1.871579e+03,2.497609e+03
1.874471e+03,2.517473e+03
1.877364e+03,2.495398e+03
1.880257e+03,2.488604e+03
1.883149e+03,2.475276e+03
1.886042e+03,2.483251e+03
1.888935e+03,2.475924e+03
1.891828e+03,2.493401e+03
1.894720e+03,2.457571e+03
1.897613e+03,2.471776e+03
1.900506e+03,2.458918e+03
1.903398e+03,2.431192e+03
1.906291e+03,2.476432e+03
1.909184e+03,2.435583e+03
1.912076e+03,2.431247e+03
1.914969e+03,2.414360e+03
1.917862e+03,2.377258e+03
1.920755e+03,2.419997e+03
1.923647e+03,2.418403e+03
1.926540e+03,2.410411e+03
1.929433e+03,2.378864e+03
1.932325e+03,2.402040e+03
1.935218e+03,2.353052e+03
1.938111e+03,2.360539e+03
1.941003e+03,2.354335e+03
1.943896e+03,2.361500e+03
1.946789e+03,2.346445e+03
1.949682e+03,2.348435e+03
1.952574e+03,2.350570e+03
1.955467e+03,2.343112e+03
1.958360e+03,2.323141e+03
1.961252e+03,2.332009e+03
1.964145e+03,2.329153e+03
1.967038e+03,2.311404e+03
1.969930e+03,2.312004e+03
1.972823e+03,2.313296e+03
1.975716e+03,2.296767e+03
1.978609e+03,2.300166e+03
1.981501e+03,2.285860e+03
1.984394e+03,2.290551e+03
1.987287e+03,2.277067e+03
1.990179e+03,2.259132e+03
1.993072e+03,2.252099e+03
1.995965e+03,2.262347e+03
1.998857e+03,2.243270e+03
2.001750e+03,2.247307e+03
2.004643e+03,2.221354e+03
2.007536e+03,2.236362e+03
2.010428e+03,2.217890e+03
2.013321e+03,2.239077e+03
2.016214e+03,2.227101e+03
2.019106e+03,2.204530e+03
2.021999e+03,2.208399e+03
2.024892e+03,2.195925e+03
2.027784e+03,2.186428e+03
2.030677e+03,2.193141e+03
2.033570e+03,2.187179e+03
2.036463e+03,2.178749e+03
2.039355e+03,2.152087e+03
2.042248e+03,2.156623e+03
2.045141e+03,2.171116e+03
2.048033e+03,2.144999e+03
2.050926e+03,2.152889e+03
2.053819e+03,2.134909e+03
2.056711e+03,2.138851e+03
2.059604e+03,2.135129e+03
2.062497e+03,2.132421e+03
2.065390e+03,2.129977e+03
2.068282e+03,2.114402e+03
2.071175e+03,2.108106e+03
2.074068e+03,2.108537e+03
2.076960e+03,2.115156e+03
2.079853e+03,2.103530e+03
2.082746e+03,2.090911e+03
2.085638e+03,2.078826e+03
2.088531e+03,2.063229e+03
2.091424e+03,2.064110e+03
2.094316e+03,2.077927e+03
2.097209e+03,2.062312e+03
2.100102e+03,2.076531e+03
2.102995e+03,2.052507e+03
2.105887e+03,2.033670e+03
2.108780e+03,2.048835e+03
2.111673e+03,2.023393e+03
2.114565e+03,2.017020e+03
2.117458e+03,2.012645e+03
2.120351e+03,2.024939e+03
2.123244e+03,2.032756e+03
2.126136e+03,2.007324e+03
2.129029e+03,1.992943e+03
2.131922e+03,2.012343e+03
2.134814e+03,2.008465e+03
2.137707e+03,1.981475e+03
2.140600e+03,1.979419e+03
2.143492e+03,1.974831e+03
2.146385e+03,1.966070e+03
2.149278e+03,1.958428e+03
2.152170e+03,1.967221e+03
2.155063e+03,1.934945e+03
2.157956e+03,1.953580e+03
2.160849e+03,1.940453e+03
2.163741e+03,1.949884e+03
2.166634e+03,1.927246e+03
2.169527e+03,1.933733e+03
2.172419e+03,1.923903e+03
2.175312e+03,1.913506e+03
2.178205e+03,1.930139e+03
2.181098e+03,1.910447e+03
2.183990e+03,1.905498e+03
2.186883e+03,1.886208e+03
2.189776e+03,1.888658e+03
2.192668e+03,1.880126e+03
2.195561e+03,1.892333e+03
2.198454e+03,1.889014e+03
2.201346e+03,1.867980e+03
2.204239e+03,1.858643e+03
2.207132e+03,1.861019e+03
2.210024e+03,1.820655e+03
2.212917e+03,1.842757e+03
2.215810e+03,1.854193e+03
2.218703e+03,1.838828e+03
2.221595e+03,1.832182e+03
2.224488e+03,1.806567e+03
2.227381e+03,1.803053e+03
2.230273e+03,1.818862e+03
2.233166e+03,1.816782e+03
2.236059e+03,1.787516e+03
2.238952e+03,1.807313e+03
2.241844e+03,1.778102e+03
2.244737e+03,1.765854e+03
2.247630e+03,1.782226e+03
2.250522e+03,1.750016e+03
2.253415e+03,1.785900e+03
2.256308e+03,1.757404e+03
2.259200e+03,1.754579e+03
2.262093e+03,1.757906e+03
2.264986e+03,1.743845e+03
2.267879e+03,1.740344e+03
2.270771e+03,1.736928e+03
2.273664e+03,1.717902e+03
2.276557e+03,1.736778e+03
2.279449e+03,1.727299e+03
2.282342e+03,1.704460e+03
2.285235e+03,1.709810e+03
2.288127e+03,1.712491e+03
2.291020e+03,1.702420e+03
2.293913e+03,1.715508e+03
2.296805e+03,1.713443e+03
2.299698e+03,1.691160e+03
2.302591e+03,1.688102e+03
2.305484e+03,1.688875e+03
2.308376e+03,1.666784e+03
2.311269e+03,1.682654e+03
2.314162e+03,1.681953e+03
2.317054e+03,1.651376e+03
2.319947e+03,1.654333e+03
2.322840e+03,1.656272e+03
2.325733e+03,1.664045e+03
2.328625e+03,1.655880e+03
2.331518e+03,1.639775e+03
2.334411e+03,1.620744e+03
2.337303e+03,1.621544e+03
2.340196e+03,1.620321e+03
2.343089e+03,1.616268e+03
2.345981e+03,1.625034e+03
2.348874e+03,1.638208e+03
2.351767e+03,1.600677e+03
2.354659e+03,1.600233e+03
2.357552e+03,1.597041e+03
2.360445e+03,1.616053e+03
2.363338e+03,1.585995e+03
2.366230e+03,1.581978e+03
2.369123e+03,1.583295e+03
2.372016e+03,1.575991e+03
2.374908e+03,1.566560e+03
2.377801e+03,1.563310e+03
2.380694e+03,1.567310e+03
2.383587e+03,1.554968e+03
2.386479e+03,1.564928e+03
2.389372e+03,1.564970e+03
2.392265e+03,1.559435e+03
2.395157e+03,1.528081e+03
2.398050e+03,1.539277e+03
2.400943e+03,1.553960e+03
2.403835e+03,1.541461e+03
2.406728e+03,1.536115e+03
2.409621e+03,1.541749e+03
2.412513e+03,1.524379e+03
2.415406e+03,1.507599e+03
2.418299e+03,1.515256e+03
2.421192e+03,1.516943e+03
2.424084e+03,1.505649e+03
2.426977e+03,1.491429e+03
2.429870e+03,1.492416e+03
2.432762e+03,1.479128e+03
2.435655e+03,1.490887e+03
2.438548e+03,1.479227e+03
2.441441e+03,1.478521e+03
2.444333e+03,1.461241e+03
2.447226e+03,1.478107e+03
2.450119e+03,1.464083e+03
2.453011e+03,1.461734e+03
2.455904e+03,1.469114e+03
2.458797e+03,1.452853e+03
2.461689e+03,1.441631e+03
2.464582e+03,1.437260e+03
2.467475e+03,1.443806e+03
2.470367e+03,1.420225e+03
2.473260e+03,1.436701e+03
2.476153e+03,1.435342e+03
2.479046e+03,1.418179e+03
2.481938e+03,1.411961e+03
2.484831e+03,1.428263e+03
2.487724e+03,1.410268e+03
2.490616e+03,1.414196e+03
2.493509e+03,1.397607e+03
2.496402e+03,1.421294e+03
2.499295e+03,1.399842e+03
2.502187e+03,1.405243e+03
2.505080e+03,1.383077e+03
2.507973e+03,1.380816e+03
2.510865e+03,1.392623e+03
2.513758e+03,1.390202e+03
2.516651e+03,1.367796e+03
2.519543e+03,1.376558e+03
2.522436e+03,1.374593e+03
2.525329e+03,1.367004e+03
2.528221e+03,1.371338e+03
2.531114e+03,1.357254e+03
2.534007e+03,1.376924e+03
2.536900e+03,1.347921e+03
2.539792e+03,1.360655e+03
2.542685e+03,1.348400e+03
2.545578e+03,1.357301e+03
2.548470e+03,1.347316e+03
2.551363e+03,1.364006e+03
2.554256e+03,1.358055e+03
2.557149e+03,1.340341e+03
2.560041e+03,1.327947e+03
2.562934e+03,1.330698e+03
2.565827e+03,1.334791e+03
2.568719e+03,1.318143e+03
2.571612e+03,1.345007e+03
2.574505e+03,1.343327e+03
2.577397e+03,1.325241e+03
2.580290e+03,1.303318e+03
2.583183e+03,1.304537e+03
2.586075e+03,1.302594e+03
2.588968e+03,1.287146e+03
2.591861e+03,1.294085e+03
2.594754e+03,1.290451e+03
2.597646e+03,1.277868e+03
2.600539e+03,1.285736e+03
2.603432e+03,1.292766e+03
2.606324e+03,1.272395e+03
2.609217e+03,1.254675e+03
2.612110e+03,1.284545e+03
2.615003e+03,1.282042e+03
2.617895e+03,1.274409e+03
2.620788e+03,1.266235e+03
2.623681e+03,1.262124e+03
2.626573e+03,1.270250e+03
2.629466e+03,1.240814e+03
2.632359e+03,1.260364e+03
2.635251e+03,1.261161e+03
2.638144e+03,1.245847e+03
2.641037e+03,1.251132e+03
2.643929e+03,1.238612e+03
2.646822e+03,1.255183e+03
2.649715e+03,1.222657e+03
2.652608e+03,1.216066e+03
2.655500e+03,1.229149e+03
2.658393e+03,1.229594e+03
2.661286e+03,1.218326e+03
2.664178e+03,1.219438e+03
2.667071e+03,1.238035e+03
2.669964e+03,1.249711e+03
2.672857e+03,1.218927e+03
2.675749e+03,1.207109e+03
2.678642e+03,1.224865e+03
2.681535e+03,1.196491e+03
2.684427e+03,1.203628e+03
2.687320e+03,1.226134e+03
2.690213e+03,1.209937e+03
2.693105e+03,1.198147e+03
2.695998e+03,1.186005e+03
2.698891e+03,1.197009e+03
2.701783e+03,1.177663e+03
2.704676e+03,1.186891e+03
2.707569e+03,1.203627e+03
2.710462e+03,1.164709e+03
2.713354e+03,1.180958e+03
2.716247e+03,1.187353e+03
2.719140e+03,1.157439e+03
2.722032e+03,1.165673e+03
2.724925e+03,1.171761e+03
2.727818e+03,1.170823e+03
2.730711e+03,1.147587e+03
2.733603e+03,1.175100e+03
2.736496e+03,1.153609e+03
2.739389e+03,1.161545e+03
2.742281e+03,1.146981e+03
2.745174e+03,1.144208e+03
2.748067e+03,1.137158e+03
2.750959e+03,1.138932e+03
2.753852e+03,1.128964e+03
2.756745e+03,1.149319e+03
2.759637e+03,1.125457e+03
2.762530e+03,1.146615e+03
2.765423e+03,1.135935e+03
2.768316e+03,1.131863e+03
2.771208e+03,1.113100e+03
2.774101e+03,1.132159e+03
2.776994e+03,1.122476e+03
2.779886e+03,1.104403e+03
2.782779e+03,1.108376e+03
2.785672e+03,1.118817e+03
2.788565e+03,1.104194e+03
2.791457e+03,1.132504e+03
2.794350e+03,1.103563e+03
2.797243e+03,1.109837e+03
2.800135e+03,1.127816e+03
2.803028e+03,1.127155e+03
2.805921e+03,1.094423e+03
2.808813e+03,1.091703e+03
2.811706e+03,1.088447e+03
2.814599e+03,1.083349e+03
2.817491e+03,1.098539e+03
2.820384e+03,1.087816e+03
2.823277e+03,1.109474e+03
2.826170e+03,1.091056e+03
2.829062e+03,1.088364e+03
2.831955e+03,1.047659e+03
2.834848e+03,1.086745e+03
2.837740e+03,1.100594e+03
2.840633e+03,1.085004e+03
2.843526e+03,1.072580e+03
2.846419e+03,1.078367e+03
2.849311e+03,1.101677e+03
2.852204e+03,1.079950e+03
2.855097e+03,1.063335e+03
2.857990e+03,1.075155e+03
2.860882e+03,1.065803e+03
2.863775e+03,1.064425e+03
2.866667e+03,1.071378e+03
2.869560e+03,1.069080e+03
2.872453e+03,1.062715e+03
2.875345e+03,1.071819e+03
2.878238e+03,1.069318e+03
2.881131e+03,1.078111e+03
2.884024e+03,1.069949e+03
2.886916e+03,1.084831e+03
2.889809e+03,1.067094e+03
2.892702e+03,1.065302e+03
2.895594e+03,1.084957e+03
2.898487e+03,1.077128e+03
2.901380e+03,1.075316e+03
2.904273e+03,1.065583e+03
2.907165e+03,1.060063e+03
2.910058e+03,1.078663e+03
2.912951e+03,1.048564e+03
2.915844e+03,1.060560e+03
2.918736e+03,1.043354e+03
2.921629e+03,1.052000e+03
2.924521e+03,1.040242e+03
2.927414e+03,1.055183e+03
2.930307e+03,1.019103e+03
2.933199e+03,1.051409e+03
2.936092e+03,1.044557e+03
2.938985e+03,1.000869e+03
2.941878e+03,1.021355e+03
2.944770e+03,1.051658e+03
2.947663e+03,1.050844e+03
2.950556e+03,1.030751e+03
2.953448e+03,1.027086e+03
2.956341e+03,1.073528e+03
2.959234e+03,1.064442e+03
2.962127e+03,1.009872e+03
2.965019e+03,1.002072e+03
2.967912e+03,9.864536e+02
2.970805e+03,9.680518e+02
2.973698e+03,9.836902e+02
2.976590e+03,9.927582e+02
2.979483e+03,9.976418e+02
2.982375e+03,9.835986e+02
2.985268e+03,1.019415e+03
2.988161e+03,9.775013e+02
2.991053e+03,9.681047e+02
2.993946e+03,9.811533e+02
2.996839e+03,9.933185e+02
2.999732e+03,9.440720e+02
3.002624e+03,9.606750e+02
3.005517e+03,9.706913e+02
3.008410e+03,9.769725e+02
3.011302e+03,9.690452e+02
3.014195e+03,9.744586e+02
3.017088e+03,1.006232e+03
3.019981e+03,9.934893e+02
3.022873e+03,9.520653e+02
3.025766e+03,9.423058e+02
3.028659e+03,9.469742e+02
3.031552e+03,9.628790e+02
3.034444e+03,9.788200e+02
3.037337e+03,9.776904e+02
3.040229e+03,9.348075e+02
3.043122e+03,9.794897e+02
3.046015e+03,9.588876e+02
3.048907e+03,9.192202e+02
3.051800e+03,9.563796e+02
3.054693e+03,9.542067e+02
3.057586e+03,9.513661e+02
3.060478e+03,9.566101e+02
3.063371e+03,9.769922e+02
3.066264e+03,9.331694e+02
3.069156e+03,9.664650e+02
3.072049e+03,9.453850e+02
3.074942e+03,9.616102e+02
3.077835e+03,9.340283e+02
3.080727e+03,9.318695e+02
3.083620e+03,9.376223e+02
3.086513e+03,9.653737e+02
3.089406e+03,9.409990e+02
3.092298e+03,9.367381e+02
3.095191e+03,9.492971e+02
3.098083e+03,9.450305e+02
3.100976e+03,9.627318e+02
3.103869e+03,9.189794e+02
3.106761e+03,9.205833e+02
3.109654e+03,9.375170e+02
3.112547e+03,9.041840e+02
3.115440e+03,9.551373e+02
3.118332e+03,9.662369e+02
3.121225e+03,9.223456e+02
3.124118e+03,9.769440e+02
3.127010e+03,9.448340e+02
3.129903e+03,9.415050e+02
3.132796e+03,9.148811e+02
3.135689e+03,9.663972e+02
3.138581e+03,9.037532e+02
3.141474e+03,9.573243e+02
3.144367e+03,9.277313e+02
3.147260e+03,9.135756e+02
3.150152e+03,9.903134e+02
3.153045e+03,8.954489e+02
3.155938e+03,9.331918e+02
3.158830e+03,9.384603e+02
3.161723e+03,9.445391e+02
3.164615e+03,9.364017e+02
3.167508e+03,9.497549e+02
3.170401e+03,9.062025e+02
3.173294e+03,9.454375e+02
3.176186e+03,9.639935e+02
3.179079e+03,9.142052e+02
3.181972e+03,9.140059e+02
3.184865e+03,9.261152e+02
3.187757e+03,9.520790e+02
3.190650e+03,9.827880e+02
3.193543e+03,9.346821e+02
3.196435e+03,9.412041e+02
3.199328e+03,9.751064e+02
3.200292e+03,9.993770e+02