File: RAMAN_data/20012023_r1/black fibre3.CSV
1.995979e+02,1.026432e+04
2.024906e+02,1.029584e+04
2.053833e+02,1.035064e+04
2.082760e+02,1.035664e+04
2.111687e+02,1.038260e+04
2.140614e+02,1.042405e+04
2.169541e+02,1.046053e+04
2.198468e+02,1.050265e+04
2.227395e+02,1.058100e+04
2.256322e+02,1.054199e+04
2.285249e+02,1.057977e+04
2.314176e+02,1.067503e+04
2.343103e+02,1.070263e+04
2.372030e+02,1.074194e+04
2.400957e+02,1.076275e+04
2.429884e+02,1.078117e+04
2.458811e+02,1.085448e+04
2.487738e+02,1.090904e+04
2.516665e+02,1.093603e+04
2.545592e+02,1.097229e+04
2.574519e+02,1.097223e+04
2.603446e+02,1.100378e+04
2.632373e+02,1.105562e+04
2.661300e+02,1.109288e+04
2.690227e+02,1.111871e+04
2.719154e+02,1.114331e+04
2.748081e+02,1.116541e+04
2.777008e+02,1.121963e+04
2.805935e+02,1.124688e+04
2.834862e+02,1.127886e+04
2.863789e+02,1.128756e+04
2.892716e+02,1.130667e+04
2.921643e+02,1.133578e+04
2.950570e+02,1.137532e+04
2.979497e+02,1.141115e+04
3.008424e+02,1.142350e+04
3.037351e+02,1.145768e+04
3.066278e+02,1.148101e+04
3.095205e+02,1.151189e+04
3.124132e+02,1.156491e+04
3.153059e+02,1.159377e+04
3.181986e+02,1.160278e+04
3.210913e+02,1.162868e+04
3.239840e+02,1.167008e+04
3.268767e+02,1.171076e+04
3.297694e+02,1.174823e+04
3.326621e+02,1.177917e+04
3.355548e+02,1.179133e+04
3.384475e+02,1.181818e+04
3.413402e+02,1.186321e+04
3.442329e+02,1.191531e+04
3.471256e+02,1.194810e+04
3.500183e+02,1.195845e+04
3.529110e+02,1.201443e+04
3.558037e+02,1.204545e+04
3.586964e+02,1.206371e+04
3.615891e+02,1.213929e+04
3.644818e+02,1.213557e+04
3.673745e+02,1.213918e+04
3.702672e+02,1.218461e+04
3.731599e+02,1.221898e+04
3.760526e+02,1.225438e+04
3.789453e+02,1.228184e+04
3.818380e+02,1.227502e+04
3.847307e+02,1.230183e+04
3.876234e+02,1.235679e+04
3.905161e+02,1.237428e+04
3.934088e+02,1.238266e+04
3.963015e+02,1.240006e+04
3.991942e+02,1.241159e+04
4.020869e+02,1.244490e+04
4.049796e+02,1.248834e+04
4.078723e+02,1.250992e+04
4.107650e+02,1.255055e+04
4.136577e+02,1.255921e+04
4.165504e+02,1.256087e+04
4.194431e+02,1.260617e+04
4.223358e+02,1.262328e+04
4.252285e+02,1.262989e+04
4.281212e+02,1.263957e+04
4.310139e+02,1.266900e+04
4.339066e+02,1.266925e+04
4.367993e+02,1.270949e+04
4.396920e+02,1.269462e+04
4.425847e+02,1.273221e+04
4.454774e+02,1.277886e+04
4.483701e+02,1.280625e+04
4.512628e+02,1.280197e+04
4.541555e+02,1.284384e+04
4.570482e+02,1.285663e+04
4.599409e+02,1.284811e+04
4.628336e+02,1.290395e+04
4.657263e+02,1.290612e+04
4.686190e+02,1.293060e+04
4.715117e+02,1.292284e+04
4.744044e+02,1.293032e+04
4.772971e+02,1.294897e+04
4.801898e+02,1.298707e+04
4.830825e+02,1.299201e+04
4.859752e+02,1.303736e+04
4.888679e+02,1.301502e+04
4.917606e+02,1.303538e+04
4.946533e+02,1.304862e+04
4.975460e+02,1.311685e+04
5.004387e+02,1.312474e+04
5.033314e+02,1.316807e+04
5.062241e+02,1.317540e+04
5.091168e+02,1.318454e+04
5.120095e+02,1.318146e+04
5.149022e+02,1.323803e+04
5.177949e+02,1.325831e+04
5.206876e+02,1.325581e+04
5.235803e+02,1.327714e+04
5.264730e+02,1.331293e+04
5.293657e+02,1.331251e+04
5.322584e+02,1.334726e+04
5.351511e+02,1.337859e+04
5.380438e+02,1.343228e+04
5.409365e+02,1.355359e+04
5.438292e+02,1.354768e+04
5.467219e+02,1.357045e+04
5.496146e+02,1.365459e+04
5.525073e+02,1.364964e+04
5.554000e+02,1.375128e+04
5.582927e+02,1.378880e+04
5.611854e+02,1.376700e+04
5.640781e+02,1.369929e+04
5.669708e+02,1.360599e+04
5.698635e+02,1.356578e+04
5.727562e+02,1.350511e+04
5.756489e+02,1.353667e+04
5.785416e+02,1.354652e+04
5.814343e+02,1.353956e+04
5.843270e+02,1.349782e+04
5.872197e+02,1.354621e+04
5.901124e+02,1.358693e+04
5.930051e+02,1.365013e+04
5.958978e+02,1.368490e+04
5.987905e+02,1.366901e+04
6.016832e+02,1.364130e+04
6.045759e+02,1.374498e+04
6.074686e+02,1.387502e+04
6.103613e+02,1.391214e+04
6.132540e+02,1.383928e+04
6.161467e+02,1.372453e+04
6.190394e+02,1.364637e+04
6.219321e+02,1.363688e+04
6.248248e+02,1.369528e+04
6.277175e+02,1.364791e+04
6.306102e+02,1.367580e+04
6.335029e+02,1.365092e+04
6.363956e+02,1.365690e+04
6.392883e+02,1.365725e+04
6.421810e+02,1.365473e+04
6.450737e+02,1.364708e+04
6.479664e+02,1.365219e+04
6.508591e+02,1.360771e+04
6.537518e+02,1.370641e+04
6.566445e+02,1.365650e+04
6.595372e+02,1.362547e+04
6.624299e+02,1.364272e+04
6.653226e+02,1.364509e+04
6.682153e+02,1.370150e+04
6.711080e+02,1.371535e+04
6.740007e+02,1.370073e+04
6.768934e+02,1.367682e+04
6.797861e+02,1.369840e+04
6.826788e+02,1.372003e+04
6.855715e+02,1.369954e+04
6.884642e+02,1.367108e+04
6.913569e+02,1.364251e+04
6.942496e+02,1.363957e+04
6.971423e+02,1.361581e+04
7.000350e+02,1.368151e+04
7.029277e+02,1.364328e+04
7.058204e+02,1.360042e+04
7.087131e+02,1.364804e+04
7.116058e+02,1.359488e+04
7.144985e+02,1.361178e+04
7.173912e+02,1.361180e+04
7.202839e+02,1.360512e+04
7.231766e+02,1.355280e+04
7.260693e+02,1.361260e+04
7.289620e+02,1.357690e+04
7.318547e+02,1.355672e+04
7.347474e+02,1.358632e+04
7.376401e+02,1.359081e+04
7.405328e+02,1.356319e+04
7.434255e+02,1.354068e+04
7.463182e+02,1.357170e+04
7.492109e+02,1.353006e+04
7.521036e+02,1.355063e+04
7.549963e+02,1.357320e+04
7.578890e+02,1.358023e+04
7.607817e+02,1.360729e+04
7.636744e+02,1.355523e+04
7.665671e+02,1.358264e+04
7.694598e+02,1.357796e+04
7.723525e+02,1.353778e+04
7.752452e+02,1.359931e+04
7.781379e+02,1.362142e+04
7.810306e+02,1.363053e+04
7.839233e+02,1.363244e+04
7.868160e+02,1.362376e+04
7.897087e+02,1.360842e+04
7.926014e+02,1.362775e+04
7.954941e+02,1.350862e+04
7.983868e+02,1.347512e+04
8.012795e+02,1.341474e+04
8.041722e+02,1.341939e+04
8.070649e+02,1.341472e+04
8.099576e+02,1.335279e+04
8.128503e+02,1.336350e+04
8.157430e+02,1.335795e+04
8.186357e+02,1.338201e+04
8.215284e+02,1.333396e+04
8.244211e+02,1.336437e+04
8.273138e+02,1.333108e+04
8.302065e+02,1.334303e+04
8.330992e+02,1.337017e+04
8.359919e+02,1.333378e+04
8.388846e+02,1.333874e+04
8.417773e+02,1.333928e+04
8.446700e+02,1.325881e+04
8.475627e+02,1.325479e+04
8.504554e+02,1.325755e+04
8.533481e+02,1.325582e+04
8.562408e+02,1.323741e+04
8.591335e+02,1.322559e+04
8.620262e+02,1.319564e+04
8.649189e+02,1.319145e+04
8.678116e+02,1.318100e+04
8.707043e+02,1.318688e+04
8.735970e+02,1.315532e+04
8.764897e+02,1.309260e+04
8.793824e+02,1.311078e+04
8.822751e+02,1.311763e+04
8.851678e+02,1.312144e+04
8.880605e+02,1.307701e+04
8.909532e+02,1.303350e+04
8.938459e+02,1.304620e+04
8.967386e+02,1.303628e+04
8.996313e+02,1.302926e+04
9.025240e+02,1.302585e+04
9.054167e+02,1.298423e+04
9.083094e+02,1.292878e+04
9.112021e+02,1.292311e+04
9.140948e+02,1.288125e+04
9.169875e+02,1.292946e+04
9.198802e+02,1.284858e+04
9.227729e+02,1.281864e+04
9.256656e+02,1.279181e+04
9.285583e+02,1.283204e+04
9.314510e+02,1.281390e+04
9.343438e+02,1.281800e+04
9.372365e+02,1.279215e+04
9.401292e+02,1.276395e+04
9.430219e+02,1.274387e+04
9.459146e+02,1.272127e+04
9.488073e+02,1.271264e+04
9.517000e+02,1.269134e+04
9.545927e+02,1.262582e+04
9.574854e+02,1.260042e+04
9.603781e+02,1.263225e+04
9.632708e+02,1.264444e+04
9.661635e+02,1.260558e+04
9.690562e+02,1.257746e+04
9.719489e+02,1.251806e+04
9.748416e+02,1.249994e+04
9.777343e+02,1.253013e+04
9.806270e+02,1.250236e+04
9.835197e+02,1.240954e+04
9.864124e+02,1.238202e+04
9.893051e+02,1.235192e+04
9.921978e+02,1.239483e+04
9.950905e+02,1.240108e+04
9.979832e+02,1.235356e+04
1.000876e+03,1.232048e+04
1.003769e+03,1.230806e+04
1.006661e+03,1.229978e+04
1.009554e+03,1.232209e+04
1.012447e+03,1.230407e+04
1.015339e+03,1.225226e+04
1.018232e+03,1.223638e+04
1.021125e+03,1.223675e+04
1.024017e+03,1.219341e+04
1.026910e+03,1.218042e+04
1.029803e+03,1.215108e+04
1.032696e+03,1.215411e+04
1.035588e+03,1.214328e+04
1.038481e+03,1.213078e+04
1.041374e+03,1.212683e+04
1.044266e+03,1.210674e+04
1.047159e+03,1.202668e+04
1.050052e+03,1.203891e+04
1.052944e+03,1.204944e+04
1.055837e+03,1.200020e+04
1.058730e+03,1.197491e+04
1.061623e+03,1.197272e+04
1.064515e+03,1.197869e+04
1.067408e+03,1.200258e+04
1.070301e+03,1.200149e+04
1.073193e+03,1.199342e+04
1.076086e+03,1.198147e+04
1.078979e+03,1.195629e+04
1.081871e+03,1.197256e+04
1.084764e+03,1.197047e+04
1.087657e+03,1.190836e+04
1.090550e+03,1.186569e+04
1.093442e+03,1.179627e+04
1.096335e+03,1.175836e+04
1.099228e+03,1.173112e+04
1.102120e+03,1.170378e+04
1.105013e+03,1.169968e+04
1.107906e+03,1.169880e+04
1.110798e+03,1.165815e+04
1.113691e+03,1.162113e+04
1.116584e+03,1.161488e+04
1.119477e+03,1.159117e+04
1.122369e+03,1.158177e+04
1.125262e+03,1.151747e+04
1.128155e+03,1.147594e+04
1.131047e+03,1.151128e+04
1.133940e+03,1.150650e+04
1.136833e+03,1.144431e+04
1.139725e+03,1.146250e+04
1.142618e+03,1.142878e+04
1.145511e+03,1.144038e+04
1.148404e+03,1.138316e+04
1.151296e+03,1.137882e+04
1.154189e+03,1.132814e+04
1.157082e+03,1.129836e+04
1.159974e+03,1.126413e+04
1.162867e+03,1.127930e+04
1.165760e+03,1.127540e+04
1.168652e+03,1.123148e+04
1.171545e+03,1.122299e+04
1.174438e+03,1.120304e+04
1.177331e+03,1.121019e+04
1.180223e+03,1.118801e+04
1.183116e+03,1.116391e+04
1.186009e+03,1.115048e+04
1.188901e+03,1.114047e+04
1.191794e+03,1.111769e+04
1.194687e+03,1.110742e+04
1.197579e+03,1.113218e+04
1.200472e+03,1.100393e+04
1.203365e+03,1.098872e+04
1.206258e+03,1.094555e+04
1.209150e+03,1.094608e+04
1.212043e+03,1.092099e+04
1.214936e+03,1.089631e+04
1.217828e+03,1.090312e+04
1.220721e+03,1.089378e+04
1.223614e+03,1.089729e+04
1.226506e+03,1.086185e+04
1.229399e+03,1.084768e+04
1.232292e+03,1.079667e+04
1.235185e+03,1.078449e+04
1.238077e+03,1.079370e+04
1.240970e+03,1.072760e+04
1.243863e+03,1.073447e+04
1.246755e+03,1.069861e+04
1.249648e+03,1.065094e+04
1.252541e+03,1.060979e+04
1.255433e+03,1.060273e+04
1.258326e+03,1.059060e+04
1.261219e+03,1.054914e+04
1.264112e+03,1.051542e+04
1.267004e+03,1.049459e+04
1.269897e+03,1.048816e+04
1.272790e+03,1.047769e+04
1.275682e+03,1.048247e+04
1.278575e+03,1.045059e+04
1.281468e+03,1.037623e+04
1.284360e+03,1.036798e+04
1.287253e+03,1.039239e+04
1.290146e+03,1.036811e+04
1.293039e+03,1.034062e+04
1.295931e+03,1.030524e+04
1.298824e+03,1.031072e+04
1.301717e+03,1.026567e+04
1.304609e+03,1.032260e+04
1.307502e+03,1.030288e+04
1.310395e+03,1.024023e+04
1.313287e+03,1.023396e+04
1.316180e+03,1.022534e+04
1.319073e+03,1.022995e+04
1.321966e+03,1.018142e+04
1.324858e+03,1.016895e+04
1.327751e+03,1.013377e+04
1.330644e+03,1.011538e+04
1.333536e+03,1.011914e+04
1.336429e+03,1.009244e+04
1.339322e+03,1.004162e+04
1.342214e+03,1.002869e+04
1.345107e+03,9.994204e+03
1.348000e+03,9.997971e+03
1.350893e+03,9.990244e+03
1.353785e+03,9.972953e+03
1.356678e+03,9.934880e+03
1.359571e+03,9.913552e+03
1.362463e+03,9.926395e+03
1.365356e+03,9.894259e+03
1.368249e+03,9.909138e+03
1.371141e+03,9.837712e+03
1.374034e+03,9.789311e+03
1.376927e+03,9.755608e+03
1.379820e+03,9.811702e+03
1.382712e+03,9.778155e+03
1.385605e+03,9.765552e+03
1.388498e+03,9.731422e+03
1.391390e+03,9.655563e+03
1.394283e+03,9.686941e+03
1.397176e+03,9.680757e+03
1.400068e+03,9.680610e+03
1.402961e+03,9.643779e+03
1.405854e+03,9.604948e+03
1.408747e+03,9.572828e+03
1.411639e+03,9.578521e+03
1.414532e+03,9.578462e+03
1.417425e+03,9.542330e+03
1.420317e+03,9.524027e+03
1.423210e+03,9.491357e+03
1.426103e+03,9.483598e+03
1.428995e+03,9.455796e+03
1.431888e+03,9.468891e+03
1.434781e+03,9.443208e+03
1.437674e+03,9.415975e+03
1.440566e+03,9.418594e+03
1.443459e+03,9.413467e+03
1.446352e+03,9.427385e+03
1.449244e+03,9.432654e+03
1.452137e+03,9.431262e+03
1.455030e+03,9.420846e+03
1.457922e+03,9.357460e+03
1.460815e+03,9.315928e+03
1.463708e+03,9.321861e+03
1.466601e+03,9.225766e+03
1.469493e+03,9.226265e+03
1.472386e+03,9.208004e+03
1.475279e+03,9.253995e+03
1.478171e+03,9.230045e+03
1.481064e+03,9.201925e+03
1.483957e+03,9.167534e+03
1.486849e+03,9.182132e+03
1.489742e+03,9.170537e+03
1.492635e+03,9.105288e+03
1.495528e+03,9.108777e+03
1.498420e+03,9.074183e+03
1.501313e+03,9.089079e+03
1.504206e+03,9.107909e+03
1.507098e+03,9.093881e+03
1.509991e+03,9.082546e+03
1.512884e+03,9.042844e+03
1.515776e+03,9.061224e+03
1.518669e+03,9.052869e+03
1.521562e+03,8.998218e+03
1.524455e+03,8.968851e+03
1.527347e+03,8.902707e+03
1.530240e+03,8.886149e+03
1.533133e+03,8.877239e+03
1.536025e+03,8.842967e+03
1.538918e+03,8.835131e+03
1.541811e+03,8.821928e+03
1.544703e+03,8.804607e+03
1.547596e+03,8.801402e+03
1.550489e+03,8.799701e+03
1.553382e+03,8.815271e+03
1.556274e+03,8.834551e+03
1.559167e+03,8.788965e+03
1.562060e+03,8.818250e+03
1.564952e+03,8.876949e+03
1.567845e+03,8.985522e+03
1.570738e+03,8.992963e+03
1.573630e+03,8.955503e+03
1.576523e+03,8.897787e+03
1.579416e+03,8.849315e+03
1.582309e+03,8.795893e+03
1.585201e+03,8.741728e+03
1.588094e+03,8.672505e+03
1.590987e+03,8.617886e+03
1.593879e+03,8.618237e+03
1.596772e+03,8.570525e+03
1.599665e+03,8.557393e+03
1.602557e+03,8.562200e+03
1.605450e+03,8.517036e+03
1.608343e+03,8.471993e+03
1.611236e+03,8.436210e+03
1.614128e+03,8.450509e+03
1.617021e+03,8.449474e+03
1.619914e+03,8.418929e+03
1.622806e+03,8.398577e+03
1.625699e+03,8.441549e+03
1.628592e+03,8.442295e+03
1.631484e+03,8.403013e+03
1.634377e+03,8.372661e+03
1.637270e+03,8.298485e+03
1.640163e+03,8.263729e+03
1.643055e+03,8.257509e+03
1.645948e+03,8.221334e+03
1.648841e+03,8.186661e+03
1.651733e+03,8.188482e+03
1.654626e+03,8.168669e+03
1.657519e+03,8.145297e+03
1.660411e+03,8.154630e+03
1.663304e+03,8.107009e+03
1.666197e+03,8.128419e+03
1.669090e+03,8.134592e+03
1.671982e+03,8.098433e+03
1.674875e+03,8.137627e+03
1.677768e+03,8.105943e+03
1.680660e+03,8.081751e+03
1.683553e+03,8.028041e+03
1.686446e+03,8.023941e+03
1.689339e+03,7.980571e+03
1.692231e+03,7.947509e+03
1.695124e+03,7.908591e+03
1.698017e+03,7.942370e+03
1.700909e+03,7.936987e+03
1.703802e+03,7.899096e+03
1.706695e+03,7.879357e+03
1.709587e+03,7.848791e+03
1.712480e+03,7.831264e+03
1.715373e+03,7.815931e+03
1.718266e+03,7.793163e+03
1.721158e+03,7.787178e+03
1.724051e+03,7.770042e+03
1.726944e+03,7.762818e+03
1.729836e+03,7.741983e+03
1.732729e+03,7.745568e+03
1.735622e+03,7.698462e+03
1.738514e+03,7.674923e+03
1.741407e+03,7.711219e+03
1.744300e+03,7.656756e+03
1.747193e+03,7.642728e+03
1.750085e+03,7.621678e+03
1.752978e+03,7.610160e+03
1.755871e+03,7.612772e+03
1.758763e+03,7.537986e+03
1.761656e+03,7.520226e+03
1.764549e+03,7.537503e+03
1.767441e+03,7.518203e+03
1.770334e+03,7.482834e+03
1.773227e+03,7.519458e+03
1.776120e+03,7.455443e+03
1.779012e+03,7.454871e+03
1.781905e+03,7.425374e+03
1.784798e+03,7.460514e+03
1.787690e+03,7.427351e+03
1.790583e+03,7.361422e+03
1.793476e+03,7.343724e+03
1.796368e+03,7.370960e+03
1.799261e+03,7.357222e+03
1.802154e+03,7.357878e+03
1.805047e+03,7.269190e+03
1.807939e+03,7.287450e+03
1.810832e+03,7.296925e+03
1.813725e+03,7.297285e+03
1.816617e+03,7.275854e+03
1.819510e+03,7.223167e+03
1.822403e+03,7.234930e+03
1.825295e+03,7.172953e+03
1.828188e+03,7.201650e+03
1.831081e+03,7.181766e+03
1.833974e+03,7.176315e+03
1.836866e+03,7.140143e+03
1.839759e+03,7.099573e+03
1.842652e+03,7.146152e+03
1.845544e+03,7.114655e+03
1.848437e+03,7.064950e+03
1.851330e+03,7.039009e+03
1.854222e+03,7.037037e+03
1.857115e+03,7.038540e+03
1.860008e+03,7.042401e+03
1.862901e+03,7.009731e+03
1.865793e+03,6.978893e+03
1.868686e+03,6.980445e+03
1.871579e+03,6.972287e+03
1.874471e+03,6.992639e+03
1.877364e+03,6.914951e+03
1.880257e+03,6.921400e+03
1.883149e+03,6.880547e+03
1.886042e+03,6.886993e+03
1.888935e+03,6.872040e+03
1.891828e+03,6.872661e+03
1.894720e+03,6.820995e+03
1.897613e+03,6.796398e+03
1.900506e+03,6.815167e+03
1.903398e+03,6.793725e+03
1.906291e+03,6.735728e+03
1.909184e+03,6.747557e+03
1.912076e+03,6.742014e+03
1.914969e+03,6.713549e+03
1.917862e+03,6.680649e+03
1.920755e+03,6.683497e+03
1.923647e+03,6.655435e+03
1.926540e+03,6.644529e+03
1.929433e+03,6.639342e+03
1.932325e+03,6.582146e+03
1.935218e+03,6.583505e+03
1.938111e+03,6.607100e+03
1.941003e+03,6.576884e+03
1.943896e+03,6.516388e+03
1.946789e+03,6.527211e+03
1.949682e+03,6.502472e+03
1.952574e+03,6.485781e+03
1.955467e+03,6.488434e+03
1.958360e+03,6.484538e+03
1.961252e+03,6.441849e+03
1.964145e+03,6.429014e+03
1.967038e+03,6.422298e+03
1.969930e+03,6.419903e+03
1.972823e+03,6.348020e+03
1.975716e+03,6.377377e+03
1.978609e+03,6.352573e+03
1.981501e+03,6.333532e+03
1.984394e+03,6.311257e+03
1.987287e+03,6.300376e+03
1.990179e+03,6.263901e+03
1.993072e+03,6.287283e+03
1.995965e+03,6.237835e+03
1.998857e+03,6.250509e+03
2.001750e+03,6.211465e+03
2.004643e+03,6.225138e+03
2.007536e+03,6.201515e+03
2.010428e+03,6.152737e+03
2.013321e+03,6.130151e+03
2.016214e+03,6.136946e+03
2.019106e+03,6.127521e+03
2.021999e+03,6.087087e+03
2.024892e+03,6.071455e+03
2.027784e+03,6.071172e+03
2.030677e+03,6.036954e+03
2.033570e+03,6.030439e+03
2.036463e+03,6.033228e+03
2.039355e+03,5.986969e+03
2.042248e+03,5.955795e+03
2.045141e+03,5.950581e+03
2.048033e+03,5.948430e+03
2.050926e+03,5.930608e+03
2.053819e+03,5.909445e+03
2.056711e+03,5.866813e+03
2.059604e+03,5.879808e+03
2.062497e+03,5.855891e+03
2.065390e+03,5.854572e+03
2.068282e+03,5.815021e+03
2.071175e+03,5.785084e+03
2.074068e+03,5.795734e+03
2.076960e+03,5.792338e+03
2.079853e+03,5.791989e+03
2.082746e+03,5.759905e+03
2.085638e+03,5.707104e+03
2.088531e+03,5.757730e+03
2.091424e+03,5.689188e+03
2.094316e+03,5.667858e+03
2.097209e+03,5.667552e+03
2.100102e+03,5.658911e+03
2.102995e+03,5.625659e+03
2.105887e+03,5.580346e+03
2.108780e+03,5.617290e+03
2.111673e+03,5.575796e+03
2.114565e+03,5.546186e+03
2.117458e+03,5.542015e+03
2.120351e+03,5.546851e+03
2.123244e+03,5.585267e+03
2.126136e+03,5.489902e+03
2.129029e+03,5.460497e+03
2.131922e+03,5.482400e+03
2.134814e+03,5.472116e+03
2.137707e+03,5.441282e+03
2.140600e+03,5.435924e+03
2.143492e+03,5.424020e+03
2.146385e+03,5.370647e+03
2.149278e+03,5.370045e+03
2.152170e+03,5.380546e+03
2.155063e+03,5.358991e+03
2.157956e+03,5.331807e+03
2.160849e+03,5.342603e+03
2.163741e+03,5.304325e+03
2.166634e+03,5.293028e+03
2.169527e+03,5.288165e+03
2.172419e+03,5.255873e+03
2.175312e+03,5.233353e+03
2.178205e+03,5.243816e+03
2.181098e+03,5.160176e+03
2.183990e+03,5.159932e+03
2.186883e+03,5.195715e+03
2.189776e+03,5.164020e+03
2.192668e+03,5.121526e+03
2.195561e+03,5.111415e+03
2.198454e+03,5.100534e+03
2.201346e+03,5.079618e+03
2.204239e+03,5.083884e+03
2.207132e+03,5.078506e+03
2.210024e+03,5.013663e+03
2.212917e+03,5.018502e+03
2.215810e+03,5.016778e+03
2.218703e+03,5.010342e+03
2.221595e+03,5.024857e+03
2.224488e+03,4.961891e+03
2.227381e+03,4.958390e+03
2.230273e+03,4.963971e+03
2.233166e+03,4.964138e+03
2.236059e+03,4.917297e+03
2.238952e+03,4.883013e+03
2.241844e+03,4.836627e+03
2.244737e+03,4.855887e+03
2.247630e+03,4.825417e+03
2.250522e+03,4.816509e+03
2.253415e+03,4.817555e+03
2.256308e+03,4.792141e+03
2.259200e+03,4.772408e+03
2.262093e+03,4.767046e+03
2.264986e+03,4.719147e+03
2.267879e+03,4.732304e+03
2.270771e+03,4.687589e+03
2.273664e+03,4.659822e+03
2.276557e+03,4.660178e+03
2.279449e+03,4.677681e+03
2.282342e+03,4.614366e+03
2.285235e+03,4.613429e+03
2.288127e+03,4.607091e+03
2.291020e+03,4.594205e+03
2.293913e+03,4.598883e+03
2.296805e+03,4.609445e+03
2.299698e+03,4.583251e+03
2.302591e+03,4.525175e+03
2.305484e+03,4.525781e+03
2.308376e+03,4.509818e+03
2.311269e+03,4.513644e+03
2.314162e+03,4.490731e+03
2.317054e+03,4.471938e+03
2.319947e+03,4.439151e+03
2.322840e+03,4.450632e+03
2.325733e+03,4.457056e+03
2.328625e+03,4.410181e+03
2.331518e+03,4.412751e+03
2.334411e+03,4.362433e+03
2.337303e+03,4.360511e+03
2.340196e+03,4.308224e+03
2.343089e+03,4.356256e+03
2.345981e+03,4.379269e+03
2.348874e+03,4.327456e+03
2.351767e+03,4.304603e+03
2.354659e+03,4.261719e+03
2.357552e+03,4.269164e+03
2.360445e+03,4.287977e+03
2.363338e+03,4.303399e+03
2.366230e+03,4.240000e+03
2.369123e+03,4.223347e+03
2.372016e+03,4.220830e+03
2.374908e+03,4.224979e+03
2.377801e+03,4.177773e+03
2.380694e+03,4.114537e+03
2.383587e+03,4.119491e+03
2.386479e+03,4.133953e+03
2.389372e+03,4.114084e+03
2.392265e+03,4.128588e+03
2.395157e+03,4.120437e+03
2.398050e+03,4.074172e+03
2.400943e+03,4.066283e+03
2.403835e+03,4.068651e+03
2.406728e+03,4.042880e+03
2.409621e+03,4.023078e+03
2.412513e+03,4.012027e+03
2.415406e+03,4.006551e+03
2.418299e+03,3.987445e+03
2.421192e+03,3.998978e+03
2.424084e+03,3.989420e+03
2.426977e+03,3.914381e+03
2.429870e+03,3.943697e+03
2.432762e+03,3.919881e+03
2.435655e+03,3.921727e+03
2.438548e+03,3.927152e+03
2.441441e+03,3.871930e+03
2.444333e+03,3.872624e+03
2.447226e+03,3.861205e+03
2.450119e+03,3.841134e+03
2.453011e+03,3.835702e+03
2.455904e+03,3.823706e+03
2.458797e+03,3.801984e+03
2.461689e+03,3.809401e+03
2.464582e+03,3.776703e+03
2.467475e+03,3.795799e+03
2.470367e+03,3.731844e+03
2.473260e+03,3.770810e+03
2.476153e+03,3.743533e+03
2.479046e+03,3.729005e+03
2.481938e+03,3.715068e+03
2.484831e+03,3.724889e+03
2.487724e+03,3.709760e+03
2.490616e+03,3.685641e+03
2.493509e+03,3.667240e+03
2.496402e+03,3.680477e+03
2.499295e+03,3.662484e+03
2.502187e+03,3.638047e+03
2.505080e+03,3.594706e+03
2.507973e+03,3.625436e+03
2.510865e+03,3.637736e+03
2.513758e+03,3.586231e+03
2.516651e+03,3.604437e+03
2.519543e+03,3.564688e+03
2.522436e+03,3.550620e+03
2.525329e+03,3.555847e+03
2.528221e+03,3.539171e+03
2.531114e+03,3.531446e+03
2.534007e+03,3.517777e+03
2.536900e+03,3.491737e+03
2.539792e+03,3.503828e+03
2.542685e+03,3.476582e+03
2.545578e+03,3.486919e+03
2.548470e+03,3.496392e+03
2.551363e+03,3.453659e+03
2.554256e+03,3.458450e+03
2.557149e+03,3.428112e+03
2.560041e+03,3.409247e+03
2.562934e+03,3.424232e+03
2.565827e+03,3.421684e+03
2.568719e+03,3.394641e+03
2.571612e+03,3.409884e+03
2.574505e+03,3.384025e+03
2.577397e+03,3.394073e+03
2.580290e+03,3.364731e+03
2.583183e+03,3.344186e+03
2.586075e+03,3.329940e+03
2.588968e+03,3.312672e+03
2.591861e+03,3.337301e+03
2.594754e+03,3.291325e+03
2.597646e+03,3.315050e+03
2.600539e+03,3.282508e+03
2.603432e+03,3.268356e+03
2.606324e+03,3.277141e+03
2.609217e+03,3.243511e+03
2.612110e+03,3.222156e+03
2.615003e+03,3.239025e+03
2.617895e+03,3.202430e+03
2.620788e+03,3.222960e+03
2.623681e+03,3.205546e+03
2.626573e+03,3.188781e+03
2.629466e+03,3.176726e+03
2.632359e+03,3.162196e+03
2.635251e+03,3.176661e+03
2.638144e+03,3.162403e+03
2.641037e+03,3.133438e+03
2.643929e+03,3.151355e+03
2.646822e+03,3.160891e+03
2.649715e+03,3.127452e+03
2.652608e+03,3.096914e+03
2.655500e+03,3.102541e+03
2.658393e+03,3.104606e+03
2.661286e+03,3.059452e+03
2.664178e+03,3.096109e+03
2.667071e+03,3.085403e+03
2.669964e+03,3.048270e+03
2.672857e+03,3.043531e+03
2.675749e+03,3.032099e+03
2.678642e+03,3.042184e+03
2.681535e+03,3.051865e+03
2.684427e+03,3.010253e+03
2.687320e+03,3.018595e+03
2.690213e+03,3.012650e+03
2.693105e+03,2.992719e+03
2.695998e+03,2.955684e+03
2.698891e+03,3.000670e+03
2.701783e+03,3.000679e+03
2.704676e+03,2.986421e+03
2.707569e+03,2.957659e+03
2.710462e+03,2.941699e+03
2.713354e+03,2.937250e+03
2.716247e+03,2.924802e+03
2.719140e+03,2.941948e+03
2.722032e+03,2.930746e+03
2.724925e+03,2.887483e+03
2.727818e+03,2.892233e+03
2.730711e+03,2.907176e+03
2.733603e+03,2.891961e+03
2.736496e+03,2.883407e+03
2.739389e+03,2.826485e+03
2.742281e+03,2.863760e+03
2.745174e+03,2.861136e+03
2.748067e+03,2.830519e+03
2.750959e+03,2.854222e+03
2.753852e+03,2.831191e+03
2.756745e+03,2.797063e+03
2.759637e+03,2.813476e+03
2.762530e+03,2.809507e+03
2.765423e+03,2.805637e+03
2.768316e+03,2.799520e+03
2.771208e+03,2.783830e+03
2.774101e+03,2.749835e+03
2.776994e+03,2.796539e+03
2.779886e+03,2.758237e+03
2.782779e+03,2.726012e+03
2.785672e+03,2.734097e+03
2.788565e+03,2.740726e+03
2.791457e+03,2.757090e+03
2.794350e+03,2.733982e+03
2.797243e+03,2.741886e+03
2.800135e+03,2.721923e+03
2.803028e+03,2.685226e+03
2.805921e+03,2.716095e+03
2.808813e+03,2.691620e+03
2.811706e+03,2.676707e+03
2.814599e+03,2.668187e+03
2.817491e+03,2.665435e+03
2.820384e+03,2.660839e+03
2.823277e+03,2.633813e+03
2.826170e+03,2.625991e+03
2.829062e+03,2.669552e+03
2.831955e+03,2.617045e+03
2.834848e+03,2.614655e+03
2.837740e+03,2.614781e+03
2.840633e+03,2.599617e+03
2.843526e+03,2.603758e+03
2.846419e+03,2.590987e+03
2.849311e+03,2.606877e+03
2.852204e+03,2.577970e+03
2.855097e+03,2.587527e+03
2.857990e+03,2.567605e+03
2.860882e+03,2.615434e+03
2.863775e+03,2.585689e+03
2.866667e+03,2.556232e+03
2.869560e+03,2.565153e+03
2.872453e+03,2.543134e+03
2.875345e+03,2.543418e+03
2.878238e+03,2.540313e+03
2.881131e+03,2.540131e+03
2.884024e+03,2.548819e+03
2.886916e+03,2.522309e+03
2.889809e+03,2.552958e+03
2.892702e+03,2.546295e+03
2.895594e+03,2.541362e+03
2.898487e+03,2.526078e+03
2.901380e+03,2.500426e+03
2.904273e+03,2.492563e+03
2.907165e+03,2.492165e+03
2.910058e+03,2.493216e+03
2.912951e+03,2.492845e+03
2.915844e+03,2.437704e+03
2.918736e+03,2.479524e+03
2.921629e+03,2.472076e+03
2.924521e+03,2.433563e+03
2.927414e+03,2.449805e+03
2.930307e+03,2.482247e+03
2.933199e+03,2.454719e+03
2.936092e+03,2.410517e+03
2.938985e+03,2.360332e+03
2.941878e+03,2.373365e+03
2.944770e+03,2.432916e+03
2.947663e+03,2.432807e+03
2.950556e+03,2.412747e+03
2.953448e+03,2.446434e+03
2.956341e+03,2.391468e+03
2.959234e+03,2.378671e+03
2.962127e+03,2.374215e+03
2.965019e+03,2.369630e+03
2.967912e+03,2.347209e+03
2.970805e+03,2.360053e+03
2.973698e+03,2.338542e+03
2.976590e+03,2.333514e+03
2.979483e+03,2.334722e+03
2.982375e+03,2.327352e+03
2.985268e+03,2.322983e+03
2.988161e+03,2.311852e+03
2.991053e+03,2.296631e+03
2.993946e+03,2.273868e+03
2.996839e+03,2.375325e+03
2.999732e+03,2.315842e+03
3.002624e+03,2.292091e+03
3.005517e+03,2.288060e+03
3.008410e+03,2.292597e+03
3.011302e+03,2.326462e+03
3.014195e+03,2.297175e+03
3.017088e+03,2.284128e+03
3.019981e+03,2.313036e+03
3.022873e+03,2.278669e+03
3.025766e+03,2.226378e+03
3.028659e+03,2.244375e+03
3.031552e+03,2.234140e+03
3.034444e+03,2.231228e+03
3.037337e+03,2.314877e+03
3.040229e+03,2.267437e+03
3.043122e+03,2.213846e+03
3.046015e+03,2.192879e+03
3.048907e+03,2.239961e+03
3.051800e+03,2.232465e+03
3.054693e+03,2.199526e+03
3.057586e+03,2.227783e+03
3.060478e+03,2.232863e+03
3.063371e+03,2.233939e+03
3.066264e+03,2.169901e+03
3.069156e+03,2.206512e+03
3.072049e+03,2.160316e+03
3.074942e+03,2.235479e+03
3.077835e+03,2.200910e+03
3.080727e+03,2.234521e+03
3.083620e+03,2.243047e+03
3.086513e+03,2.249805e+03
3.089406e+03,2.221918e+03
3.092298e+03,2.184509e+03
3.095191e+03,2.235880e+03
3.098083e+03,2.192565e+03
3.100976e+03,2.229747e+03
3.103869e+03,2.168874e+03
3.106761e+03,2.152294e+03
3.109654e+03,2.172042e+03
3.112547e+03,2.143834e+03
3.115440e+03,2.194258e+03
3.118332e+03,2.157004e+03
3.121225e+03,2.197050e+03
3.124118e+03,2.155962e+03
3.127010e+03,2.167632e+03
3.129903e+03,2.151230e+03
3.132796e+03,2.199815e+03
3.135689e+03,2.250892e+03
3.138581e+03,2.151884e+03
3.141474e+03,2.160005e+03
3.144367e+03,2.133660e+03
3.147260e+03,2.124780e+03
3.150152e+03,2.154070e+03
3.153045e+03,2.160200e+03
3.155938e+03,2.132396e+03
3.158830e+03,2.162885e+03
3.161723e+03,2.133747e+03
3.164615e+03,2.118507e+03
3.167508e+03,2.222846e+03
3.170401e+03,2.136442e+03
3.173294e+03,2.168789e+03
3.176186e+03,2.146104e+03
3.179079e+03,2.198329e+03
3.181972e+03,2.202136e+03
3.184865e+03,2.185429e+03
3.187757e+03,2.154557e+03
3.190650e+03,2.175233e+03
3.193543e+03,2.173139e+03
3.196435e+03,2.157525e+03
3.199328e+03,2.189221e+03
3.200292e+03,2.200102e+03