File: RAMAN_data/20012023_r1/black fibre10.CSV
1.995979e+02,3.642278e+03
2.024906e+02,3.652809e+03
2.053833e+02,3.660568e+03
2.082760e+02,3.654520e+03
2.111687e+02,3.646774e+03
2.140614e+02,3.652992e+03
2.169541e+02,3.658102e+03
2.198468e+02,3.678101e+03
2.227395e+02,3.663974e+03
2.256322e+02,3.659395e+03
2.285249e+02,3.660763e+03
2.314176e+02,3.677233e+03
2.343103e+02,3.681798e+03
2.372030e+02,3.674475e+03
2.400957e+02,3.673810e+03
2.429884e+02,3.673020e+03
2.458811e+02,3.680333e+03
2.487738e+02,3.700686e+03
2.516665e+02,3.683917e+03
2.545592e+02,3.701257e+03
2.574519e+02,3.687781e+03
2.603446e+02,3.705889e+03
2.632373e+02,3.707718e+03
2.661300e+02,3.709187e+03
2.690227e+02,3.705096e+03
2.719154e+02,3.707125e+03
2.748081e+02,3.704040e+03
2.777008e+02,3.717510e+03
2.805935e+02,3.716174e+03
2.834862e+02,3.699603e+03
2.863789e+02,3.703931e+03
2.892716e+02,3.693804e+03
2.921643e+02,3.707630e+03
2.950570e+02,3.706809e+03
2.979497e+02,3.719854e+03
3.008424e+02,3.702526e+03
3.037351e+02,3.715380e+03
3.066278e+02,3.720647e+03
3.095205e+02,3.702978e+03
3.124132e+02,3.706364e+03
3.153059e+02,3.713422e+03
3.181986e+02,3.722683e+03
3.210913e+02,3.722574e+03
3.239840e+02,3.715968e+03
3.268767e+02,3.746667e+03
3.297694e+02,3.726786e+03
3.326621e+02,3.730250e+03
3.355548e+02,3.716627e+03
3.384475e+02,3.712164e+03
3.413402e+02,3.724702e+03
3.442329e+02,3.715301e+03
3.471256e+02,3.728255e+03
3.500183e+02,3.728612e+03
3.529110e+02,3.705767e+03
3.558037e+02,3.723792e+03
3.586964e+02,3.725219e+03
3.615891e+02,3.726341e+03
3.644818e+02,3.714712e+03
3.673745e+02,3.716655e+03
3.702672e+02,3.722111e+03
3.731599e+02,3.729268e+03
3.760526e+02,3.759336e+03
3.789453e+02,3.755257e+03
3.818380e+02,3.712475e+03
3.847307e+02,3.725212e+03
3.876234e+02,3.716038e+03
3.905161e+02,3.723954e+03
3.934088e+02,3.725124e+03
3.963015e+02,3.714423e+03
3.991942e+02,3.719615e+03
4.020869e+02,3.717556e+03
4.049796e+02,3.721623e+03
4.078723e+02,3.717809e+03
4.107650e+02,3.702595e+03
4.136577e+02,3.694329e+03
4.165504e+02,3.703438e+03
4.194431e+02,3.709819e+03
4.223358e+02,3.711941e+03
4.252285e+02,3.697300e+03
4.281212e+02,3.696559e+03
4.310139e+02,3.706369e+03
4.339066e+02,3.698380e+03
4.367993e+02,3.699516e+03
4.396920e+02,3.696839e+03
4.425847e+02,3.684033e+03
4.454774e+02,3.690953e+03
4.483701e+02,3.692165e+03
4.512628e+02,3.692711e+03
4.541555e+02,3.694365e+03
4.570482e+02,3.711647e+03
4.599409e+02,3.689032e+03
4.628336e+02,3.672412e+03
4.657263e+02,3.671124e+03
4.686190e+02,3.674872e+03
4.715117e+02,3.674688e+03
4.744044e+02,3.684444e+03
4.772971e+02,3.694347e+03
4.801898e+02,3.718001e+03
4.830825e+02,3.720177e+03
4.859752e+02,3.758151e+03
4.888679e+02,3.744517e+03
4.917606e+02,3.717315e+03
4.946533e+02,3.715473e+03
4.975460e+02,3.681050e+03
5.004387e+02,3.680168e+03
5.033314e+02,3.665699e+03
5.062241e+02,3.675702e+03
5.091168e+02,3.654922e+03
5.120095e+02,3.651698e+03
5.149022e+02,3.646594e+03
5.177949e+02,3.651738e+03
5.206876e+02,3.644999e+03
5.235803e+02,3.646972e+03
5.264730e+02,3.643980e+03
5.293657e+02,3.626691e+03
5.322584e+02,3.638188e+03
5.351511e+02,3.634217e+03
5.380438e+02,3.618086e+03
5.409365e+02,3.618998e+03
5.438292e+02,3.635394e+03
5.467219e+02,3.636490e+03
5.496146e+02,3.625268e+03
5.525073e+02,3.623764e+03
5.554000e+02,3.581655e+03
5.582927e+02,3.593013e+03
5.611854e+02,3.614565e+03
5.640781e+02,3.609797e+03
5.669708e+02,3.592280e+03
5.698635e+02,3.585285e+03
5.727562e+02,3.584403e+03
5.756489e+02,3.596589e+03
5.785416e+02,3.585187e+03
5.814343e+02,3.586592e+03
5.843270e+02,3.579833e+03
5.872197e+02,3.586747e+03
5.901124e+02,3.560711e+03
5.930051e+02,3.584633e+03
5.958978e+02,3.586230e+03
5.987905e+02,3.578000e+03
6.016832e+02,3.564724e+03
6.045759e+02,3.566977e+03
6.074686e+02,3.573461e+03
6.103613e+02,3.569087e+03
6.132540e+02,3.553255e+03
6.161467e+02,3.549746e+03
6.190394e+02,3.547149e+03
6.219321e+02,3.555664e+03
6.248248e+02,3.556134e+03
6.277175e+02,3.555130e+03
6.306102e+02,3.543844e+03
6.335029e+02,3.536070e+03
6.363956e+02,3.547896e+03
6.392883e+02,3.525582e+03
6.421810e+02,3.517271e+03
6.450737e+02,3.526012e+03
6.479664e+02,3.525973e+03
6.508591e+02,3.521288e+03
6.537518e+02,3.517886e+03
6.566445e+02,3.515517e+03
6.595372e+02,3.501656e+03
6.624299e+02,3.475611e+03
6.653226e+02,3.483625e+03
6.682153e+02,3.489021e+03
6.711080e+02,3.496122e+03
6.740007e+02,3.490769e+03
6.768934e+02,3.477291e+03
6.797861e+02,3.465692e+03
6.826788e+02,3.465155e+03
6.855715e+02,3.470984e+03
6.884642e+02,3.468472e+03
6.913569e+02,3.474015e+03
6.942496e+02,3.464931e+03
6.971423e+02,3.464109e+03
7.000350e+02,3.464484e+03
7.029277e+02,3.451579e+03
7.058204e+02,3.436139e+03
7.087131e+02,3.439505e+03
7.116058e+02,3.449523e+03
7.144985e+02,3.440693e+03
7.173912e+02,3.423838e+03
7.202839e+02,3.425913e+03
7.231766e+02,3.427768e+03
7.260693e+02,3.430329e+03
7.289620e+02,3.422012e+03
7.318547e+02,3.415762e+03
7.347474e+02,3.414650e+03
7.376401e+02,3.402084e+03
7.405328e+02,3.389913e+03
7.434255e+02,3.397765e+03
7.463182e+02,3.380490e+03
7.492109e+02,3.380585e+03
7.521036e+02,3.359925e+03
7.549963e+02,3.381739e+03
7.578890e+02,3.377734e+03
7.607817e+02,3.379992e+03
7.636744e+02,3.369551e+03
7.665671e+02,3.353872e+03
7.694598e+02,3.364565e+03
7.723525e+02,3.344822e+03
7.752452e+02,3.356962e+03
7.781379e+02,3.364877e+03
7.810306e+02,3.352901e+03
7.839233e+02,3.344403e+03
7.868160e+02,3.338917e+03
7.897087e+02,3.336327e+03
7.926014e+02,3.338829e+03
7.954941e+02,3.347136e+03
7.983868e+02,3.318505e+03
8.012795e+02,3.326010e+03
8.041722e+02,3.328110e+03
8.070649e+02,3.323646e+03
8.099576e+02,3.315543e+03
8.128503e+02,3.302199e+03
8.157430e+02,3.311904e+03
8.186357e+02,3.310747e+03
8.215284e+02,3.317773e+03
8.244211e+02,3.306568e+03
8.273138e+02,3.301774e+03
8.302065e+02,3.288548e+03
8.330992e+02,3.296095e+03
8.359919e+02,3.293251e+03
8.388846e+02,3.290727e+03
8.417773e+02,3.267363e+03
8.446700e+02,3.267493e+03
8.475627e+02,3.264014e+03
8.504554e+02,3.260426e+03
8.533481e+02,3.266394e+03
8.562408e+02,3.281000e+03
8.591335e+02,3.261698e+03
8.620262e+02,3.255426e+03
8.649189e+02,3.239050e+03
8.678116e+02,3.230408e+03
8.707043e+02,3.257798e+03
8.735970e+02,3.234492e+03
8.764897e+02,3.229094e+03
8.793824e+02,3.229823e+03
8.822751e+02,3.226657e+03
8.851678e+02,3.239835e+03
8.880605e+02,3.241426e+03
8.909532e+02,3.217747e+03
8.938459e+02,3.205869e+03
8.967386e+02,3.206036e+03
8.996313e+02,3.201066e+03
9.025240e+02,3.200635e+03
9.054167e+02,3.195008e+03
9.083094e+02,3.191450e+03
9.112021e+02,3.195169e+03
9.140948e+02,3.187089e+03
9.169875e+02,3.186561e+03
9.198802e+02,3.174348e+03
9.227729e+02,3.150942e+03
9.256656e+02,3.165629e+03
9.285583e+02,3.179102e+03
9.314510e+02,3.148057e+03
9.343438e+02,3.155997e+03
9.372365e+02,3.153215e+03
9.401292e+02,3.136690e+03
9.430219e+02,3.136043e+03
9.459146e+02,3.136829e+03
9.488073e+02,3.135796e+03
9.517000e+02,3.137581e+03
9.545927e+02,3.119992e+03
9.574854e+02,3.114243e+03
9.603781e+02,3.109226e+03
9.632708e+02,3.122054e+03
9.661635e+02,3.117616e+03
9.690562e+02,3.106788e+03
9.719489e+02,3.103085e+03
9.748416e+02,3.107040e+03
9.777343e+02,3.083676e+03
9.806270e+02,3.094041e+03
9.835197e+02,3.084073e+03
9.864124e+02,3.086550e+03
9.893051e+02,3.082569e+03
9.921978e+02,3.082377e+03
9.950905e+02,3.085204e+03
9.979832e+02,3.085084e+03
1.000876e+03,3.074830e+03
1.003769e+03,3.063790e+03
1.006661e+03,3.074569e+03
1.009554e+03,3.074000e+03
1.012447e+03,3.060887e+03
1.015339e+03,3.052425e+03
1.018232e+03,3.053235e+03
1.021125e+03,3.067945e+03
1.024017e+03,3.049938e+03
1.026910e+03,3.050774e+03
1.029803e+03,3.024685e+03
1.032696e+03,3.051090e+03
1.035588e+03,3.044131e+03
1.038481e+03,3.022641e+03
1.041374e+03,3.034714e+03
1.044266e+03,3.027731e+03
1.047159e+03,3.029487e+03
1.050052e+03,3.015893e+03
1.052944e+03,3.019581e+03
1.055837e+03,3.033445e+03
1.058730e+03,3.017630e+03
1.061623e+03,2.997229e+03
1.064515e+03,3.001391e+03
1.067408e+03,3.013598e+03
1.070301e+03,3.010578e+03
1.073193e+03,2.996742e+03
1.076086e+03,2.992255e+03
1.078979e+03,3.002854e+03
1.081871e+03,3.003270e+03
1.084764e+03,3.005328e+03
1.087657e+03,3.020933e+03
1.090550e+03,3.025533e+03
1.093442e+03,3.018280e+03
1.096335e+03,3.009806e+03
1.099228e+03,2.997156e+03
1.102120e+03,3.010426e+03
1.105013e+03,2.985293e+03
1.107906e+03,3.004780e+03
1.110798e+03,2.983077e+03
1.113691e+03,2.995330e+03
1.116584e+03,3.006879e+03
1.119477e+03,3.022738e+03
1.122369e+03,3.028938e+03
1.125262e+03,3.027521e+03
1.128155e+03,3.014916e+03
1.131047e+03,2.997773e+03
1.133940e+03,3.006056e+03
1.136833e+03,2.994103e+03
1.139725e+03,3.001040e+03
1.142618e+03,2.980265e+03
1.145511e+03,2.997438e+03
1.148404e+03,3.000482e+03
1.151296e+03,3.020047e+03
1.154189e+03,3.012249e+03
1.157082e+03,2.982923e+03
1.159974e+03,2.957913e+03
1.162867e+03,2.959112e+03
1.165760e+03,2.941676e+03
1.168652e+03,2.941047e+03
1.171545e+03,2.944042e+03
1.174438e+03,2.929075e+03
1.177331e+03,2.954431e+03
1.180223e+03,2.954581e+03
1.183116e+03,2.935403e+03
1.186009e+03,2.939491e+03
1.188901e+03,2.917392e+03
1.191794e+03,2.904313e+03
1.194687e+03,2.912964e+03
1.197579e+03,2.915051e+03
1.200472e+03,2.900365e+03
1.203365e+03,2.900790e+03
1.206258e+03,2.900769e+03
1.209150e+03,2.903037e+03
1.212043e+03,2.918485e+03
1.214936e+03,2.907665e+03
1.217828e+03,2.902877e+03
1.220721e+03,2.901988e+03
1.223614e+03,2.904039e+03
1.226506e+03,2.892183e+03
1.229399e+03,2.900850e+03
1.232292e+03,2.881467e+03
1.235185e+03,2.859573e+03
1.238077e+03,2.859902e+03
1.240970e+03,2.865451e+03
1.243863e+03,2.856875e+03
1.246755e+03,2.851062e+03
1.249648e+03,2.840206e+03
1.252541e+03,2.837073e+03
1.255433e+03,2.844146e+03
1.258326e+03,2.847317e+03
1.261219e+03,2.845133e+03
1.264112e+03,2.832831e+03
1.267004e+03,2.840615e+03
1.269897e+03,2.841852e+03
1.272790e+03,2.853720e+03
1.275682e+03,2.876290e+03
1.278575e+03,2.871912e+03
1.281468e+03,2.897028e+03
1.284360e+03,2.873367e+03
1.287253e+03,2.869969e+03
1.290146e+03,2.854870e+03
1.293039e+03,2.850821e+03
1.295931e+03,2.818113e+03
1.298824e+03,2.824418e+03
1.301717e+03,2.826025e+03
1.304609e+03,2.820063e+03
1.307502e+03,2.819578e+03
1.310395e+03,2.812650e+03
1.313287e+03,2.815461e+03
1.316180e+03,2.813595e+03
1.319073e+03,2.812070e+03
1.321966e+03,2.812933e+03
1.324858e+03,2.803987e+03
1.327751e+03,2.793394e+03
1.330644e+03,2.801808e+03
1.333536e+03,2.814369e+03
1.336429e+03,2.824621e+03
1.339322e+03,2.822956e+03
1.342214e+03,2.815067e+03
1.345107e+03,2.796380e+03
1.348000e+03,2.810280e+03
1.350893e+03,2.799301e+03
1.353785e+03,2.790498e+03
1.356678e+03,2.787650e+03
1.359571e+03,2.790688e+03
1.362463e+03,2.766468e+03
1.365356e+03,2.769612e+03
1.368249e+03,2.757984e+03
1.371141e+03,2.761473e+03
1.374034e+03,2.760108e+03
1.376927e+03,2.738800e+03
1.379820e+03,2.732307e+03
1.382712e+03,2.741592e+03
1.385605e+03,2.723174e+03
1.388498e+03,2.717070e+03
1.391390e+03,2.694875e+03
1.394283e+03,2.697104e+03
1.397176e+03,2.703656e+03
1.400068e+03,2.711872e+03
1.402961e+03,2.699719e+03
1.405854e+03,2.683478e+03
1.408747e+03,2.702682e+03
1.411639e+03,2.716814e+03
1.414532e+03,2.692165e+03
1.417425e+03,2.689703e+03
1.420317e+03,2.675133e+03
1.423210e+03,2.655325e+03
1.426103e+03,2.666517e+03
1.428995e+03,2.666893e+03
1.431888e+03,2.661487e+03
1.434781e+03,2.652279e+03
1.437674e+03,2.624802e+03
1.440566e+03,2.632726e+03
1.443459e+03,2.619058e+03
1.446352e+03,2.620990e+03
1.449244e+03,2.609734e+03
1.452137e+03,2.605292e+03
1.455030e+03,2.610339e+03
1.457922e+03,2.605718e+03
1.460815e+03,2.609817e+03
1.463708e+03,2.623418e+03
1.466601e+03,2.598497e+03
1.469493e+03,2.584483e+03
1.472386e+03,2.590786e+03
1.475279e+03,2.598892e+03
1.478171e+03,2.585714e+03
1.481064e+03,2.587789e+03
1.483957e+03,2.570738e+03
1.486849e+03,2.586426e+03
1.489742e+03,2.577959e+03
1.492635e+03,2.583422e+03
1.495528e+03,2.579797e+03
1.498420e+03,2.562228e+03
1.501313e+03,2.566409e+03
1.504206e+03,2.566066e+03
1.507098e+03,2.559493e+03
1.509991e+03,2.544671e+03
1.512884e+03,2.533345e+03
1.515776e+03,2.538961e+03
1.518669e+03,2.534566e+03
1.521562e+03,2.528341e+03
1.524455e+03,2.535161e+03
1.527347e+03,2.529947e+03
1.530240e+03,2.513304e+03
1.533133e+03,2.519703e+03
1.536025e+03,2.506762e+03
1.538918e+03,2.519335e+03
1.541811e+03,2.523521e+03
1.544703e+03,2.501464e+03
1.547596e+03,2.511692e+03
1.550489e+03,2.506282e+03
1.553382e+03,2.536526e+03
1.556274e+03,2.510932e+03
1.559167e+03,2.502492e+03
1.562060e+03,2.501924e+03
1.564952e+03,2.529657e+03
1.567845e+03,2.519937e+03
1.570738e+03,2.529839e+03
1.573630e+03,2.545420e+03
1.576523e+03,2.530517e+03
1.579416e+03,2.528560e+03
1.582309e+03,2.521328e+03
1.585201e+03,2.549860e+03
1.588094e+03,2.526742e+03
1.590987e+03,2.515782e+03
1.593879e+03,2.510266e+03
1.596772e+03,2.483534e+03
1.599665e+03,2.456261e+03
1.602557e+03,2.461282e+03
1.605450e+03,2.469402e+03
1.608343e+03,2.443333e+03
1.611236e+03,2.456095e+03
1.614128e+03,2.456172e+03
1.617021e+03,2.449683e+03
1.619914e+03,2.432657e+03
1.622806e+03,2.422105e+03
1.625699e+03,2.411877e+03
1.628592e+03,2.419411e+03
1.631484e+03,2.402817e+03
1.634377e+03,2.392458e+03
1.637270e+03,2.402742e+03
1.640163e+03,2.389265e+03
1.643055e+03,2.382219e+03
1.645948e+03,2.362172e+03
1.648841e+03,2.373386e+03
1.651733e+03,2.368894e+03
1.654626e+03,2.366488e+03
1.657519e+03,2.369382e+03
1.660411e+03,2.357458e+03
1.663304e+03,2.349755e+03
1.666197e+03,2.350595e+03
1.669090e+03,2.341037e+03
1.671982e+03,2.345861e+03
1.674875e+03,2.348578e+03
1.677768e+03,2.337100e+03
1.680660e+03,2.331761e+03
1.683553e+03,2.327870e+03
1.686446e+03,2.325119e+03
1.689339e+03,2.319838e+03
1.692231e+03,2.309048e+03
1.695124e+03,2.321292e+03
1.698017e+03,2.306463e+03
1.700909e+03,2.305364e+03
1.703802e+03,2.322811e+03
1.706695e+03,2.297687e+03
1.709587e+03,2.295231e+03
1.712480e+03,2.274624e+03
1.715373e+03,2.293844e+03
1.718266e+03,2.273186e+03
1.721158e+03,2.273102e+03
1.724051e+03,2.269106e+03
1.726944e+03,2.272148e+03
1.729836e+03,2.256574e+03
1.732729e+03,2.246138e+03
1.735622e+03,2.279680e+03
1.738514e+03,2.257909e+03
1.741407e+03,2.273156e+03
1.744300e+03,2.241424e+03
1.747193e+03,2.245591e+03
1.750085e+03,2.241057e+03
1.752978e+03,2.214450e+03
1.755871e+03,2.239948e+03
1.758763e+03,2.240718e+03
1.761656e+03,2.222666e+03
1.764549e+03,2.214645e+03
1.767441e+03,2.216787e+03
1.770334e+03,2.201385e+03
1.773227e+03,2.208019e+03
1.776120e+03,2.204903e+03
1.779012e+03,2.213834e+03
1.781905e+03,2.203054e+03
1.784798e+03,2.191527e+03
1.787690e+03,2.191032e+03
1.790583e+03,2.185913e+03
1.793476e+03,2.183673e+03
1.796368e+03,2.172791e+03
1.799261e+03,2.195608e+03
1.802154e+03,2.176612e+03
1.805047e+03,2.163818e+03
1.807939e+03,2.171796e+03
1.810832e+03,2.160129e+03
1.813725e+03,2.152336e+03
1.816617e+03,2.162188e+03
1.819510e+03,2.143205e+03
1.822403e+03,2.123172e+03
1.825295e+03,2.135457e+03
1.828188e+03,2.127230e+03
1.831081e+03,2.120673e+03
1.833974e+03,2.121024e+03
1.836866e+03,2.108530e+03
1.839759e+03,2.133647e+03
1.842652e+03,2.117963e+03
1.845544e+03,2.126495e+03
1.848437e+03,2.108181e+03
1.851330e+03,2.097272e+03
1.854222e+03,2.093360e+03
1.857115e+03,2.084703e+03
1.860008e+03,2.085036e+03
1.862901e+03,2.104826e+03
1.865793e+03,2.074815e+03
1.868686e+03,2.071101e+03
1.871579e+03,2.063444e+03
1.874471e+03,2.090121e+03
1.877364e+03,2.059694e+03
1.880257e+03,2.066328e+03
1.883149e+03,2.037835e+03
1.886042e+03,2.044376e+03
1.888935e+03,2.056265e+03
1.891828e+03,2.060665e+03
1.894720e+03,2.051788e+03
1.897613e+03,2.036744e+03
1.900506e+03,2.033662e+03
1.903398e+03,2.004734e+03
1.906291e+03,2.022985e+03
1.909184e+03,2.026670e+03
1.912076e+03,2.024625e+03
1.914969e+03,2.003232e+03
1.917862e+03,2.000848e+03
1.920755e+03,1.986973e+03
1.923647e+03,2.009796e+03
1.926540e+03,1.996179e+03
1.929433e+03,1.996111e+03
1.932325e+03,1.974274e+03
1.935218e+03,1.972720e+03
1.938111e+03,1.996715e+03
1.941003e+03,1.982116e+03
1.943896e+03,1.979241e+03
1.946789e+03,1.963444e+03
1.949682e+03,1.958820e+03
1.952574e+03,1.950332e+03
1.955467e+03,1.959586e+03
1.958360e+03,1.945638e+03
1.961252e+03,1.947294e+03
1.964145e+03,1.940892e+03
1.967038e+03,1.948903e+03
1.969930e+03,1.936054e+03
1.972823e+03,1.920560e+03
1.975716e+03,1.934457e+03
1.978609e+03,1.896984e+03
1.981501e+03,1.925511e+03
1.984394e+03,1.916383e+03
1.987287e+03,1.922677e+03
1.990179e+03,1.916038e+03
1.993072e+03,1.900468e+03
1.995965e+03,1.897548e+03
1.998857e+03,1.896085e+03
2.001750e+03,1.898786e+03
2.004643e+03,1.876559e+03
2.007536e+03,1.867061e+03
2.010428e+03,1.877179e+03
2.013321e+03,1.864808e+03
2.016214e+03,1.875692e+03
2.019106e+03,1.864061e+03
2.021999e+03,1.869428e+03
2.024892e+03,1.844345e+03
2.027784e+03,1.861858e+03
2.030677e+03,1.846670e+03
2.033570e+03,1.846394e+03
2.036463e+03,1.849282e+03
2.039355e+03,1.833913e+03
2.042248e+03,1.840261e+03
2.045141e+03,1.824455e+03
2.048033e+03,1.817828e+03
2.050926e+03,1.824540e+03
2.053819e+03,1.820636e+03
2.056711e+03,1.788861e+03
2.059604e+03,1.802609e+03
2.062497e+03,1.798298e+03
2.065390e+03,1.803055e+03
2.068282e+03,1.804704e+03
2.071175e+03,1.768757e+03
2.074068e+03,1.787530e+03
2.076960e+03,1.766658e+03
2.079853e+03,1.778188e+03
2.082746e+03,1.764044e+03
2.085638e+03,1.767847e+03
2.088531e+03,1.786146e+03
2.091424e+03,1.776348e+03
2.094316e+03,1.745884e+03
2.097209e+03,1.754782e+03
2.100102e+03,1.745168e+03
2.102995e+03,1.733105e+03
2.105887e+03,1.740513e+03
2.108780e+03,1.739688e+03
2.111673e+03,1.725098e+03
2.114565e+03,1.716057e+03
2.117458e+03,1.728951e+03
2.120351e+03,1.735360e+03
2.123244e+03,1.735200e+03
2.126136e+03,1.723812e+03
2.129029e+03,1.698465e+03
2.131922e+03,1.699864e+03
2.134814e+03,1.702393e+03
2.137707e+03,1.686828e+03
2.140600e+03,1.687803e+03
2.143492e+03,1.689635e+03
2.146385e+03,1.678140e+03
2.149278e+03,1.673706e+03
2.152170e+03,1.678844e+03
2.155063e+03,1.675674e+03
2.157956e+03,1.674749e+03
2.160849e+03,1.659021e+03
2.163741e+03,1.668635e+03
2.166634e+03,1.657357e+03
2.169527e+03,1.651633e+03
2.172419e+03,1.660598e+03
2.175312e+03,1.646928e+03
2.178205e+03,1.628949e+03
2.181098e+03,1.625299e+03
2.183990e+03,1.619985e+03
2.186883e+03,1.619833e+03
2.189776e+03,1.615915e+03
2.192668e+03,1.612986e+03
2.195561e+03,1.611372e+03
2.198454e+03,1.603477e+03
2.201346e+03,1.609392e+03
2.204239e+03,1.607458e+03
2.207132e+03,1.602068e+03
2.210024e+03,1.593804e+03
2.212917e+03,1.579013e+03
2.215810e+03,1.584598e+03
2.218703e+03,1.578930e+03
2.221595e+03,1.580601e+03
2.224488e+03,1.570915e+03
2.227381e+03,1.564393e+03
2.230273e+03,1.580339e+03
2.233166e+03,1.579406e+03
2.236059e+03,1.546321e+03
2.238952e+03,1.564107e+03
2.241844e+03,1.542278e+03
2.244737e+03,1.528686e+03
2.247630e+03,1.530022e+03
2.250522e+03,1.545197e+03
2.253415e+03,1.536843e+03
2.256308e+03,1.536121e+03
2.259200e+03,1.531479e+03
2.262093e+03,1.518965e+03
2.264986e+03,1.518999e+03
2.267879e+03,1.504031e+03
2.270771e+03,1.496641e+03
2.273664e+03,1.507433e+03
2.276557e+03,1.498541e+03
2.279449e+03,1.499768e+03
2.282342e+03,1.505604e+03
2.285235e+03,1.484913e+03
2.288127e+03,1.482947e+03
2.291020e+03,1.470878e+03
2.293913e+03,1.487972e+03
2.296805e+03,1.476087e+03
2.299698e+03,1.471898e+03
2.302591e+03,1.444966e+03
2.305484e+03,1.479567e+03
2.308376e+03,1.444385e+03
2.311269e+03,1.464009e+03
2.314162e+03,1.462414e+03
2.317054e+03,1.437897e+03
2.319947e+03,1.450280e+03
2.322840e+03,1.434677e+03
2.325733e+03,1.440261e+03
2.328625e+03,1.449369e+03
2.331518e+03,1.432575e+03
2.334411e+03,1.422052e+03
2.337303e+03,1.396855e+03
2.340196e+03,1.422861e+03
2.343089e+03,1.409776e+03
2.345981e+03,1.406246e+03
2.348874e+03,1.407912e+03
2.351767e+03,1.395606e+03
2.354659e+03,1.395351e+03
2.357552e+03,1.400334e+03
2.360445e+03,1.401749e+03
2.363338e+03,1.386741e+03
2.366230e+03,1.379450e+03
2.369123e+03,1.382855e+03
2.372016e+03,1.368249e+03
2.374908e+03,1.382244e+03
2.377801e+03,1.369533e+03
2.380694e+03,1.363387e+03
2.383587e+03,1.364319e+03
2.386479e+03,1.360653e+03
2.389372e+03,1.356409e+03
2.392265e+03,1.361578e+03
2.395157e+03,1.350539e+03
2.398050e+03,1.346454e+03
2.400943e+03,1.352281e+03
2.403835e+03,1.331671e+03
2.406728e+03,1.332096e+03
2.409621e+03,1.338756e+03
2.412513e+03,1.333570e+03
2.415406e+03,1.325557e+03
2.418299e+03,1.320621e+03
2.421192e+03,1.306205e+03
2.424084e+03,1.321524e+03
2.426977e+03,1.321845e+03
2.429870e+03,1.307503e+03
2.432762e+03,1.315113e+03
2.435655e+03,1.314397e+03
2.438548e+03,1.305972e+03
2.441441e+03,1.300934e+03
2.444333e+03,1.303107e+03
2.447226e+03,1.277686e+03
2.450119e+03,1.286889e+03
2.453011e+03,1.286357e+03
2.455904e+03,1.300629e+03
2.458797e+03,1.275675e+03
2.461689e+03,1.283187e+03
2.464582e+03,1.264444e+03
2.467475e+03,1.288615e+03
2.470367e+03,1.276521e+03
2.473260e+03,1.255912e+03
2.476153e+03,1.263263e+03
2.479046e+03,1.268895e+03
2.481938e+03,1.275016e+03
2.484831e+03,1.249582e+03
2.487724e+03,1.258602e+03
2.490616e+03,1.250910e+03
2.493509e+03,1.248495e+03
2.496402e+03,1.226879e+03
2.499295e+03,1.248524e+03
2.502187e+03,1.252986e+03
2.505080e+03,1.241574e+03
2.507973e+03,1.227138e+03
2.510865e+03,1.245024e+03
2.513758e+03,1.230817e+03
2.516651e+03,1.217803e+03
2.519543e+03,1.225870e+03
2.522436e+03,1.209101e+03
2.525329e+03,1.223058e+03
2.528221e+03,1.225681e+03
2.531114e+03,1.198387e+03
2.534007e+03,1.210661e+03
2.536900e+03,1.210401e+03
2.539792e+03,1.206109e+03
2.542685e+03,1.204883e+03
2.545578e+03,1.215357e+03
2.548470e+03,1.190135e+03
2.551363e+03,1.205332e+03
2.554256e+03,1.203837e+03
2.557149e+03,1.203260e+03
2.560041e+03,1.203318e+03
2.562934e+03,1.198974e+03
2.565827e+03,1.189552e+03
2.568719e+03,1.194857e+03
2.571612e+03,1.166107e+03
2.574505e+03,1.178728e+03
2.577397e+03,1.173953e+03
2.580290e+03,1.171701e+03
2.583183e+03,1.150467e+03
2.586075e+03,1.148905e+03
2.588968e+03,1.153540e+03
2.591861e+03,1.180812e+03
2.594754e+03,1.162713e+03
2.597646e+03,1.148516e+03
2.600539e+03,1.147185e+03
2.603432e+03,1.155102e+03
2.606324e+03,1.134020e+03
2.609217e+03,1.133017e+03
2.612110e+03,1.147062e+03
2.615003e+03,1.134010e+03
2.617895e+03,1.152708e+03
2.620788e+03,1.133649e+03
2.623681e+03,1.149803e+03
2.626573e+03,1.127970e+03
2.629466e+03,1.128613e+03
2.632359e+03,1.116833e+03
2.635251e+03,1.107193e+03
2.638144e+03,1.133000e+03
2.641037e+03,1.110117e+03
2.643929e+03,1.121907e+03
2.646822e+03,1.112952e+03
2.649715e+03,1.115534e+03
2.652608e+03,1.109985e+03
2.655500e+03,1.116875e+03
2.658393e+03,1.122923e+03
2.661286e+03,1.087431e+03
2.664178e+03,1.103384e+03
2.667071e+03,1.097072e+03
2.669964e+03,1.089405e+03
2.672857e+03,1.109670e+03
2.675749e+03,1.093385e+03
2.678642e+03,1.094107e+03
2.681535e+03,1.069912e+03
2.684427e+03,1.085232e+03
2.687320e+03,1.074902e+03
2.690213e+03,1.068049e+03
2.693105e+03,1.079378e+03
2.695998e+03,1.065793e+03
2.698891e+03,1.085419e+03
2.701783e+03,1.070173e+03
2.704676e+03,1.067580e+03
2.707569e+03,1.049372e+03
2.710462e+03,1.077274e+03
2.713354e+03,1.061917e+03
2.716247e+03,1.071729e+03
2.719140e+03,1.072787e+03
2.722032e+03,1.054079e+03
2.724925e+03,1.062682e+03
2.727818e+03,1.061384e+03
2.730711e+03,1.036939e+03
2.733603e+03,1.066616e+03
2.736496e+03,1.064207e+03
2.739389e+03,1.050945e+03
2.742281e+03,1.048053e+03
2.745174e+03,1.055493e+03
2.748067e+03,1.039839e+03
2.750959e+03,1.061937e+03
2.753852e+03,1.011795e+03
2.756745e+03,1.048750e+03
2.759637e+03,1.030345e+03
2.762530e+03,1.042283e+03
2.765423e+03,1.018324e+03
2.768316e+03,1.032855e+03
2.771208e+03,1.014056e+03
2.774101e+03,1.025637e+03
2.776994e+03,1.027795e+03
2.779886e+03,1.029939e+03
2.782779e+03,1.011463e+03
2.785672e+03,1.010138e+03
2.788565e+03,1.050007e+03
2.791457e+03,1.021901e+03
2.794350e+03,9.986052e+02
2.797243e+03,1.014306e+03
2.800135e+03,9.963257e+02
2.803028e+03,1.009682e+03
2.805921e+03,1.002391e+03
2.808813e+03,9.980003e+02
2.811706e+03,1.030425e+03
2.814599e+03,1.002312e+03
2.817491e+03,1.009065e+03
2.820384e+03,1.007930e+03
2.823277e+03,1.013588e+03
2.826170e+03,9.953666e+02
2.829062e+03,9.814427e+02
2.831955e+03,9.723315e+02
2.834848e+03,9.988402e+02
2.837740e+03,1.016289e+03
2.840633e+03,9.859961e+02
2.843526e+03,9.843383e+02
2.846419e+03,9.866466e+02
2.849311e+03,1.005123e+03
2.852204e+03,9.785353e+02
2.855097e+03,9.793144e+02
2.857990e+03,9.941860e+02
2.860882e+03,1.002356e+03
2.863775e+03,9.875594e+02
2.866667e+03,9.827487e+02
2.869560e+03,1.004442e+03
2.872453e+03,9.741289e+02
2.875345e+03,9.826810e+02
2.878238e+03,9.871635e+02
2.881131e+03,9.894230e+02
2.884024e+03,9.841610e+02
2.886916e+03,9.835696e+02
2.889809e+03,9.995024e+02
2.892702e+03,9.933014e+02
2.895594e+03,9.832472e+02
2.898487e+03,1.005897e+03
2.901380e+03,9.815470e+02
2.904273e+03,9.941713e+02
2.907165e+03,9.738750e+02
2.910058e+03,9.460677e+02
2.912951e+03,9.874525e+02
2.915844e+03,9.522877e+02
2.918736e+03,9.855524e+02
2.921629e+03,9.584835e+02
2.924521e+03,9.388333e+02
2.927414e+03,9.718357e+02
2.930307e+03,9.285963e+02
2.933199e+03,9.548779e+02
2.936092e+03,9.598945e+02
2.938985e+03,9.098195e+02
2.941878e+03,9.579346e+02
2.944770e+03,9.545689e+02
2.947663e+03,9.666481e+02
2.950556e+03,9.507575e+02
2.953448e+03,9.421072e+02
2.956341e+03,9.721109e+02
2.959234e+03,9.637808e+02
2.962127e+03,9.246791e+02
2.965019e+03,9.423924e+02
2.967912e+03,9.345873e+02
2.970805e+03,9.142831e+02
2.973698e+03,9.298077e+02
2.976590e+03,9.061358e+02
2.979483e+03,9.332643e+02
2.982375e+03,9.033556e+02
2.985268e+03,9.272263e+02
2.988161e+03,9.016432e+02
2.991053e+03,9.125060e+02
2.993946e+03,8.763152e+02
2.996839e+03,9.041351e+02
2.999732e+03,8.971564e+02
3.002624e+03,8.738452e+02
3.005517e+03,8.647949e+02
3.008410e+03,8.999965e+02
3.011302e+03,8.931353e+02
3.014195e+03,8.975580e+02
3.017088e+03,8.659378e+02
3.019981e+03,8.998659e+02
3.022873e+03,9.055972e+02
3.025766e+03,9.039111e+02
3.028659e+03,9.034328e+02
3.031552e+03,8.932702e+02
3.034444e+03,8.936796e+02
3.037337e+03,8.632211e+02
3.040229e+03,8.658381e+02
3.043122e+03,8.764635e+02
3.046015e+03,8.358096e+02
3.048907e+03,8.840754e+02
3.051800e+03,8.718133e+02
3.054693e+03,8.834279e+02
3.057586e+03,8.776946e+02
3.060478e+03,8.389969e+02
3.063371e+03,8.926086e+02
3.066264e+03,8.515592e+02
3.069156e+03,8.913105e+02
3.072049e+03,8.861303e+02
3.074942e+03,8.618054e+02
3.077835e+03,8.678513e+02
3.080727e+03,8.419518e+02
3.083620e+03,8.568226e+02
3.086513e+03,8.751257e+02
3.089406e+03,8.888666e+02
3.092298e+03,8.636490e+02
3.095191e+03,9.012442e+02
3.098083e+03,8.894135e+02
3.100976e+03,8.888860e+02
3.103869e+03,8.506434e+02
3.106761e+03,8.436920e+02
3.109654e+03,8.584568e+02
3.112547e+03,8.636766e+02
3.115440e+03,8.517359e+02
3.118332e+03,8.836044e+02
3.121225e+03,8.554523e+02
3.124118e+03,8.582547e+02
3.127010e+03,8.586439e+02
3.129903e+03,8.547333e+02
3.132796e+03,8.880720e+02
3.135689e+03,8.970540e+02
3.138581e+03,8.839228e+02
3.141474e+03,8.822469e+02
3.144367e+03,8.553572e+02
3.147260e+03,8.603784e+02
3.150152e+03,8.559392e+02
3.153045e+03,8.192592e+02
3.155938e+03,8.508194e+02
3.158830e+03,8.555671e+02
3.161723e+03,8.405260e+02
3.164615e+03,8.739305e+02
3.167508e+03,8.780930e+02
3.170401e+03,8.489470e+02
3.173294e+03,8.818130e+02
3.176186e+03,8.795422e+02
3.179079e+03,8.485619e+02
3.181972e+03,8.663646e+02
3.184865e+03,8.035588e+02
3.187757e+03,8.589145e+02
3.190650e+03,8.635679e+02
3.193543e+03,8.087750e+02
3.196435e+03,8.480677e+02
3.199328e+03,9.275383e+02
3.200292e+03,9.263903e+02