File: RAMAN_data/20012023_r1/black fibre13.CSV
1.995979e+02,1.046964e+04
2.024906e+02,1.050564e+04
2.053833e+02,1.054303e+04
2.082760e+02,1.055275e+04
2.111687e+02,1.054622e+04
2.140614e+02,1.057110e+04
2.169541e+02,1.059435e+04
2.198468e+02,1.064671e+04
2.227395e+02,1.067306e+04
2.256322e+02,1.067777e+04
2.285249e+02,1.069302e+04
2.314176e+02,1.074347e+04
2.343103e+02,1.077261e+04
2.372030e+02,1.080133e+04
2.400957e+02,1.080287e+04
2.429884e+02,1.080780e+04
2.458811e+02,1.084448e+04
2.487738e+02,1.086768e+04
2.516665e+02,1.088991e+04
2.545592e+02,1.092316e+04
2.574519e+02,1.089849e+04
2.603446e+02,1.093663e+04
2.632373e+02,1.097515e+04
2.661300e+02,1.100524e+04
2.690227e+02,1.104195e+04
2.719154e+02,1.104883e+04
2.748081e+02,1.105067e+04
2.777008e+02,1.111365e+04
2.805935e+02,1.114675e+04
2.834862e+02,1.112705e+04
2.863789e+02,1.112129e+04
2.892716e+02,1.114354e+04
2.921643e+02,1.117650e+04
2.950570e+02,1.118594e+04
2.979497e+02,1.122506e+04
3.008424e+02,1.118548e+04
3.037351e+02,1.120047e+04
3.066278e+02,1.120831e+04
3.095205e+02,1.122820e+04
3.124132e+02,1.125866e+04
3.153059e+02,1.128547e+04
3.181986e+02,1.127799e+04
3.210913e+02,1.127066e+04
3.239840e+02,1.129309e+04
3.268767e+02,1.130555e+04
3.297694e+02,1.134663e+04
3.326621e+02,1.135168e+04
3.355548e+02,1.134495e+04
3.384475e+02,1.134910e+04
3.413402e+02,1.136079e+04
3.442329e+02,1.138233e+04
3.471256e+02,1.142164e+04
3.500183e+02,1.141769e+04
3.529110e+02,1.140235e+04
3.558037e+02,1.145167e+04
3.586964e+02,1.148697e+04
3.615891e+02,1.150448e+04
3.644818e+02,1.147772e+04
3.673745e+02,1.144546e+04
3.702672e+02,1.150016e+04
3.731599e+02,1.153156e+04
3.760526e+02,1.151788e+04
3.789453e+02,1.154159e+04
3.818380e+02,1.148042e+04
3.847307e+02,1.150355e+04
3.876234e+02,1.147701e+04
3.905161e+02,1.149097e+04
3.934088e+02,1.149334e+04
3.963015e+02,1.147052e+04
3.991942e+02,1.146340e+04
4.020869e+02,1.149770e+04
4.049796e+02,1.147966e+04
4.078723e+02,1.146826e+04
4.107650e+02,1.146458e+04
4.136577e+02,1.143862e+04
4.165504e+02,1.141785e+04
4.194431e+02,1.143511e+04
4.223358e+02,1.145278e+04
4.252285e+02,1.144073e+04
4.281212e+02,1.143540e+04
4.310139e+02,1.139628e+04
4.339066e+02,1.140838e+04
4.367993e+02,1.140420e+04
4.396920e+02,1.139743e+04
4.425847e+02,1.141573e+04
4.454774e+02,1.140537e+04
4.483701e+02,1.139597e+04
4.512628e+02,1.139742e+04
4.541555e+02,1.138018e+04
4.570482e+02,1.137914e+04
4.599409e+02,1.135161e+04
4.628336e+02,1.133459e+04
4.657263e+02,1.134265e+04
4.686190e+02,1.135471e+04
4.715117e+02,1.134370e+04
4.744044e+02,1.133701e+04
4.772971e+02,1.128491e+04
4.801898e+02,1.132873e+04
4.830825e+02,1.133804e+04
4.859752e+02,1.132023e+04
4.888679e+02,1.129961e+04
4.917606e+02,1.128473e+04
4.946533e+02,1.130476e+04
4.975460e+02,1.132760e+04
5.004387e+02,1.126125e+04
5.033314e+02,1.125786e+04
5.062241e+02,1.127245e+04
5.091168e+02,1.121697e+04
5.120095e+02,1.120456e+04
5.149022e+02,1.121520e+04
5.177949e+02,1.123602e+04
5.206876e+02,1.120401e+04
5.235803e+02,1.113500e+04
5.264730e+02,1.120834e+04
5.293657e+02,1.117164e+04
5.322584e+02,1.115551e+04
5.351511e+02,1.113874e+04
5.380438e+02,1.111866e+04
5.409365e+02,1.114170e+04
5.438292e+02,1.111859e+04
5.467219e+02,1.113327e+04
5.496146e+02,1.109572e+04
5.525073e+02,1.106990e+04
5.554000e+02,1.105836e+04
5.582927e+02,1.105663e+04
5.611854e+02,1.105457e+04
5.640781e+02,1.108738e+04
5.669708e+02,1.101883e+04
5.698635e+02,1.100713e+04
5.727562e+02,1.098062e+04
5.756489e+02,1.099217e+04
5.785416e+02,1.097149e+04
5.814343e+02,1.096112e+04
5.843270e+02,1.094630e+04
5.872197e+02,1.090090e+04
5.901124e+02,1.094469e+04
5.930051e+02,1.091947e+04
5.958978e+02,1.090548e+04
5.987905e+02,1.089580e+04
6.016832e+02,1.088227e+04
6.045759e+02,1.089178e+04
6.074686e+02,1.088135e+04
6.103613e+02,1.084291e+04
6.132540e+02,1.086518e+04
6.161467e+02,1.082652e+04
6.190394e+02,1.083257e+04
6.219321e+02,1.082222e+04
6.248248e+02,1.082972e+04
6.277175e+02,1.084168e+04
6.306102e+02,1.077643e+04
6.335029e+02,1.077014e+04
6.363956e+02,1.073689e+04
6.392883e+02,1.072254e+04
6.421810e+02,1.069712e+04
6.450737e+02,1.068479e+04
6.479664e+02,1.068320e+04
6.508591e+02,1.067451e+04
6.537518e+02,1.066255e+04
6.566445e+02,1.064625e+04
6.595372e+02,1.064912e+04
6.624299e+02,1.060494e+04
6.653226e+02,1.062148e+04
6.682153e+02,1.062289e+04
6.711080e+02,1.060467e+04
6.740007e+02,1.056114e+04
6.768934e+02,1.054472e+04
6.797861e+02,1.053685e+04
6.826788e+02,1.057122e+04
6.855715e+02,1.051333e+04
6.884642e+02,1.049174e+04
6.913569e+02,1.050488e+04
6.942496e+02,1.046500e+04
6.971423e+02,1.048729e+04
7.000350e+02,1.042040e+04
7.029277e+02,1.042151e+04
7.058204e+02,1.039636e+04
7.087131e+02,1.041376e+04
7.116058e+02,1.039523e+04
7.144985e+02,1.038023e+04
7.173912e+02,1.033660e+04
7.202839e+02,1.036296e+04
7.231766e+02,1.033342e+04
7.260693e+02,1.032569e+04
7.289620e+02,1.029955e+04
7.318547e+02,1.026300e+04
7.347474e+02,1.027364e+04
7.376401e+02,1.027399e+04
7.405328e+02,1.023781e+04
7.434255e+02,1.021579e+04
7.463182e+02,1.022356e+04
7.492109e+02,1.021454e+04
7.521036e+02,1.019079e+04
7.549963e+02,1.015622e+04
7.578890e+02,1.016352e+04
7.607817e+02,1.017525e+04
7.636744e+02,1.011945e+04
7.665671e+02,1.012804e+04
7.694598e+02,1.009786e+04
7.723525e+02,1.007561e+04
7.752452e+02,1.006100e+04
7.781379e+02,1.008197e+04
7.810306e+02,1.005102e+04
7.839233e+02,1.002479e+04
7.868160e+02,1.001871e+04
7.897087e+02,9.992753e+03
7.926014e+02,1.000814e+04
7.954941e+02,9.969797e+03
7.983868e+02,9.918192e+03
8.012795e+02,9.935761e+03
8.041722e+02,9.890529e+03
8.070649e+02,9.938184e+03
8.099576e+02,9.908240e+03
8.128503e+02,9.868343e+03
8.157430e+02,9.845830e+03
8.186357e+02,9.849255e+03
8.215284e+02,9.863547e+03
8.244211e+02,9.828331e+03
8.273138e+02,9.831243e+03
8.302065e+02,9.806796e+03
8.330992e+02,9.766527e+03
8.359919e+02,9.778513e+03
8.388846e+02,9.789126e+03
8.417773e+02,9.749364e+03
8.446700e+02,9.714946e+03
8.475627e+02,9.695548e+03
8.504554e+02,9.713579e+03
8.533481e+02,9.675330e+03
8.562408e+02,9.683823e+03
8.591335e+02,9.631009e+03
8.620262e+02,9.639578e+03
8.649189e+02,9.619408e+03
8.678116e+02,9.582533e+03
8.707043e+02,9.596966e+03
8.735970e+02,9.560035e+03
8.764897e+02,9.543366e+03
8.793824e+02,9.541566e+03
8.822751e+02,9.543890e+03
8.851678e+02,9.546129e+03
8.880605e+02,9.532252e+03
8.909532e+02,9.499498e+03
8.938459e+02,9.456276e+03
8.967386e+02,9.450074e+03
8.996313e+02,9.443558e+03
9.025240e+02,9.451595e+03
9.054167e+02,9.463281e+03
9.083094e+02,9.401814e+03
9.112021e+02,9.366005e+03
9.140948e+02,9.353663e+03
9.169875e+02,9.374703e+03
9.198802e+02,9.293737e+03
9.227729e+02,9.289407e+03
9.256656e+02,9.285317e+03
9.285583e+02,9.270019e+03
9.314510e+02,9.255830e+03
9.343438e+02,9.250674e+03
9.372365e+02,9.239209e+03
9.401292e+02,9.207015e+03
9.430219e+02,9.205651e+03
9.459146e+02,9.188521e+03
9.488073e+02,9.196325e+03
9.517000e+02,9.154250e+03
9.545927e+02,9.132760e+03
9.574854e+02,9.100418e+03
9.603781e+02,9.141318e+03
9.632708e+02,9.113389e+03
9.661635e+02,9.084567e+03
9.690562e+02,9.063033e+03
9.719489e+02,9.049431e+03
9.748416e+02,9.041304e+03
9.777343e+02,9.040853e+03
9.806270e+02,9.032638e+03
9.835197e+02,8.988171e+03
9.864124e+02,8.968502e+03
9.893051e+02,8.995825e+03
9.921978e+02,8.975160e+03
9.950905e+02,8.954419e+03
9.979832e+02,8.947089e+03
1.000876e+03,8.924801e+03
1.003769e+03,8.868578e+03
1.006661e+03,8.920591e+03
1.009554e+03,8.898573e+03
1.012447e+03,8.880876e+03
1.015339e+03,8.838338e+03
1.018232e+03,8.830568e+03
1.021125e+03,8.804202e+03
1.024017e+03,8.803043e+03
1.026910e+03,8.810380e+03
1.029803e+03,8.782394e+03
1.032696e+03,8.753310e+03
1.035588e+03,8.761269e+03
1.038481e+03,8.776247e+03
1.041374e+03,8.772313e+03
1.044266e+03,8.714517e+03
1.047159e+03,8.721347e+03
1.050052e+03,8.676744e+03
1.052944e+03,8.684568e+03
1.055837e+03,8.701031e+03
1.058730e+03,8.654241e+03
1.061623e+03,8.628415e+03
1.064515e+03,8.640932e+03
1.067408e+03,8.595958e+03
1.070301e+03,8.626764e+03
1.073193e+03,8.632857e+03
1.076086e+03,8.608064e+03
1.078979e+03,8.560208e+03
1.081871e+03,8.602001e+03
1.084764e+03,8.601312e+03
1.087657e+03,8.577739e+03
1.090550e+03,8.584038e+03
1.093442e+03,8.556352e+03
1.096335e+03,8.533527e+03
1.099228e+03,8.521095e+03
1.102120e+03,8.497941e+03
1.105013e+03,8.506047e+03
1.107906e+03,8.451998e+03
1.110798e+03,8.447509e+03
1.113691e+03,8.455551e+03
1.116584e+03,8.492170e+03
1.119477e+03,8.475152e+03
1.122369e+03,8.445426e+03
1.125262e+03,8.416922e+03
1.128155e+03,8.386551e+03
1.131047e+03,8.412694e+03
1.133940e+03,8.401877e+03
1.136833e+03,8.391574e+03
1.139725e+03,8.386535e+03
1.142618e+03,8.338937e+03
1.145511e+03,8.322463e+03
1.148404e+03,8.358244e+03
1.151296e+03,8.351185e+03
1.154189e+03,8.305512e+03
1.157082e+03,8.276359e+03
1.159974e+03,8.242006e+03
1.162867e+03,8.277227e+03
1.165760e+03,8.242776e+03
1.168652e+03,8.233699e+03
1.171545e+03,8.200657e+03
1.174438e+03,8.203991e+03
1.177331e+03,8.227755e+03
1.180223e+03,8.205181e+03
1.183116e+03,8.205242e+03
1.186009e+03,8.158720e+03
1.188901e+03,8.132096e+03
1.191794e+03,8.158510e+03
1.194687e+03,8.134774e+03
1.197579e+03,8.141300e+03
1.200472e+03,8.129237e+03
1.203365e+03,8.078966e+03
1.206258e+03,8.098721e+03
1.209150e+03,8.109346e+03
1.212043e+03,8.105922e+03
1.214936e+03,8.092773e+03
1.217828e+03,8.053909e+03
1.220721e+03,8.064539e+03
1.223614e+03,8.059916e+03
1.226506e+03,8.032011e+03
1.229399e+03,8.013116e+03
1.232292e+03,8.012173e+03
1.235185e+03,7.961400e+03
1.238077e+03,7.968505e+03
1.240970e+03,7.944661e+03
1.243863e+03,7.948759e+03
1.246755e+03,7.936006e+03
1.249648e+03,7.912899e+03
1.252541e+03,7.901100e+03
1.255433e+03,7.911824e+03
1.258326e+03,7.889338e+03
1.261219e+03,7.865341e+03
1.264112e+03,7.900695e+03
1.267004e+03,7.864306e+03
1.269897e+03,7.849673e+03
1.272790e+03,7.870163e+03
1.275682e+03,7.864565e+03
1.278575e+03,7.863236e+03
1.281468e+03,7.817900e+03
1.284360e+03,7.839502e+03
1.287253e+03,7.835273e+03
1.290146e+03,7.817236e+03
1.293039e+03,7.798821e+03
1.295931e+03,7.734555e+03
1.298824e+03,7.738542e+03
1.301717e+03,7.753754e+03
1.304609e+03,7.738752e+03
1.307502e+03,7.731107e+03
1.310395e+03,7.729440e+03
1.313287e+03,7.709147e+03
1.316180e+03,7.666449e+03
1.319073e+03,7.705261e+03
1.321966e+03,7.683554e+03
1.324858e+03,7.670878e+03
1.327751e+03,7.638651e+03
1.330644e+03,7.661994e+03
1.333536e+03,7.661492e+03
1.336429e+03,7.656212e+03
1.339322e+03,7.628777e+03
1.342214e+03,7.611382e+03
1.345107e+03,7.595056e+03
1.348000e+03,7.584578e+03
1.350893e+03,7.621570e+03
1.353785e+03,7.599225e+03
1.356678e+03,7.538530e+03
1.359571e+03,7.499669e+03
1.362463e+03,7.512306e+03
1.365356e+03,7.523995e+03
1.368249e+03,7.515416e+03
1.371141e+03,7.500281e+03
1.374034e+03,7.470924e+03
1.376927e+03,7.454728e+03
1.379820e+03,7.468410e+03
1.382712e+03,7.415861e+03
1.385605e+03,7.407458e+03
1.388498e+03,7.399164e+03
1.391390e+03,7.384023e+03
1.394283e+03,7.384372e+03
1.397176e+03,7.389722e+03
1.400068e+03,7.376384e+03
1.402961e+03,7.346483e+03
1.405854e+03,7.327228e+03
1.408747e+03,7.347662e+03
1.411639e+03,7.327212e+03
1.414532e+03,7.288156e+03
1.417425e+03,7.301078e+03
1.420317e+03,7.260002e+03
1.423210e+03,7.267866e+03
1.426103e+03,7.255089e+03
1.428995e+03,7.252146e+03
1.431888e+03,7.249995e+03
1.434781e+03,7.214268e+03
1.437674e+03,7.208165e+03
1.440566e+03,7.159851e+03
1.443459e+03,7.192869e+03
1.446352e+03,7.141228e+03
1.449244e+03,7.150214e+03
1.452137e+03,7.143351e+03
1.455030e+03,7.152678e+03
1.457922e+03,7.127178e+03
1.460815e+03,7.125026e+03
1.463708e+03,7.123397e+03
1.466601e+03,7.088710e+03
1.469493e+03,7.081339e+03
1.472386e+03,7.066376e+03
1.475279e+03,7.070664e+03
1.478171e+03,7.045346e+03
1.481064e+03,7.026439e+03
1.483957e+03,7.012008e+03
1.486849e+03,7.001735e+03
1.489742e+03,7.002619e+03
1.492635e+03,6.975733e+03
1.495528e+03,6.981017e+03
1.498420e+03,6.973212e+03
1.501313e+03,6.953735e+03
1.504206e+03,6.937964e+03
1.507098e+03,6.941767e+03
1.509991e+03,6.927716e+03
1.512884e+03,6.874522e+03
1.515776e+03,6.880297e+03
1.518669e+03,6.879157e+03
1.521562e+03,6.850837e+03
1.524455e+03,6.870892e+03
1.527347e+03,6.833814e+03
1.530240e+03,6.838207e+03
1.533133e+03,6.806008e+03
1.536025e+03,6.788653e+03
1.538918e+03,6.770999e+03
1.541811e+03,6.789469e+03
1.544703e+03,6.744688e+03
1.547596e+03,6.780802e+03
1.550489e+03,6.775399e+03
1.553382e+03,6.755631e+03
1.556274e+03,6.746103e+03
1.559167e+03,6.745271e+03
1.562060e+03,6.740466e+03
1.564952e+03,6.731311e+03
1.567845e+03,6.721415e+03
1.570738e+03,6.723549e+03
1.573630e+03,6.713189e+03
1.576523e+03,6.666698e+03
1.579416e+03,6.664927e+03
1.582309e+03,6.685666e+03
1.585201e+03,6.662662e+03
1.588094e+03,6.664170e+03
1.590987e+03,6.612042e+03
1.593879e+03,6.609320e+03
1.596772e+03,6.605336e+03
1.599665e+03,6.603564e+03
1.602557e+03,6.573580e+03
1.605450e+03,6.569091e+03
1.608343e+03,6.551536e+03
1.611236e+03,6.539905e+03
1.614128e+03,6.517254e+03
1.617021e+03,6.513476e+03
1.619914e+03,6.499908e+03
1.622806e+03,6.477305e+03
1.625699e+03,6.484372e+03
1.628592e+03,6.452165e+03
1.631484e+03,6.428384e+03
1.634377e+03,6.402862e+03
1.637270e+03,6.403210e+03
1.640163e+03,6.390524e+03
1.643055e+03,6.400266e+03
1.645948e+03,6.383858e+03
1.648841e+03,6.327833e+03
1.651733e+03,6.333634e+03
1.654626e+03,6.304102e+03
1.657519e+03,6.304667e+03
1.660411e+03,6.283139e+03
1.663304e+03,6.291503e+03
1.666197e+03,6.259445e+03
1.669090e+03,6.221851e+03
1.671982e+03,6.243484e+03
1.674875e+03,6.238626e+03
1.677768e+03,6.191338e+03
1.680660e+03,6.220440e+03
1.683553e+03,6.198200e+03
1.686446e+03,6.196321e+03
1.689339e+03,6.164136e+03
1.692231e+03,6.160521e+03
1.695124e+03,6.126823e+03
1.698017e+03,6.138754e+03
1.700909e+03,6.099992e+03
1.703802e+03,6.110162e+03
1.706695e+03,6.115517e+03
1.709587e+03,6.095330e+03
1.712480e+03,6.069041e+03
1.715373e+03,6.058286e+03
1.718266e+03,6.056164e+03
1.721158e+03,6.052139e+03
1.724051e+03,6.013931e+03
1.726944e+03,5.987380e+03
1.729836e+03,6.029318e+03
1.732729e+03,5.952896e+03
1.735622e+03,5.972011e+03
1.738514e+03,5.977630e+03
1.741407e+03,5.957681e+03
1.744300e+03,5.951670e+03
1.747193e+03,5.905647e+03
1.750085e+03,5.904666e+03
1.752978e+03,5.894440e+03
1.755871e+03,5.900954e+03
1.758763e+03,5.867440e+03
1.761656e+03,5.850643e+03
1.764549e+03,5.855825e+03
1.767441e+03,5.828199e+03
1.770334e+03,5.795482e+03
1.773227e+03,5.803237e+03
1.776120e+03,5.811929e+03
1.779012e+03,5.773256e+03
1.781905e+03,5.778475e+03
1.784798e+03,5.768867e+03
1.787690e+03,5.773744e+03
1.790583e+03,5.737169e+03
1.793476e+03,5.711188e+03
1.796368e+03,5.706131e+03
1.799261e+03,5.708332e+03
1.802154e+03,5.680842e+03
1.805047e+03,5.667000e+03
1.807939e+03,5.647096e+03
1.810832e+03,5.655026e+03
1.813725e+03,5.621118e+03
1.816617e+03,5.654076e+03
1.819510e+03,5.609266e+03
1.822403e+03,5.580336e+03
1.825295e+03,5.574291e+03
1.828188e+03,5.591253e+03
1.831081e+03,5.563642e+03
1.833974e+03,5.532016e+03
1.836866e+03,5.539927e+03
1.839759e+03,5.513970e+03
1.842652e+03,5.530568e+03
1.845544e+03,5.498110e+03
1.848437e+03,5.481205e+03
1.851330e+03,5.489763e+03
1.854222e+03,5.457242e+03
1.857115e+03,5.457677e+03
1.860008e+03,5.418159e+03
1.862901e+03,5.440018e+03
1.865793e+03,5.407321e+03
1.868686e+03,5.379295e+03
1.871579e+03,5.373045e+03
1.874471e+03,5.384970e+03
1.877364e+03,5.369072e+03
1.880257e+03,5.341966e+03
1.883149e+03,5.327176e+03
1.886042e+03,5.313936e+03
1.888935e+03,5.303654e+03
1.891828e+03,5.294185e+03
1.894720e+03,5.281401e+03
1.897613e+03,5.262911e+03
1.900506e+03,5.282045e+03
1.903398e+03,5.243292e+03
1.906291e+03,5.267391e+03
1.909184e+03,5.237805e+03
1.912076e+03,5.201795e+03
1.914969e+03,5.184352e+03
1.917862e+03,5.151789e+03
1.920755e+03,5.166414e+03
1.923647e+03,5.163616e+03
1.926540e+03,5.167366e+03
1.929433e+03,5.113685e+03
1.932325e+03,5.092891e+03
1.935218e+03,5.100839e+03
1.938111e+03,5.070702e+03
1.941003e+03,5.085336e+03
1.943896e+03,5.068896e+03
1.946789e+03,5.053628e+03
1.949682e+03,5.036010e+03
1.952574e+03,5.020320e+03
1.955467e+03,5.018860e+03
1.958360e+03,4.997547e+03
1.961252e+03,4.996331e+03
1.964145e+03,4.962365e+03
1.967038e+03,4.986748e+03
1.969930e+03,4.961450e+03
1.972823e+03,4.940763e+03
1.975716e+03,4.907521e+03
1.978609e+03,4.913501e+03
1.981501e+03,4.905295e+03
1.984394e+03,4.910066e+03
1.987287e+03,4.893950e+03
1.990179e+03,4.873513e+03
1.993072e+03,4.851373e+03
1.995965e+03,4.812644e+03
1.998857e+03,4.845346e+03
2.001750e+03,4.817502e+03
2.004643e+03,4.794407e+03
2.007536e+03,4.782127e+03
2.010428e+03,4.754325e+03
2.013321e+03,4.771086e+03
2.016214e+03,4.776528e+03
2.019106e+03,4.743803e+03
2.021999e+03,4.693969e+03
2.024892e+03,4.705242e+03
2.027784e+03,4.683409e+03
2.030677e+03,4.672141e+03
2.033570e+03,4.696041e+03
2.036463e+03,4.661267e+03
2.039355e+03,4.623223e+03
2.042248e+03,4.589657e+03
2.045141e+03,4.641154e+03
2.048033e+03,4.597808e+03
2.050926e+03,4.566643e+03
2.053819e+03,4.587107e+03
2.056711e+03,4.588782e+03
2.059604e+03,4.539483e+03
2.062497e+03,4.541872e+03
2.065390e+03,4.553707e+03
2.068282e+03,4.502029e+03
2.071175e+03,4.500460e+03
2.074068e+03,4.478087e+03
2.076960e+03,4.504011e+03
2.079853e+03,4.457829e+03
2.082746e+03,4.483702e+03
2.085638e+03,4.439590e+03
2.088531e+03,4.450511e+03
2.091424e+03,4.402376e+03
2.094316e+03,4.447104e+03
2.097209e+03,4.431491e+03
2.100102e+03,4.386669e+03
2.102995e+03,4.356285e+03
2.105887e+03,4.357773e+03
2.108780e+03,4.365446e+03
2.111673e+03,4.339866e+03
2.114565e+03,4.292346e+03
2.117458e+03,4.311642e+03
2.120351e+03,4.310008e+03
2.123244e+03,4.289802e+03
2.126136e+03,4.252667e+03
2.129029e+03,4.227996e+03
2.131922e+03,4.272872e+03
2.134814e+03,4.240978e+03
2.137707e+03,4.229826e+03
2.140600e+03,4.186208e+03
2.143492e+03,4.204144e+03
2.146385e+03,4.186229e+03
2.149278e+03,4.178916e+03
2.152170e+03,4.174935e+03
2.155063e+03,4.127056e+03
2.157956e+03,4.101410e+03
2.160849e+03,4.128231e+03
2.163741e+03,4.124582e+03
2.166634e+03,4.090302e+03
2.169527e+03,4.104665e+03
2.172419e+03,4.063593e+03
2.175312e+03,4.059806e+03
2.178205e+03,4.072281e+03
2.181098e+03,4.018873e+03
2.183990e+03,4.037220e+03
2.186883e+03,4.028617e+03
2.189776e+03,3.998658e+03
2.192668e+03,3.993805e+03
2.195561e+03,3.995272e+03
2.198454e+03,3.961717e+03
2.201346e+03,3.951522e+03
2.204239e+03,3.945895e+03
2.207132e+03,3.965347e+03
2.210024e+03,3.899519e+03
2.212917e+03,3.881673e+03
2.215810e+03,3.909643e+03
2.218703e+03,3.899922e+03
2.221595e+03,3.876792e+03
2.224488e+03,3.848214e+03
2.227381e+03,3.839778e+03
2.230273e+03,3.823162e+03
2.233166e+03,3.821916e+03
2.236059e+03,3.809503e+03
2.238952e+03,3.799578e+03
2.241844e+03,3.785762e+03
2.244737e+03,3.750882e+03
2.247630e+03,3.779085e+03
2.250522e+03,3.756673e+03
2.253415e+03,3.752100e+03
2.256308e+03,3.719468e+03
2.259200e+03,3.707113e+03
2.262093e+03,3.699184e+03
2.264986e+03,3.680840e+03
2.267879e+03,3.689708e+03
2.270771e+03,3.648104e+03
2.273664e+03,3.640515e+03
2.276557e+03,3.661034e+03
2.279449e+03,3.645598e+03
2.282342e+03,3.641218e+03
2.285235e+03,3.618011e+03
2.288127e+03,3.616465e+03
2.291020e+03,3.552329e+03
2.293913e+03,3.569152e+03
2.296805e+03,3.581007e+03
2.299698e+03,3.571969e+03
2.302591e+03,3.565782e+03
2.305484e+03,3.528208e+03
2.308376e+03,3.492231e+03
2.311269e+03,3.493921e+03
2.314162e+03,3.502059e+03
2.317054e+03,3.485405e+03
2.319947e+03,3.474522e+03
2.322840e+03,3.466539e+03
2.325733e+03,3.474774e+03
2.328625e+03,3.465819e+03
2.331518e+03,3.438979e+03
2.334411e+03,3.408641e+03
2.337303e+03,3.427970e+03
2.340196e+03,3.376857e+03
2.343089e+03,3.429376e+03
2.345981e+03,3.427588e+03
2.348874e+03,3.375942e+03
2.351767e+03,3.385308e+03
2.354659e+03,3.353994e+03
2.357552e+03,3.374712e+03
2.360445e+03,3.327288e+03
2.363338e+03,3.327770e+03
2.366230e+03,3.314675e+03
2.369123e+03,3.292491e+03
2.372016e+03,3.287331e+03
2.374908e+03,3.307868e+03
2.377801e+03,3.291584e+03
2.380694e+03,3.253194e+03
2.383587e+03,3.265651e+03
2.386479e+03,3.269065e+03
2.389372e+03,3.261264e+03
2.392265e+03,3.224695e+03
2.395157e+03,3.204764e+03
2.398050e+03,3.201160e+03
2.400943e+03,3.205645e+03
2.403835e+03,3.187930e+03
2.406728e+03,3.172937e+03
2.409621e+03,3.161981e+03
2.412513e+03,3.131196e+03
2.415406e+03,3.146028e+03
2.418299e+03,3.139368e+03
2.421192e+03,3.127410e+03
2.424084e+03,3.145191e+03
2.426977e+03,3.100540e+03
2.429870e+03,3.089823e+03
2.432762e+03,3.086266e+03
2.435655e+03,3.093748e+03
2.438548e+03,3.077698e+03
2.441441e+03,3.064137e+03
2.444333e+03,3.042683e+03
2.447226e+03,3.039733e+03
2.450119e+03,3.031438e+03
2.453011e+03,3.031009e+03
2.455904e+03,3.039402e+03
2.458797e+03,2.994971e+03
2.461689e+03,3.000389e+03
2.464582e+03,2.957561e+03
2.467475e+03,2.996001e+03
2.470367e+03,2.984711e+03
2.473260e+03,2.972363e+03
2.476153e+03,2.932656e+03
2.479046e+03,2.958708e+03
2.481938e+03,2.944825e+03
2.484831e+03,2.941146e+03
2.487724e+03,2.938189e+03
2.490616e+03,2.909327e+03
2.493509e+03,2.943283e+03
2.496402e+03,2.891722e+03
2.499295e+03,2.900820e+03
2.502187e+03,2.895601e+03
2.505080e+03,2.870158e+03
2.507973e+03,2.862013e+03
2.510865e+03,2.854865e+03
2.513758e+03,2.863488e+03
2.516651e+03,2.863231e+03
2.519543e+03,2.839438e+03
2.522436e+03,2.808469e+03
2.525329e+03,2.810502e+03
2.528221e+03,2.815695e+03
2.531114e+03,2.808508e+03
2.534007e+03,2.817219e+03
2.536900e+03,2.775045e+03
2.539792e+03,2.775572e+03
2.542685e+03,2.764065e+03
2.545578e+03,2.779544e+03
2.548470e+03,2.760464e+03
2.551363e+03,2.767156e+03
2.554256e+03,2.741239e+03
2.557149e+03,2.734156e+03
2.560041e+03,2.701281e+03
2.562934e+03,2.733434e+03
2.565827e+03,2.720999e+03
2.568719e+03,2.709582e+03
2.571612e+03,2.703265e+03
2.574505e+03,2.701965e+03
2.577397e+03,2.684977e+03
2.580290e+03,2.677869e+03
2.583183e+03,2.654127e+03
2.586075e+03,2.672225e+03
2.588968e+03,2.661000e+03
2.591861e+03,2.676059e+03
2.594754e+03,2.680542e+03
2.597646e+03,2.630624e+03
2.600539e+03,2.644203e+03
2.603432e+03,2.632865e+03
2.606324e+03,2.632825e+03
2.609217e+03,2.626431e+03
2.612110e+03,2.615141e+03
2.615003e+03,2.606839e+03
2.617895e+03,2.600382e+03
2.620788e+03,2.592380e+03
2.623681e+03,2.599514e+03
2.626573e+03,2.564712e+03
2.629466e+03,2.566277e+03
2.632359e+03,2.563842e+03
2.635251e+03,2.575776e+03
2.638144e+03,2.549661e+03
2.641037e+03,2.537516e+03
2.643929e+03,2.548059e+03
2.646822e+03,2.533981e+03
2.649715e+03,2.540828e+03
2.652608e+03,2.530903e+03
2.655500e+03,2.523121e+03
2.658393e+03,2.493774e+03
2.661286e+03,2.478195e+03
2.664178e+03,2.509411e+03
2.667071e+03,2.513099e+03
2.669964e+03,2.495079e+03
2.672857e+03,2.489719e+03
2.675749e+03,2.470438e+03
2.678642e+03,2.439894e+03
2.681535e+03,2.449765e+03
2.684427e+03,2.455570e+03
2.687320e+03,2.447351e+03
2.690213e+03,2.443722e+03
2.693105e+03,2.442492e+03
2.695998e+03,2.426287e+03
2.698891e+03,2.445368e+03
2.701783e+03,2.454808e+03
2.704676e+03,2.392240e+03
2.707569e+03,2.423993e+03
2.710462e+03,2.398421e+03
2.713354e+03,2.392524e+03
2.716247e+03,2.385082e+03
2.719140e+03,2.369860e+03
2.722032e+03,2.379060e+03
2.724925e+03,2.395021e+03
2.727818e+03,2.397278e+03
2.730711e+03,2.364759e+03
2.733603e+03,2.373876e+03
2.736496e+03,2.355580e+03
2.739389e+03,2.327386e+03
2.742281e+03,2.333570e+03
2.745174e+03,2.356351e+03
2.748067e+03,2.338825e+03
2.750959e+03,2.328588e+03
2.753852e+03,2.290524e+03
2.756745e+03,2.326457e+03
2.759637e+03,2.281959e+03
2.762530e+03,2.313445e+03
2.765423e+03,2.301126e+03
2.768316e+03,2.287901e+03
2.771208e+03,2.277672e+03
2.774101e+03,2.264737e+03
2.776994e+03,2.285587e+03
2.779886e+03,2.244967e+03
2.782779e+03,2.257414e+03
2.785672e+03,2.278983e+03
2.788565e+03,2.269443e+03
2.791457e+03,2.264384e+03
2.794350e+03,2.241167e+03
2.797243e+03,2.237123e+03
2.800135e+03,2.244025e+03
2.803028e+03,2.220780e+03
2.805921e+03,2.202877e+03
2.808813e+03,2.225407e+03
2.811706e+03,2.195262e+03
2.814599e+03,2.252769e+03
2.817491e+03,2.198630e+03
2.820384e+03,2.211626e+03
2.823277e+03,2.204294e+03
2.826170e+03,2.189326e+03
2.829062e+03,2.202384e+03
2.831955e+03,2.202207e+03
2.834848e+03,2.179018e+03
2.837740e+03,2.200713e+03
2.840633e+03,2.176102e+03
2.843526e+03,2.190305e+03
2.846419e+03,2.150389e+03
2.849311e+03,2.183446e+03
2.852204e+03,2.182704e+03
2.855097e+03,2.149960e+03
2.857990e+03,2.166606e+03
2.860882e+03,2.159419e+03
2.863775e+03,2.158048e+03
2.866667e+03,2.150734e+03
2.869560e+03,2.129964e+03
2.872453e+03,2.178062e+03
2.875345e+03,2.150207e+03
2.878238e+03,2.147720e+03
2.881131e+03,2.136515e+03
2.884024e+03,2.189876e+03
2.886916e+03,2.147888e+03
2.889809e+03,2.138241e+03
2.892702e+03,2.150126e+03
2.895594e+03,2.116539e+03
2.898487e+03,2.107343e+03
2.901380e+03,2.163513e+03
2.904273e+03,2.112062e+03
2.907165e+03,2.127894e+03
2.910058e+03,2.105667e+03
2.912951e+03,2.095926e+03
2.915844e+03,2.081603e+03
2.918736e+03,2.112888e+03
2.921629e+03,2.075066e+03
2.924521e+03,2.065303e+03
2.927414e+03,2.083898e+03
2.930307e+03,2.077152e+03
2.933199e+03,2.070760e+03
2.936092e+03,2.028360e+03
2.938985e+03,2.055703e+03
2.941878e+03,2.034721e+03
2.944770e+03,2.041743e+03
2.947663e+03,2.055435e+03
2.950556e+03,2.066280e+03
2.953448e+03,2.005647e+03
2.956341e+03,2.082464e+03
2.959234e+03,2.031433e+03
2.962127e+03,2.006951e+03
2.965019e+03,2.011880e+03
2.967912e+03,2.003250e+03
2.970805e+03,1.958244e+03
2.973698e+03,1.980940e+03
2.976590e+03,1.973927e+03
2.979483e+03,1.977954e+03
2.982375e+03,1.999378e+03
2.985268e+03,2.113931e+03
2.988161e+03,2.588961e+03
2.991053e+03,2.805575e+03
2.993946e+03,2.121188e+03
2.996839e+03,1.983183e+03
2.999732e+03,1.933811e+03
3.002624e+03,1.910554e+03
3.005517e+03,1.950516e+03
3.008410e+03,1.945953e+03
3.011302e+03,1.983723e+03
3.014195e+03,1.927426e+03
3.017088e+03,1.946750e+03
3.019981e+03,1.930533e+03
3.022873e+03,1.942450e+03
3.025766e+03,1.941316e+03
3.028659e+03,1.915908e+03
3.031552e+03,1.959086e+03
3.034444e+03,1.939250e+03
3.037337e+03,1.893785e+03
3.040229e+03,1.917562e+03
3.043122e+03,1.927017e+03
3.046015e+03,1.938968e+03
3.048907e+03,1.910727e+03
3.051800e+03,1.917988e+03
3.054693e+03,1.875972e+03
3.057586e+03,1.926833e+03
3.060478e+03,1.930670e+03
3.063371e+03,1.880634e+03
3.066264e+03,1.850295e+03
3.069156e+03,1.938931e+03
3.072049e+03,1.910153e+03
3.074942e+03,1.889048e+03
3.077835e+03,1.923626e+03
3.080727e+03,1.871193e+03
3.083620e+03,1.861584e+03
3.086513e+03,1.903206e+03
3.089406e+03,1.871035e+03
3.092298e+03,1.886723e+03
3.095191e+03,1.852542e+03
3.098083e+03,1.841118e+03
3.100976e+03,1.903609e+03
3.103869e+03,1.867574e+03
3.106761e+03,1.824512e+03
3.109654e+03,1.841813e+03
3.112547e+03,1.884710e+03
3.115440e+03,1.843441e+03
3.118332e+03,1.861978e+03
3.121225e+03,1.878501e+03
3.124118e+03,1.866606e+03
3.127010e+03,1.840132e+03
3.129903e+03,1.851872e+03
3.132796e+03,1.830552e+03
3.135689e+03,1.885193e+03
3.138581e+03,1.857064e+03
3.141474e+03,1.842020e+03
3.144367e+03,1.858260e+03
3.147260e+03,1.865199e+03
3.150152e+03,1.842499e+03
3.153045e+03,1.854391e+03
3.155938e+03,1.855181e+03
3.158830e+03,1.864736e+03
3.161723e+03,1.830207e+03
3.164615e+03,1.898888e+03
3.167508e+03,1.881663e+03
3.170401e+03,1.849639e+03
3.173294e+03,1.863878e+03
3.176186e+03,1.883133e+03
3.179079e+03,1.852866e+03
3.181972e+03,1.824986e+03
3.184865e+03,1.867442e+03
3.187757e+03,1.847060e+03
3.190650e+03,1.828145e+03
3.193543e+03,1.872097e+03
3.196435e+03,1.845371e+03
3.199328e+03,1.932378e+03
3.200292e+03,1.934277e+03