File: RAMAN_data/20012023_r1/black fibre6.CSV
1.995979e+02,2.764760e+03
2.024906e+02,2.764623e+03
2.053833e+02,2.777029e+03
2.082760e+02,2.774058e+03
2.111687e+02,2.767550e+03
2.140614e+02,2.776060e+03
2.169541e+02,2.763145e+03
2.198468e+02,2.771399e+03
2.227395e+02,2.789910e+03
2.256322e+02,2.761899e+03
2.285249e+02,2.773543e+03
2.314176e+02,2.770461e+03
2.343103e+02,2.776204e+03
2.372030e+02,2.784239e+03
2.400957e+02,2.768022e+03
2.429884e+02,2.758250e+03
2.458811e+02,2.763515e+03
2.487738e+02,2.770462e+03
2.516665e+02,2.778929e+03
2.545592e+02,2.783455e+03
2.574519e+02,2.768933e+03
2.603446e+02,2.768113e+03
2.632373e+02,2.784261e+03
2.661300e+02,2.790580e+03
2.690227e+02,2.797453e+03
2.719154e+02,2.813483e+03
2.748081e+02,2.781282e+03
2.777008e+02,2.787334e+03
2.805935e+02,2.786900e+03
2.834862e+02,2.766503e+03
2.863789e+02,2.775451e+03
2.892716e+02,2.757804e+03
2.921643e+02,2.788092e+03
2.950570e+02,2.782523e+03
2.979497e+02,2.785601e+03
3.008424e+02,2.778562e+03
3.037351e+02,2.788916e+03
3.066278e+02,2.784366e+03
3.095205e+02,2.790716e+03
3.124132e+02,2.803198e+03
3.153059e+02,2.798805e+03
3.181986e+02,2.791978e+03
3.210913e+02,2.791198e+03
3.239840e+02,2.813481e+03
3.268767e+02,2.804540e+03
3.297694e+02,2.805613e+03
3.326621e+02,2.799359e+03
3.355548e+02,2.784844e+03
3.384475e+02,2.799370e+03
3.413402e+02,2.804743e+03
3.442329e+02,2.787343e+03
3.471256e+02,2.790705e+03
3.500183e+02,2.783581e+03
3.529110e+02,2.781629e+03
3.558037e+02,2.783470e+03
3.586964e+02,2.779220e+03
3.615891e+02,2.801439e+03
3.644818e+02,2.782633e+03
3.673745e+02,2.778758e+03
3.702672e+02,2.777534e+03
3.731599e+02,2.801446e+03
3.760526e+02,2.796969e+03
3.789453e+02,2.818937e+03
3.818380e+02,2.798574e+03
3.847307e+02,2.774083e+03
3.876234e+02,2.773477e+03
3.905161e+02,2.767275e+03
3.934088e+02,2.762551e+03
3.963015e+02,2.759288e+03
3.991942e+02,2.749589e+03
4.020869e+02,2.753361e+03
4.049796e+02,2.750835e+03
4.078723e+02,2.748870e+03
4.107650e+02,2.747495e+03
4.136577e+02,2.755953e+03
4.165504e+02,2.751733e+03
4.194431e+02,2.745572e+03
4.223358e+02,2.758753e+03
4.252285e+02,2.761323e+03
4.281212e+02,2.773035e+03
4.310139e+02,2.776524e+03
4.339066e+02,2.758696e+03
4.367993e+02,2.762996e+03
4.396920e+02,2.752949e+03
4.425847e+02,2.748559e+03
4.454774e+02,2.743131e+03
4.483701e+02,2.747468e+03
4.512628e+02,2.738610e+03
4.541555e+02,2.748552e+03
4.570482e+02,2.743348e+03
4.599409e+02,2.726102e+03
4.628336e+02,2.730972e+03
4.657263e+02,2.718798e+03
4.686190e+02,2.717558e+03
4.715117e+02,2.710392e+03
4.744044e+02,2.694500e+03
4.772971e+02,2.700763e+03
4.801898e+02,2.690604e+03
4.830825e+02,2.685444e+03
4.859752e+02,2.689070e+03
4.888679e+02,2.682591e+03
4.917606e+02,2.685106e+03
4.946533e+02,2.690628e+03
4.975460e+02,2.681803e+03
5.004387e+02,2.669551e+03
5.033314e+02,2.695586e+03
5.062241e+02,2.663765e+03
5.091168e+02,2.665471e+03
5.120095e+02,2.675912e+03
5.149022e+02,2.687431e+03
5.177949e+02,2.694031e+03
5.206876e+02,2.666823e+03
5.235803e+02,2.669481e+03
5.264730e+02,2.654161e+03
5.293657e+02,2.650091e+03
5.322584e+02,2.659210e+03
5.351511e+02,2.659069e+03
5.380438e+02,2.648812e+03
5.409365e+02,2.653520e+03
5.438292e+02,2.660165e+03
5.467219e+02,2.652492e+03
5.496146e+02,2.649232e+03
5.525073e+02,2.651618e+03
5.554000e+02,2.637074e+03
5.582927e+02,2.629027e+03
5.611854e+02,2.636154e+03
5.640781e+02,2.640082e+03
5.669708e+02,2.611074e+03
5.698635e+02,2.623740e+03
5.727562e+02,2.609968e+03
5.756489e+02,2.604621e+03
5.785416e+02,2.605870e+03
5.814343e+02,2.612886e+03
5.843270e+02,2.613629e+03
5.872197e+02,2.594528e+03
5.901124e+02,2.597636e+03
5.930051e+02,2.582633e+03
5.958978e+02,2.598222e+03
5.987905e+02,2.592685e+03
6.016832e+02,2.589940e+03
6.045759e+02,2.596832e+03
6.074686e+02,2.583467e+03
6.103613e+02,2.563662e+03
6.132540e+02,2.581038e+03
6.161467e+02,2.559350e+03
6.190394e+02,2.555623e+03
6.219321e+02,2.556261e+03
6.248248e+02,2.566386e+03
6.277175e+02,2.576191e+03
6.306102e+02,2.568528e+03
6.335029e+02,2.547453e+03
6.363956e+02,2.544456e+03
6.392883e+02,2.546207e+03
6.421810e+02,2.551046e+03
6.450737e+02,2.540573e+03
6.479664e+02,2.550705e+03
6.508591e+02,2.530170e+03
6.537518e+02,2.539028e+03
6.566445e+02,2.543136e+03
6.595372e+02,2.533411e+03
6.624299e+02,2.528832e+03
6.653226e+02,2.527495e+03
6.682153e+02,2.522371e+03
6.711080e+02,2.518323e+03
6.740007e+02,2.523413e+03
6.768934e+02,2.501858e+03
6.797861e+02,2.508488e+03
6.826788e+02,2.495996e+03
6.855715e+02,2.492460e+03
6.884642e+02,2.490992e+03
6.913569e+02,2.476923e+03
6.942496e+02,2.482053e+03
6.971423e+02,2.487075e+03
7.000350e+02,2.457138e+03
7.029277e+02,2.462021e+03
7.058204e+02,2.452861e+03
7.087131e+02,2.458417e+03
7.116058e+02,2.454897e+03
7.144985e+02,2.457964e+03
7.173912e+02,2.448913e+03
7.202839e+02,2.450565e+03
7.231766e+02,2.441177e+03
7.260693e+02,2.457208e+03
7.289620e+02,2.454412e+03
7.318547e+02,2.433489e+03
7.347474e+02,2.441701e+03
7.376401e+02,2.415790e+03
7.405328e+02,2.418032e+03
7.434255e+02,2.417104e+03
7.463182e+02,2.426446e+03
7.492109e+02,2.421792e+03
7.521036e+02,2.418606e+03
7.549963e+02,2.422082e+03
7.578890e+02,2.415396e+03
7.607817e+02,2.418485e+03
7.636744e+02,2.407902e+03
7.665671e+02,2.408258e+03
7.694598e+02,2.393116e+03
7.723525e+02,2.397201e+03
7.752452e+02,2.392409e+03
7.781379e+02,2.387976e+03
7.810306e+02,2.383227e+03
7.839233e+02,2.376055e+03
7.868160e+02,2.368565e+03
7.897087e+02,2.365846e+03
7.926014e+02,2.370035e+03
7.954941e+02,2.352079e+03
7.983868e+02,2.354838e+03
8.012795e+02,2.346612e+03
8.041722e+02,2.334509e+03
8.070649e+02,2.340979e+03
8.099576e+02,2.334052e+03
8.128503e+02,2.333314e+03
8.157430e+02,2.318379e+03
8.186357e+02,2.328561e+03
8.215284e+02,2.334033e+03
8.244211e+02,2.327638e+03
8.273138e+02,2.324514e+03
8.302065e+02,2.305351e+03
8.330992e+02,2.321528e+03
8.359919e+02,2.320977e+03
8.388846e+02,2.307764e+03
8.417773e+02,2.301124e+03
8.446700e+02,2.291159e+03
8.475627e+02,2.302064e+03
8.504554e+02,2.316681e+03
8.533481e+02,2.300730e+03
8.562408e+02,2.306272e+03
8.591335e+02,2.308936e+03
8.620262e+02,2.295114e+03
8.649189e+02,2.282508e+03
8.678116e+02,2.279755e+03
8.707043e+02,2.282438e+03
8.735970e+02,2.275236e+03
8.764897e+02,2.279239e+03
8.793824e+02,2.274006e+03
8.822751e+02,2.287507e+03
8.851678e+02,2.273516e+03
8.880605e+02,2.278540e+03
8.909532e+02,2.255742e+03
8.938459e+02,2.252877e+03
8.967386e+02,2.257330e+03
8.996313e+02,2.243716e+03
9.025240e+02,2.227800e+03
9.054167e+02,2.222822e+03
9.083094e+02,2.201028e+03
9.112021e+02,2.211805e+03
9.140948e+02,2.197922e+03
9.169875e+02,2.201191e+03
9.198802e+02,2.186985e+03
9.227729e+02,2.191273e+03
9.256656e+02,2.179421e+03
9.285583e+02,2.173615e+03
9.314510e+02,2.173850e+03
9.343438e+02,2.174268e+03
9.372365e+02,2.186136e+03
9.401292e+02,2.163236e+03
9.430219e+02,2.161577e+03
9.459146e+02,2.158324e+03
9.488073e+02,2.155807e+03
9.517000e+02,2.147540e+03
9.545927e+02,2.145705e+03
9.574854e+02,2.146355e+03
9.603781e+02,2.140446e+03
9.632708e+02,2.131161e+03
9.661635e+02,2.146553e+03
9.690562e+02,2.134444e+03
9.719489e+02,2.128459e+03
9.748416e+02,2.139231e+03
9.777343e+02,2.135280e+03
9.806270e+02,2.132540e+03
9.835197e+02,2.121708e+03
9.864124e+02,2.106693e+03
9.893051e+02,2.108224e+03
9.921978e+02,2.127794e+03
9.950905e+02,2.126451e+03
9.979832e+02,2.123423e+03
1.000876e+03,2.125503e+03
1.003769e+03,2.102140e+03
1.006661e+03,2.095281e+03
1.009554e+03,2.103761e+03
1.012447e+03,2.092719e+03
1.015339e+03,2.063069e+03
1.018232e+03,2.075044e+03
1.021125e+03,2.072593e+03
1.024017e+03,2.077656e+03
1.026910e+03,2.070174e+03
1.029803e+03,2.050726e+03
1.032696e+03,2.066227e+03
1.035588e+03,2.043268e+03
1.038481e+03,2.052811e+03
1.041374e+03,2.046862e+03
1.044266e+03,2.053882e+03
1.047159e+03,2.032127e+03
1.050052e+03,2.042198e+03
1.052944e+03,2.054790e+03
1.055837e+03,2.048481e+03
1.058730e+03,2.054754e+03
1.061623e+03,2.041218e+03
1.064515e+03,2.034791e+03
1.067408e+03,2.029343e+03
1.070301e+03,2.053486e+03
1.073193e+03,2.046566e+03
1.076086e+03,2.044210e+03
1.078979e+03,2.032544e+03
1.081871e+03,2.048790e+03
1.084764e+03,2.061427e+03
1.087657e+03,2.059073e+03
1.090550e+03,2.068702e+03
1.093442e+03,2.084509e+03
1.096335e+03,2.066707e+03
1.099228e+03,2.034837e+03
1.102120e+03,2.039821e+03
1.105013e+03,2.040429e+03
1.107906e+03,2.034746e+03
1.110798e+03,2.035103e+03
1.113691e+03,2.033281e+03
1.116584e+03,2.029974e+03
1.119477e+03,2.026004e+03
1.122369e+03,2.026971e+03
1.125262e+03,2.005426e+03
1.128155e+03,2.003056e+03
1.131047e+03,2.013886e+03
1.133940e+03,2.012544e+03
1.136833e+03,1.999451e+03
1.139725e+03,1.990838e+03
1.142618e+03,1.982846e+03
1.145511e+03,1.979514e+03
1.148404e+03,1.985872e+03
1.151296e+03,1.996858e+03
1.154189e+03,1.991882e+03
1.157082e+03,1.977849e+03
1.159974e+03,1.979434e+03
1.162867e+03,1.979536e+03
1.165760e+03,1.975325e+03
1.168652e+03,1.968118e+03
1.171545e+03,1.957219e+03
1.174438e+03,1.941149e+03
1.177331e+03,1.931616e+03
1.180223e+03,1.936809e+03
1.183116e+03,1.931088e+03
1.186009e+03,1.927887e+03
1.188901e+03,1.922350e+03
1.191794e+03,1.922819e+03
1.194687e+03,1.916897e+03
1.197579e+03,1.935008e+03
1.200472e+03,1.922854e+03
1.203365e+03,1.916207e+03
1.206258e+03,1.915024e+03
1.209150e+03,1.927078e+03
1.212043e+03,1.919410e+03
1.214936e+03,1.904986e+03
1.217828e+03,1.903030e+03
1.220721e+03,1.881023e+03
1.223614e+03,1.900466e+03
1.226506e+03,1.900988e+03
1.229399e+03,1.893996e+03
1.232292e+03,1.881977e+03
1.235185e+03,1.875566e+03
1.238077e+03,1.864586e+03
1.240970e+03,1.881569e+03
1.243863e+03,1.868307e+03
1.246755e+03,1.851878e+03
1.249648e+03,1.860588e+03
1.252541e+03,1.856273e+03
1.255433e+03,1.854801e+03
1.258326e+03,1.848317e+03
1.261219e+03,1.846519e+03
1.264112e+03,1.831564e+03
1.267004e+03,1.843264e+03
1.269897e+03,1.847473e+03
1.272790e+03,1.862349e+03
1.275682e+03,1.874952e+03
1.278575e+03,1.863984e+03
1.281468e+03,1.869043e+03
1.284360e+03,1.853666e+03
1.287253e+03,1.865316e+03
1.290146e+03,1.862821e+03
1.293039e+03,1.854978e+03
1.295931e+03,1.855529e+03
1.298824e+03,1.853703e+03
1.301717e+03,1.853541e+03
1.304609e+03,1.859764e+03
1.307502e+03,1.858533e+03
1.310395e+03,1.858769e+03
1.313287e+03,1.864465e+03
1.316180e+03,1.878140e+03
1.319073e+03,1.885954e+03
1.321966e+03,1.890720e+03
1.324858e+03,1.876075e+03
1.327751e+03,1.867684e+03
1.330644e+03,1.862490e+03
1.333536e+03,1.862475e+03
1.336429e+03,1.856123e+03
1.339322e+03,1.853733e+03
1.342214e+03,1.835101e+03
1.345107e+03,1.829818e+03
1.348000e+03,1.816748e+03
1.350893e+03,1.825926e+03
1.353785e+03,1.793098e+03
1.356678e+03,1.786530e+03
1.359571e+03,1.793118e+03
1.362463e+03,1.778208e+03
1.365356e+03,1.786705e+03
1.368249e+03,1.775814e+03
1.371141e+03,1.773357e+03
1.374034e+03,1.761913e+03
1.376927e+03,1.762179e+03
1.379820e+03,1.763926e+03
1.382712e+03,1.754306e+03
1.385605e+03,1.748722e+03
1.388498e+03,1.752558e+03
1.391390e+03,1.733252e+03
1.394283e+03,1.730138e+03
1.397176e+03,1.729132e+03
1.400068e+03,1.720590e+03
1.402961e+03,1.707899e+03
1.405854e+03,1.709991e+03
1.408747e+03,1.713018e+03
1.411639e+03,1.719846e+03
1.414532e+03,1.722458e+03
1.417425e+03,1.717720e+03
1.420317e+03,1.723675e+03
1.423210e+03,1.712102e+03
1.426103e+03,1.705998e+03
1.428995e+03,1.714881e+03
1.431888e+03,1.715857e+03
1.434781e+03,1.693594e+03
1.437674e+03,1.697683e+03
1.440566e+03,1.693193e+03
1.443459e+03,1.694583e+03
1.446352e+03,1.706086e+03
1.449244e+03,1.687095e+03
1.452137e+03,1.688854e+03
1.455030e+03,1.689796e+03
1.457922e+03,1.674814e+03
1.460815e+03,1.673538e+03
1.463708e+03,1.654195e+03
1.466601e+03,1.657723e+03
1.469493e+03,1.661302e+03
1.472386e+03,1.648786e+03
1.475279e+03,1.667422e+03
1.478171e+03,1.650416e+03
1.481064e+03,1.651793e+03
1.483957e+03,1.646017e+03
1.486849e+03,1.641418e+03
1.489742e+03,1.632922e+03
1.492635e+03,1.634517e+03
1.495528e+03,1.620093e+03
1.498420e+03,1.627301e+03
1.501313e+03,1.609484e+03
1.504206e+03,1.610254e+03
1.507098e+03,1.617151e+03
1.509991e+03,1.614210e+03
1.512884e+03,1.600166e+03
1.515776e+03,1.589752e+03
1.518669e+03,1.594583e+03
1.521562e+03,1.602615e+03
1.524455e+03,1.589513e+03
1.527347e+03,1.582067e+03
1.530240e+03,1.598007e+03
1.533133e+03,1.592679e+03
1.536025e+03,1.597037e+03
1.538918e+03,1.590958e+03
1.541811e+03,1.589526e+03
1.544703e+03,1.593321e+03
1.547596e+03,1.596646e+03
1.550489e+03,1.590820e+03
1.553382e+03,1.591682e+03
1.556274e+03,1.599405e+03
1.559167e+03,1.602856e+03
1.562060e+03,1.588298e+03
1.564952e+03,1.593802e+03
1.567845e+03,1.590476e+03
1.570738e+03,1.602703e+03
1.573630e+03,1.597819e+03
1.576523e+03,1.591545e+03
1.579416e+03,1.579142e+03
1.582309e+03,1.580285e+03
1.585201e+03,1.577797e+03
1.588094e+03,1.574461e+03
1.590987e+03,1.550903e+03
1.593879e+03,1.567490e+03
1.596772e+03,1.566270e+03
1.599665e+03,1.564238e+03
1.602557e+03,1.567801e+03
1.605450e+03,1.575904e+03
1.608343e+03,1.614585e+03
1.611236e+03,1.628900e+03
1.614128e+03,1.616750e+03
1.617021e+03,1.562688e+03
1.619914e+03,1.543269e+03
1.622806e+03,1.520067e+03
1.625699e+03,1.506002e+03
1.628592e+03,1.512087e+03
1.631484e+03,1.503061e+03
1.634377e+03,1.496805e+03
1.637270e+03,1.483700e+03
1.640163e+03,1.486480e+03
1.643055e+03,1.496563e+03
1.645948e+03,1.485389e+03
1.648841e+03,1.486181e+03
1.651733e+03,1.473432e+03
1.654626e+03,1.499823e+03
1.657519e+03,1.474459e+03
1.660411e+03,1.481091e+03
1.663304e+03,1.482965e+03
1.666197e+03,1.467541e+03
1.669090e+03,1.470658e+03
1.671982e+03,1.456230e+03
1.674875e+03,1.458378e+03
1.677768e+03,1.460516e+03
1.680660e+03,1.444863e+03
1.683553e+03,1.453115e+03
1.686446e+03,1.437842e+03
1.689339e+03,1.448231e+03
1.692231e+03,1.448891e+03
1.695124e+03,1.436793e+03
1.698017e+03,1.434910e+03
1.700909e+03,1.444477e+03
1.703802e+03,1.428312e+03
1.706695e+03,1.435524e+03
1.709587e+03,1.432684e+03
1.712480e+03,1.450929e+03
1.715373e+03,1.420612e+03
1.718266e+03,1.448396e+03
1.721158e+03,1.453222e+03
1.724051e+03,1.458190e+03
1.726944e+03,1.445883e+03
1.729836e+03,1.417791e+03
1.732729e+03,1.430482e+03
1.735622e+03,1.400637e+03
1.738514e+03,1.411321e+03
1.741407e+03,1.400742e+03
1.744300e+03,1.384391e+03
1.747193e+03,1.386538e+03
1.750085e+03,1.401065e+03
1.752978e+03,1.382691e+03
1.755871e+03,1.377554e+03
1.758763e+03,1.376417e+03
1.761656e+03,1.367380e+03
1.764549e+03,1.375635e+03
1.767441e+03,1.373130e+03
1.770334e+03,1.367870e+03
1.773227e+03,1.366871e+03
1.776120e+03,1.363069e+03
1.779012e+03,1.354313e+03
1.781905e+03,1.360036e+03
1.784798e+03,1.346484e+03
1.787690e+03,1.364788e+03
1.790583e+03,1.361667e+03
1.793476e+03,1.327752e+03
1.796368e+03,1.338349e+03
1.799261e+03,1.324568e+03
1.802154e+03,1.333133e+03
1.805047e+03,1.329208e+03
1.807939e+03,1.321874e+03
1.810832e+03,1.312980e+03
1.813725e+03,1.329456e+03
1.816617e+03,1.313244e+03
1.819510e+03,1.302771e+03
1.822403e+03,1.295107e+03
1.825295e+03,1.299007e+03
1.828188e+03,1.314222e+03
1.831081e+03,1.300687e+03
1.833974e+03,1.307993e+03
1.836866e+03,1.280042e+03
1.839759e+03,1.287925e+03
1.842652e+03,1.283144e+03
1.845544e+03,1.284701e+03
1.848437e+03,1.269602e+03
1.851330e+03,1.252610e+03
1.854222e+03,1.267600e+03
1.857115e+03,1.257172e+03
1.860008e+03,1.260666e+03
1.862901e+03,1.264109e+03
1.865793e+03,1.241905e+03
1.868686e+03,1.254746e+03
1.871579e+03,1.242841e+03
1.874471e+03,1.235501e+03
1.877364e+03,1.245654e+03
1.880257e+03,1.237212e+03
1.883149e+03,1.238962e+03
1.886042e+03,1.248095e+03
1.888935e+03,1.241786e+03
1.891828e+03,1.228191e+03
1.894720e+03,1.235449e+03
1.897613e+03,1.230723e+03
1.900506e+03,1.222276e+03
1.903398e+03,1.214460e+03
1.906291e+03,1.217851e+03
1.909184e+03,1.204718e+03
1.912076e+03,1.219642e+03
1.914969e+03,1.195928e+03
1.917862e+03,1.196718e+03
1.920755e+03,1.195948e+03
1.923647e+03,1.209453e+03
1.926540e+03,1.198313e+03
1.929433e+03,1.189038e+03
1.932325e+03,1.181483e+03
1.935218e+03,1.198391e+03
1.938111e+03,1.176629e+03
1.941003e+03,1.190406e+03
1.943896e+03,1.179581e+03
1.946789e+03,1.176554e+03
1.949682e+03,1.170131e+03
1.952574e+03,1.168351e+03
1.955467e+03,1.168349e+03
1.958360e+03,1.170861e+03
1.961252e+03,1.147619e+03
1.964145e+03,1.157241e+03
1.967038e+03,1.145641e+03
1.969930e+03,1.153007e+03
1.972823e+03,1.144037e+03
1.975716e+03,1.137820e+03
1.978609e+03,1.125345e+03
1.981501e+03,1.142467e+03
1.984394e+03,1.119155e+03
1.987287e+03,1.138534e+03
1.990179e+03,1.122435e+03
1.993072e+03,1.126518e+03
1.995965e+03,1.118244e+03
1.998857e+03,1.115565e+03
2.001750e+03,1.125559e+03
2.004643e+03,1.107270e+03
2.007536e+03,1.114922e+03
2.010428e+03,1.111584e+03
2.013321e+03,1.107772e+03
2.016214e+03,1.105678e+03
2.019106e+03,1.105432e+03
2.021999e+03,1.109058e+03
2.024892e+03,1.096877e+03
2.027784e+03,1.083394e+03
2.030677e+03,1.088152e+03
2.033570e+03,1.087925e+03
2.036463e+03,1.072412e+03
2.039355e+03,1.065076e+03
2.042248e+03,1.059490e+03
2.045141e+03,1.091381e+03
2.048033e+03,1.069392e+03
2.050926e+03,1.070347e+03
2.053819e+03,1.066414e+03
2.056711e+03,1.047846e+03
2.059604e+03,1.065342e+03
2.062497e+03,1.045193e+03
2.065390e+03,1.065622e+03
2.068282e+03,1.053552e+03
2.071175e+03,1.040533e+03
2.074068e+03,1.026904e+03
2.076960e+03,1.036790e+03
2.079853e+03,1.044030e+03
2.082746e+03,1.026428e+03
2.085638e+03,1.022138e+03
2.088531e+03,1.017994e+03
2.091424e+03,1.027439e+03
2.094316e+03,1.035026e+03
2.097209e+03,1.024940e+03
2.100102e+03,1.021214e+03
2.102995e+03,1.003724e+03
2.105887e+03,1.012409e+03
2.108780e+03,1.007831e+03
2.111673e+03,1.000003e+03
2.114565e+03,9.974457e+02
2.117458e+03,9.917390e+02
2.120351e+03,9.979542e+02
2.123244e+03,1.004321e+03
2.126136e+03,9.911630e+02
2.129029e+03,9.952722e+02
2.131922e+03,9.890930e+02
2.134814e+03,9.789908e+02
2.137707e+03,9.646896e+02
2.140600e+03,9.908336e+02
2.143492e+03,9.723427e+02
2.146385e+03,9.689374e+02
2.149278e+03,9.734333e+02
2.152170e+03,9.585089e+02
2.155063e+03,9.607358e+02
2.157956e+03,9.487692e+02
2.160849e+03,9.502031e+02
2.163741e+03,9.533100e+02
2.166634e+03,9.474539e+02
2.169527e+03,9.504691e+02
2.172419e+03,9.465266e+02
2.175312e+03,9.371461e+02
2.178205e+03,9.412857e+02
2.181098e+03,9.399041e+02
2.183990e+03,9.368929e+02
2.186883e+03,9.211119e+02
2.189776e+03,9.294951e+02
2.192668e+03,9.182552e+02
2.195561e+03,9.188969e+02
2.198454e+03,9.217482e+02
2.201346e+03,9.263710e+02
2.204239e+03,9.196583e+02
2.207132e+03,9.110442e+02
2.210024e+03,8.919385e+02
2.212917e+03,9.115652e+02
2.215810e+03,9.023386e+02
2.218703e+03,8.929174e+02
2.221595e+03,9.004122e+02
2.224488e+03,8.923072e+02
2.227381e+03,8.812656e+02
2.230273e+03,9.071339e+02
2.233166e+03,8.797093e+02
2.236059e+03,8.843718e+02
2.238952e+03,8.815115e+02
2.241844e+03,8.758165e+02
2.244737e+03,8.685355e+02
2.247630e+03,8.830250e+02
2.250522e+03,8.637551e+02
2.253415e+03,8.741594e+02
2.256308e+03,8.679208e+02
2.259200e+03,8.548668e+02
2.262093e+03,8.692408e+02
2.264986e+03,8.480820e+02
2.267879e+03,8.469201e+02
2.270771e+03,8.527451e+02
2.273664e+03,8.409651e+02
2.276557e+03,8.447687e+02
2.279449e+03,8.439769e+02
2.282342e+03,8.477900e+02
2.285235e+03,8.390187e+02
2.288127e+03,8.357816e+02
2.291020e+03,8.309219e+02
2.293913e+03,8.253177e+02
2.296805e+03,8.336517e+02
2.299698e+03,8.315011e+02
2.302591e+03,8.140049e+02
2.305484e+03,8.093490e+02
2.308376e+03,8.092314e+02
2.311269e+03,8.174763e+02
2.314162e+03,7.986589e+02
2.317054e+03,8.124846e+02
2.319947e+03,8.011271e+02
2.322840e+03,7.950829e+02
2.325733e+03,8.128778e+02
2.328625e+03,8.019338e+02
2.331518e+03,7.994735e+02
2.334411e+03,7.987205e+02
2.337303e+03,7.937376e+02
2.340196e+03,7.712943e+02
2.343089e+03,7.916384e+02
2.345981e+03,7.906327e+02
2.348874e+03,7.839704e+02
2.351767e+03,7.842563e+02
2.354659e+03,7.889308e+02
2.357552e+03,7.832972e+02
2.360445e+03,7.772950e+02
2.363338e+03,7.765531e+02
2.366230e+03,7.668227e+02
2.369123e+03,7.787482e+02
2.372016e+03,7.813177e+02
2.374908e+03,7.524626e+02
2.377801e+03,7.610119e+02
2.380694e+03,7.604552e+02
2.383587e+03,7.498919e+02
2.386479e+03,7.598189e+02
2.389372e+03,7.595630e+02
2.392265e+03,7.567754e+02
2.395157e+03,7.460092e+02
2.398050e+03,7.471215e+02
2.400943e+03,7.402055e+02
2.403835e+03,7.343469e+02
2.406728e+03,7.505131e+02
2.409621e+03,7.345672e+02
2.412513e+03,7.372960e+02
2.415406e+03,7.321132e+02
2.418299e+03,7.243400e+02
2.421192e+03,7.425175e+02
2.424084e+03,7.247863e+02
2.426977e+03,7.278837e+02
2.429870e+03,7.187656e+02
2.432762e+03,7.291735e+02
2.435655e+03,7.218696e+02
2.438548e+03,7.277968e+02
2.441441e+03,7.206430e+02
2.444333e+03,7.165338e+02
2.447226e+03,7.048281e+02
2.450119e+03,7.194415e+02
2.453011e+03,7.220995e+02
2.455904e+03,7.067087e+02
2.458797e+03,7.070115e+02
2.461689e+03,7.081021e+02
2.464582e+03,7.012650e+02
2.467475e+03,7.028362e+02
2.470367e+03,7.047191e+02
2.473260e+03,7.004778e+02
2.476153e+03,6.967418e+02
2.479046e+03,7.101118e+02
2.481938e+03,7.040963e+02
2.484831e+03,7.011051e+02
2.487724e+03,6.854680e+02
2.490616e+03,6.912042e+02
2.493509e+03,6.768920e+02
2.496402e+03,6.867049e+02
2.499295e+03,6.792871e+02
2.502187e+03,6.779418e+02
2.505080e+03,6.762976e+02
2.507973e+03,6.692045e+02
2.510865e+03,6.707999e+02
2.513758e+03,6.695599e+02
2.516651e+03,6.681351e+02
2.519543e+03,6.697676e+02
2.522436e+03,6.705163e+02
2.525329e+03,6.567601e+02
2.528221e+03,6.741230e+02
2.531114e+03,6.672309e+02
2.534007e+03,6.693581e+02
2.536900e+03,6.720589e+02
2.539792e+03,6.585078e+02
2.542685e+03,6.577000e+02
2.545578e+03,6.620150e+02
2.548470e+03,6.585444e+02
2.551363e+03,6.690320e+02
2.554256e+03,6.663453e+02
2.557149e+03,6.603482e+02
2.560041e+03,6.544557e+02
2.562934e+03,6.495060e+02
2.565827e+03,6.638495e+02
2.568719e+03,6.422330e+02
2.571612e+03,6.353185e+02
2.574505e+03,6.416647e+02
2.577397e+03,6.451107e+02
2.580290e+03,6.457841e+02
2.583183e+03,6.480861e+02
2.586075e+03,6.435350e+02
2.588968e+03,6.451125e+02
2.591861e+03,6.287304e+02
2.594754e+03,6.357203e+02
2.597646e+03,6.400373e+02
2.600539e+03,6.225596e+02
2.603432e+03,6.375550e+02
2.606324e+03,6.111686e+02
2.609217e+03,6.178260e+02
2.612110e+03,6.160878e+02
2.615003e+03,6.165569e+02
2.617895e+03,6.087582e+02
2.620788e+03,6.118982e+02
2.623681e+03,6.217680e+02
2.626573e+03,6.228688e+02
2.629466e+03,6.068744e+02
2.632359e+03,6.025980e+02
2.635251e+03,5.826119e+02
2.638144e+03,6.104052e+02
2.641037e+03,5.954789e+02
2.643929e+03,5.935271e+02
2.646822e+03,6.139236e+02
2.649715e+03,6.097266e+02
2.652608e+03,6.002441e+02
2.655500e+03,5.942815e+02
2.658393e+03,6.004823e+02
2.661286e+03,5.923416e+02
2.664178e+03,5.894896e+02
2.667071e+03,5.913967e+02
2.669964e+03,5.940206e+02
2.672857e+03,5.958466e+02
2.675749e+03,5.947936e+02
2.678642e+03,5.989426e+02
2.681535e+03,5.847645e+02
2.684427e+03,5.743444e+02
2.687320e+03,5.835010e+02
2.690213e+03,5.943406e+02
2.693105e+03,5.817723e+02
2.695998e+03,6.085927e+02
2.698891e+03,5.849070e+02
2.701783e+03,5.748817e+02
2.704676e+03,5.954318e+02
2.707569e+03,5.865556e+02
2.710462e+03,5.957233e+02
2.713354e+03,5.871786e+02
2.716247e+03,5.761906e+02
2.719140e+03,5.786959e+02
2.722032e+03,5.876904e+02
2.724925e+03,5.749620e+02
2.727818e+03,5.718272e+02
2.730711e+03,5.780060e+02
2.733603e+03,5.781651e+02
2.736496e+03,5.572892e+02
2.739389e+03,5.681340e+02
2.742281e+03,5.599109e+02
2.745174e+03,5.730256e+02
2.748067e+03,5.537890e+02
2.750959e+03,5.696374e+02
2.753852e+03,5.413165e+02
2.756745e+03,5.510952e+02
2.759637e+03,5.519180e+02
2.762530e+03,5.664491e+02
2.765423e+03,5.320133e+02
2.768316e+03,5.495652e+02
2.771208e+03,5.466591e+02
2.774101e+03,5.603971e+02
2.776994e+03,5.515348e+02
2.779886e+03,5.469595e+02
2.782779e+03,5.361255e+02
2.785672e+03,5.465448e+02
2.788565e+03,5.482161e+02
2.791457e+03,5.540296e+02
2.794350e+03,5.371306e+02
2.797243e+03,5.475774e+02
2.800135e+03,5.538115e+02
2.803028e+03,5.428688e+02
2.805921e+03,5.603463e+02
2.808813e+03,5.467131e+02
2.811706e+03,5.375079e+02
2.814599e+03,5.440627e+02
2.817491e+03,5.442272e+02
2.820384e+03,5.387125e+02
2.823277e+03,5.418965e+02
2.826170e+03,5.413033e+02
2.829062e+03,5.610595e+02
2.831955e+03,5.384034e+02
2.834848e+03,5.472501e+02
2.837740e+03,5.367512e+02
2.840633e+03,5.318514e+02
2.843526e+03,5.480116e+02
2.846419e+03,5.258223e+02
2.849311e+03,5.465447e+02
2.852204e+03,5.535894e+02
2.855097e+03,5.470988e+02
2.857990e+03,5.248663e+02
2.860882e+03,5.433636e+02
2.863775e+03,5.367136e+02
2.866667e+03,5.339281e+02
2.869560e+03,5.744819e+02
2.872453e+03,5.296981e+02
2.875345e+03,5.489016e+02
2.878238e+03,5.381566e+02
2.881131e+03,5.636854e+02
2.884024e+03,5.450198e+02
2.886916e+03,5.568724e+02
2.889809e+03,5.540515e+02
2.892702e+03,5.614439e+02
2.895594e+03,5.491279e+02
2.898487e+03,5.537877e+02
2.901380e+03,5.523864e+02
2.904273e+03,5.546684e+02
2.907165e+03,5.562358e+02
2.910058e+03,5.416755e+02
2.912951e+03,5.371766e+02
2.915844e+03,5.386804e+02
2.918736e+03,5.513932e+02
2.921629e+03,5.389055e+02
2.924521e+03,5.230701e+02
2.927414e+03,5.408062e+02
2.930307e+03,5.162571e+02
2.933199e+03,5.368894e+02
2.936092e+03,5.342711e+02
2.938985e+03,5.187813e+02
2.941878e+03,5.273145e+02
2.944770e+03,5.347640e+02
2.947663e+03,5.433588e+02
2.950556e+03,5.341574e+02
2.953448e+03,5.140768e+02
2.956341e+03,5.583805e+02
2.959234e+03,5.357560e+02
2.962127e+03,5.008965e+02
2.965019e+03,5.009825e+02
2.967912e+03,5.074672e+02
2.970805e+03,5.025442e+02
2.973698e+03,5.163067e+02
2.976590e+03,5.065919e+02
2.979483e+03,4.929948e+02
2.982375e+03,4.883054e+02
2.985268e+03,4.877599e+02
2.988161e+03,5.092028e+02
2.991053e+03,4.875742e+02
2.993946e+03,4.844666e+02
2.996839e+03,5.007588e+02
2.999732e+03,4.711240e+02
3.002624e+03,4.527592e+02
3.005517e+03,4.809730e+02
3.008410e+03,4.827817e+02
3.011302e+03,4.859943e+02
3.014195e+03,4.995502e+02
3.017088e+03,4.801475e+02
3.019981e+03,4.955970e+02
3.022873e+03,4.911044e+02
3.025766e+03,4.811876e+02
3.028659e+03,4.917650e+02
3.031552e+03,4.635726e+02
3.034444e+03,5.007316e+02
3.037337e+03,4.654072e+02
3.040229e+03,4.861105e+02
3.043122e+03,4.802419e+02
3.046015e+03,4.775715e+02
3.048907e+03,4.760002e+02
3.051800e+03,4.952421e+02
3.054693e+03,4.822396e+02
3.057586e+03,4.908554e+02
3.060478e+03,4.953192e+02
3.063371e+03,4.996830e+02
3.066264e+03,4.995668e+02
3.069156e+03,4.949159e+02
3.072049e+03,4.941443e+02
3.074942e+03,4.855608e+02
3.077835e+03,4.736779e+02
3.080727e+03,4.875532e+02
3.083620e+03,4.869344e+02
3.086513e+03,4.962472e+02
3.089406e+03,4.937256e+02
3.092298e+03,4.957004e+02
3.095191e+03,4.797828e+02
3.098083e+03,4.857562e+02
3.100976e+03,4.930868e+02
3.103869e+03,4.357035e+02
3.106761e+03,4.631233e+02
3.109654e+03,4.891499e+02
3.112547e+03,4.480366e+02
3.115440e+03,4.829667e+02
3.118332e+03,4.904219e+02
3.121225e+03,4.668194e+02
3.124118e+03,4.766571e+02
3.127010e+03,4.577008e+02
3.129903e+03,4.938093e+02
3.132796e+03,4.612370e+02
3.135689e+03,4.614356e+02
3.138581e+03,4.802197e+02
3.141474e+03,4.906849e+02
3.144367e+03,4.727783e+02
3.147260e+03,4.720597e+02
3.150152e+03,4.964589e+02
3.153045e+03,4.674055e+02
3.155938e+03,4.663809e+02
3.158830e+03,4.765327e+02
3.161723e+03,4.792314e+02
3.164615e+03,4.734136e+02
3.167508e+03,5.120309e+02
3.170401e+03,4.808033e+02
3.173294e+03,4.778832e+02
3.176186e+03,4.898100e+02
3.179079e+03,4.486406e+02
3.181972e+03,4.692535e+02
3.184865e+03,4.844276e+02
3.187757e+03,4.906284e+02
3.190650e+03,4.808848e+02
3.193543e+03,4.197238e+02
3.196435e+03,5.061498e+02
3.199328e+03,5.015062e+02
3.200292e+03,5.161293e+02