File: RAMAN_data/20012023_r1/black fibre8.CSV
1.995979e+02,5.302400e+03
2.024906e+02,5.318836e+03
2.053833e+02,5.324998e+03
2.082760e+02,5.329612e+03
2.111687e+02,5.324460e+03
2.140614e+02,5.319877e+03
2.169541e+02,5.330189e+03
2.198468e+02,5.372360e+03
2.227395e+02,5.371863e+03
2.256322e+02,5.355449e+03
2.285249e+02,5.334430e+03
2.314176e+02,5.371576e+03
2.343103e+02,5.382941e+03
2.372030e+02,5.381534e+03
2.400957e+02,5.391568e+03
2.429884e+02,5.396390e+03
2.458811e+02,5.388568e+03
2.487738e+02,5.394553e+03
2.516665e+02,5.420921e+03
2.545592e+02,5.414497e+03
2.574519e+02,5.411789e+03
2.603446e+02,5.419898e+03
2.632373e+02,5.419602e+03
2.661300e+02,5.441815e+03
2.690227e+02,5.453632e+03
2.719154e+02,5.441776e+03
2.748081e+02,5.439586e+03
2.777008e+02,5.459125e+03
2.805935e+02,5.465562e+03
2.834862e+02,5.445927e+03
2.863789e+02,5.456008e+03
2.892716e+02,5.452577e+03
2.921643e+02,5.451642e+03
2.950570e+02,5.470195e+03
2.979497e+02,5.471679e+03
3.008424e+02,5.452885e+03
3.037351e+02,5.464755e+03
3.066278e+02,5.443726e+03
3.095205e+02,5.451508e+03
3.124132e+02,5.475938e+03
3.153059e+02,5.470207e+03
3.181986e+02,5.482533e+03
3.210913e+02,5.466206e+03
3.239840e+02,5.491960e+03
3.268767e+02,5.478016e+03
3.297694e+02,5.473799e+03
3.326621e+02,5.487098e+03
3.355548e+02,5.478628e+03
3.384475e+02,5.471541e+03
3.413402e+02,5.473838e+03
3.442329e+02,5.502053e+03
3.471256e+02,5.478681e+03
3.500183e+02,5.466695e+03
3.529110e+02,5.489388e+03
3.558037e+02,5.468315e+03
3.586964e+02,5.501121e+03
3.615891e+02,5.486953e+03
3.644818e+02,5.492313e+03
3.673745e+02,5.494761e+03
3.702672e+02,5.488548e+03
3.731599e+02,5.502995e+03
3.760526e+02,5.532482e+03
3.789453e+02,5.508224e+03
3.818380e+02,5.495064e+03
3.847307e+02,5.485919e+03
3.876234e+02,5.501813e+03
3.905161e+02,5.487402e+03
3.934088e+02,5.485641e+03
3.963015e+02,5.473771e+03
3.991942e+02,5.469815e+03
4.020869e+02,5.462373e+03
4.049796e+02,5.475748e+03
4.078723e+02,5.482476e+03
4.107650e+02,5.481023e+03
4.136577e+02,5.459059e+03
4.165504e+02,5.441400e+03
4.194431e+02,5.453534e+03
4.223358e+02,5.460086e+03
4.252285e+02,5.439975e+03
4.281212e+02,5.453696e+03
4.310139e+02,5.456060e+03
4.339066e+02,5.465931e+03
4.367993e+02,5.466244e+03
4.396920e+02,5.444685e+03
4.425847e+02,5.440141e+03
4.454774e+02,5.447613e+03
4.483701e+02,5.434211e+03
4.512628e+02,5.454114e+03
4.541555e+02,5.452475e+03
4.570482e+02,5.437123e+03
4.599409e+02,5.409243e+03
4.628336e+02,5.412179e+03
4.657263e+02,5.409983e+03
4.686190e+02,5.390938e+03
4.715117e+02,5.385789e+03
4.744044e+02,5.395672e+03
4.772971e+02,5.386999e+03
4.801898e+02,5.404115e+03
4.830825e+02,5.415559e+03
4.859752e+02,5.402563e+03
4.888679e+02,5.419127e+03
4.917606e+02,5.398198e+03
4.946533e+02,5.383921e+03
4.975460e+02,5.381183e+03
5.004387e+02,5.369480e+03
5.033314e+02,5.336492e+03
5.062241e+02,5.368706e+03
5.091168e+02,5.350942e+03
5.120095e+02,5.346750e+03
5.149022e+02,5.368885e+03
5.177949e+02,5.366537e+03
5.206876e+02,5.332840e+03
5.235803e+02,5.321323e+03
5.264730e+02,5.324787e+03
5.293657e+02,5.288940e+03
5.322584e+02,5.308272e+03
5.351511e+02,5.303216e+03
5.380438e+02,5.290298e+03
5.409365e+02,5.278577e+03
5.438292e+02,5.288298e+03
5.467219e+02,5.290120e+03
5.496146e+02,5.264960e+03
5.525073e+02,5.238397e+03
5.554000e+02,5.255733e+03
5.582927e+02,5.252701e+03
5.611854e+02,5.252163e+03
5.640781e+02,5.264153e+03
5.669708e+02,5.252057e+03
5.698635e+02,5.240937e+03
5.727562e+02,5.223859e+03
5.756489e+02,5.227525e+03
5.785416e+02,5.216446e+03
5.814343e+02,5.231177e+03
5.843270e+02,5.214013e+03
5.872197e+02,5.209847e+03
5.901124e+02,5.204547e+03
5.930051e+02,5.194111e+03
5.958978e+02,5.198403e+03
5.987905e+02,5.170736e+03
6.016832e+02,5.190439e+03
6.045759e+02,5.188704e+03
6.074686e+02,5.166701e+03
6.103613e+02,5.166566e+03
6.132540e+02,5.150888e+03
6.161467e+02,5.135513e+03
6.190394e+02,5.139054e+03
6.219321e+02,5.148076e+03
6.248248e+02,5.133377e+03
6.277175e+02,5.128151e+03
6.306102e+02,5.115097e+03
6.335029e+02,5.102662e+03
6.363956e+02,5.095850e+03
6.392883e+02,5.072615e+03
6.421810e+02,5.076174e+03
6.450737e+02,5.067901e+03
6.479664e+02,5.066367e+03
6.508591e+02,5.067934e+03
6.537518e+02,5.054766e+03
6.566445e+02,5.044779e+03
6.595372e+02,5.019674e+03
6.624299e+02,5.041360e+03
6.653226e+02,4.992924e+03
6.682153e+02,5.047338e+03
6.711080e+02,5.011251e+03
6.740007e+02,5.012832e+03
6.768934e+02,5.011800e+03
6.797861e+02,4.998245e+03
6.826788e+02,4.976049e+03
6.855715e+02,4.969396e+03
6.884642e+02,4.964658e+03
6.913569e+02,4.943317e+03
6.942496e+02,4.954188e+03
6.971423e+02,4.965239e+03
7.000350e+02,4.960759e+03
7.029277e+02,4.913815e+03
7.058204e+02,4.917236e+03
7.087131e+02,4.922954e+03
7.116058e+02,4.915381e+03
7.144985e+02,4.896084e+03
7.173912e+02,4.890890e+03
7.202839e+02,4.898131e+03
7.231766e+02,4.878391e+03
7.260693e+02,4.877243e+03
7.289620e+02,4.864556e+03
7.318547e+02,4.874070e+03
7.347474e+02,4.838570e+03
7.376401e+02,4.842073e+03
7.405328e+02,4.837014e+03
7.434255e+02,4.823416e+03
7.463182e+02,4.842642e+03
7.492109e+02,4.805403e+03
7.521036e+02,4.778742e+03
7.549963e+02,4.800685e+03
7.578890e+02,4.800876e+03
7.607817e+02,4.804698e+03
7.636744e+02,4.779867e+03
7.665671e+02,4.782163e+03
7.694598e+02,4.771416e+03
7.723525e+02,4.756594e+03
7.752452e+02,4.760479e+03
7.781379e+02,4.756370e+03
7.810306e+02,4.715518e+03
7.839233e+02,4.732659e+03
7.868160e+02,4.712707e+03
7.897087e+02,4.715916e+03
7.926014e+02,4.710532e+03
7.954941e+02,4.689868e+03
7.983868e+02,4.678585e+03
8.012795e+02,4.676127e+03
8.041722e+02,4.674310e+03
8.070649e+02,4.674329e+03
8.099576e+02,4.656949e+03
8.128503e+02,4.644708e+03
8.157430e+02,4.634571e+03
8.186357e+02,4.626146e+03
8.215284e+02,4.641217e+03
8.244211e+02,4.634950e+03
8.273138e+02,4.640058e+03
8.302065e+02,4.595286e+03
8.330992e+02,4.592772e+03
8.359919e+02,4.607951e+03
8.388846e+02,4.609860e+03
8.417773e+02,4.598849e+03
8.446700e+02,4.564131e+03
8.475627e+02,4.569403e+03
8.504554e+02,4.552733e+03
8.533481e+02,4.543625e+03
8.562408e+02,4.535147e+03
8.591335e+02,4.547391e+03
8.620262e+02,4.531967e+03
8.649189e+02,4.503938e+03
8.678116e+02,4.518248e+03
8.707043e+02,4.517654e+03
8.735970e+02,4.497243e+03
8.764897e+02,4.485977e+03
8.793824e+02,4.476853e+03
8.822751e+02,4.486958e+03
8.851678e+02,4.489347e+03
8.880605e+02,4.472173e+03
8.909532e+02,4.467240e+03
8.938459e+02,4.463325e+03
8.967386e+02,4.426880e+03
8.996313e+02,4.441783e+03
9.025240e+02,4.439739e+03
9.054167e+02,4.418221e+03
9.083094e+02,4.423436e+03
9.112021e+02,4.397044e+03
9.140948e+02,4.386432e+03
9.169875e+02,4.388722e+03
9.198802e+02,4.361584e+03
9.227729e+02,4.366221e+03
9.256656e+02,4.353202e+03
9.285583e+02,4.360667e+03
9.314510e+02,4.337152e+03
9.343438e+02,4.329056e+03
9.372365e+02,4.318882e+03
9.401292e+02,4.305002e+03
9.430219e+02,4.304513e+03
9.459146e+02,4.323822e+03
9.488073e+02,4.301825e+03
9.517000e+02,4.282234e+03
9.545927e+02,4.263657e+03
9.574854e+02,4.260563e+03
9.603781e+02,4.281364e+03
9.632708e+02,4.254211e+03
9.661635e+02,4.246225e+03
9.690562e+02,4.221013e+03
9.719489e+02,4.245969e+03
9.748416e+02,4.217154e+03
9.777343e+02,4.230722e+03
9.806270e+02,4.207373e+03
9.835197e+02,4.208875e+03
9.864124e+02,4.194048e+03
9.893051e+02,4.179193e+03
9.921978e+02,4.181528e+03
9.950905e+02,4.190302e+03
9.979832e+02,4.171134e+03
1.000876e+03,4.169188e+03
1.003769e+03,4.169756e+03
1.006661e+03,4.168443e+03
1.009554e+03,4.162954e+03
1.012447e+03,4.136447e+03
1.015339e+03,4.126968e+03
1.018232e+03,4.108190e+03
1.021125e+03,4.103773e+03
1.024017e+03,4.107065e+03
1.026910e+03,4.104171e+03
1.029803e+03,4.080262e+03
1.032696e+03,4.097450e+03
1.035588e+03,4.095468e+03
1.038481e+03,4.074125e+03
1.041374e+03,4.085881e+03
1.044266e+03,4.075217e+03
1.047159e+03,4.060934e+03
1.050052e+03,4.046333e+03
1.052944e+03,4.043415e+03
1.055837e+03,4.059440e+03
1.058730e+03,4.035688e+03
1.061623e+03,4.023040e+03
1.064515e+03,4.007614e+03
1.067408e+03,4.022228e+03
1.070301e+03,4.017413e+03
1.073193e+03,4.015884e+03
1.076086e+03,4.006309e+03
1.078979e+03,3.999704e+03
1.081871e+03,3.998574e+03
1.084764e+03,3.998125e+03
1.087657e+03,4.009187e+03
1.090550e+03,4.016736e+03
1.093442e+03,3.993296e+03
1.096335e+03,3.992615e+03
1.099228e+03,3.972131e+03
1.102120e+03,3.959041e+03
1.105013e+03,3.954460e+03
1.107906e+03,3.952823e+03
1.110798e+03,3.968996e+03
1.113691e+03,3.955310e+03
1.116584e+03,3.951255e+03
1.119477e+03,3.955141e+03
1.122369e+03,3.965094e+03
1.125262e+03,3.952522e+03
1.128155e+03,3.930457e+03
1.131047e+03,3.941084e+03
1.133940e+03,3.926700e+03
1.136833e+03,3.933359e+03
1.139725e+03,3.916784e+03
1.142618e+03,3.904284e+03
1.145511e+03,3.921730e+03
1.148404e+03,3.897086e+03
1.151296e+03,3.897023e+03
1.154189e+03,3.891323e+03
1.157082e+03,3.867500e+03
1.159974e+03,3.864593e+03
1.162867e+03,3.846749e+03
1.165760e+03,3.838400e+03
1.168652e+03,3.839695e+03
1.171545e+03,3.822214e+03
1.174438e+03,3.815986e+03
1.177331e+03,3.818163e+03
1.180223e+03,3.821912e+03
1.183116e+03,3.809667e+03
1.186009e+03,3.796298e+03
1.188901e+03,3.784051e+03
1.191794e+03,3.791226e+03
1.194687e+03,3.785565e+03
1.197579e+03,3.762452e+03
1.200472e+03,3.767483e+03
1.203365e+03,3.747954e+03
1.206258e+03,3.751381e+03
1.209150e+03,3.774062e+03
1.212043e+03,3.763086e+03
1.214936e+03,3.759689e+03
1.217828e+03,3.750861e+03
1.220721e+03,3.751880e+03
1.223614e+03,3.727896e+03
1.226506e+03,3.721439e+03
1.229399e+03,3.720614e+03
1.232292e+03,3.712504e+03
1.235185e+03,3.689635e+03
1.238077e+03,3.697517e+03
1.240970e+03,3.692993e+03
1.243863e+03,3.678720e+03
1.246755e+03,3.665121e+03
1.249648e+03,3.645800e+03
1.252541e+03,3.655901e+03
1.255433e+03,3.643052e+03
1.258326e+03,3.644224e+03
1.261219e+03,3.633597e+03
1.264112e+03,3.639016e+03
1.267004e+03,3.632055e+03
1.269897e+03,3.638757e+03
1.272790e+03,3.650212e+03
1.275682e+03,3.641343e+03
1.278575e+03,3.658499e+03
1.281468e+03,3.644872e+03
1.284360e+03,3.646487e+03
1.287253e+03,3.635048e+03
1.290146e+03,3.626564e+03
1.293039e+03,3.600261e+03
1.295931e+03,3.597506e+03
1.298824e+03,3.569344e+03
1.301717e+03,3.602260e+03
1.304609e+03,3.571413e+03
1.307502e+03,3.584421e+03
1.310395e+03,3.566390e+03
1.313287e+03,3.577740e+03
1.316180e+03,3.559840e+03
1.319073e+03,3.571163e+03
1.321966e+03,3.557724e+03
1.324858e+03,3.540601e+03
1.327751e+03,3.543945e+03
1.330644e+03,3.545422e+03
1.333536e+03,3.567727e+03
1.336429e+03,3.564243e+03
1.339322e+03,3.552909e+03
1.342214e+03,3.550852e+03
1.345107e+03,3.535414e+03
1.348000e+03,3.531674e+03
1.350893e+03,3.522578e+03
1.353785e+03,3.523336e+03
1.356678e+03,3.505667e+03
1.359571e+03,3.495501e+03
1.362463e+03,3.486846e+03
1.365356e+03,3.479154e+03
1.368249e+03,3.475561e+03
1.371141e+03,3.487622e+03
1.374034e+03,3.459128e+03
1.376927e+03,3.448780e+03
1.379820e+03,3.434344e+03
1.382712e+03,3.434034e+03
1.385605e+03,3.413927e+03
1.388498e+03,3.396738e+03
1.391390e+03,3.401082e+03
1.394283e+03,3.415227e+03
1.397176e+03,3.408737e+03
1.400068e+03,3.404069e+03
1.402961e+03,3.411293e+03
1.405854e+03,3.401217e+03
1.408747e+03,3.381489e+03
1.411639e+03,3.386643e+03
1.414532e+03,3.393083e+03
1.417425e+03,3.373008e+03
1.420317e+03,3.370340e+03
1.423210e+03,3.343921e+03
1.426103e+03,3.340823e+03
1.428995e+03,3.355199e+03
1.431888e+03,3.319900e+03
1.434781e+03,3.320107e+03
1.437674e+03,3.311550e+03
1.440566e+03,3.296425e+03
1.443459e+03,3.302989e+03
1.446352e+03,3.296492e+03
1.449244e+03,3.290671e+03
1.452137e+03,3.274054e+03
1.455030e+03,3.267314e+03
1.457922e+03,3.283265e+03
1.460815e+03,3.280300e+03
1.463708e+03,3.282601e+03
1.466601e+03,3.255455e+03
1.469493e+03,3.269044e+03
1.472386e+03,3.236274e+03
1.475279e+03,3.260419e+03
1.478171e+03,3.234062e+03
1.481064e+03,3.218837e+03
1.483957e+03,3.238594e+03
1.486849e+03,3.203539e+03
1.489742e+03,3.223611e+03
1.492635e+03,3.217644e+03
1.495528e+03,3.211059e+03
1.498420e+03,3.192232e+03
1.501313e+03,3.196225e+03
1.504206e+03,3.185742e+03
1.507098e+03,3.182367e+03
1.509991e+03,3.170937e+03
1.512884e+03,3.150707e+03
1.515776e+03,3.163257e+03
1.518669e+03,3.138468e+03
1.521562e+03,3.149647e+03
1.524455e+03,3.156563e+03
1.527347e+03,3.139044e+03
1.530240e+03,3.115214e+03
1.533133e+03,3.135324e+03
1.536025e+03,3.125966e+03
1.538918e+03,3.129699e+03
1.541811e+03,3.122451e+03
1.544703e+03,3.108233e+03
1.547596e+03,3.106041e+03
1.550489e+03,3.110976e+03
1.553382e+03,3.123278e+03
1.556274e+03,3.126887e+03
1.559167e+03,3.101577e+03
1.562060e+03,3.096120e+03
1.564952e+03,3.108776e+03
1.567845e+03,3.096905e+03
1.570738e+03,3.109644e+03
1.573630e+03,3.112062e+03
1.576523e+03,3.078530e+03
1.579416e+03,3.096437e+03
1.582309e+03,3.083155e+03
1.585201e+03,3.077612e+03
1.588094e+03,3.087579e+03
1.590987e+03,3.071781e+03
1.593879e+03,3.055210e+03
1.596772e+03,3.045320e+03
1.599665e+03,3.031645e+03
1.602557e+03,3.016715e+03
1.605450e+03,3.021101e+03
1.608343e+03,3.011274e+03
1.611236e+03,3.010876e+03
1.614128e+03,3.009038e+03
1.617021e+03,2.996386e+03
1.619914e+03,2.994253e+03
1.622806e+03,2.962306e+03
1.625699e+03,2.970535e+03
1.628592e+03,2.974351e+03
1.631484e+03,2.937568e+03
1.634377e+03,2.940193e+03
1.637270e+03,2.939297e+03
1.640163e+03,2.931211e+03
1.643055e+03,2.930183e+03
1.645948e+03,2.903039e+03
1.648841e+03,2.904154e+03
1.651733e+03,2.907960e+03
1.654626e+03,2.898067e+03
1.657519e+03,2.897683e+03
1.660411e+03,2.887906e+03
1.663304e+03,2.870786e+03
1.666197e+03,2.872308e+03
1.669090e+03,2.874510e+03
1.671982e+03,2.880372e+03
1.674875e+03,2.865451e+03
1.677768e+03,2.858710e+03
1.680660e+03,2.859755e+03
1.683553e+03,2.834690e+03
1.686446e+03,2.836867e+03
1.689339e+03,2.835431e+03
1.692231e+03,2.822735e+03
1.695124e+03,2.823120e+03
1.698017e+03,2.821796e+03
1.700909e+03,2.823232e+03
1.703802e+03,2.820275e+03
1.706695e+03,2.798325e+03
1.709587e+03,2.797324e+03
1.712480e+03,2.783581e+03
1.715373e+03,2.778350e+03
1.718266e+03,2.770382e+03
1.721158e+03,2.779108e+03
1.724051e+03,2.743180e+03
1.726944e+03,2.744639e+03
1.729836e+03,2.742896e+03
1.732729e+03,2.755201e+03
1.735622e+03,2.739420e+03
1.738514e+03,2.772299e+03
1.741407e+03,2.745405e+03
1.744300e+03,2.742379e+03
1.747193e+03,2.698431e+03
1.750085e+03,2.736453e+03
1.752978e+03,2.717068e+03
1.755871e+03,2.706483e+03
1.758763e+03,2.705651e+03
1.761656e+03,2.695291e+03
1.764549e+03,2.695805e+03
1.767441e+03,2.683255e+03
1.770334e+03,2.685239e+03
1.773227e+03,2.652010e+03
1.776120e+03,2.661501e+03
1.779012e+03,2.671386e+03
1.781905e+03,2.678093e+03
1.784798e+03,2.635939e+03
1.787690e+03,2.635227e+03
1.790583e+03,2.638570e+03
1.793476e+03,2.637428e+03
1.796368e+03,2.634952e+03
1.799261e+03,2.610016e+03
1.802154e+03,2.626529e+03
1.805047e+03,2.616717e+03
1.807939e+03,2.591831e+03
1.810832e+03,2.618382e+03
1.813725e+03,2.606066e+03
1.816617e+03,2.576240e+03
1.819510e+03,2.586612e+03
1.822403e+03,2.595919e+03
1.825295e+03,2.562658e+03
1.828188e+03,2.546573e+03
1.831081e+03,2.555802e+03
1.833974e+03,2.564350e+03
1.836866e+03,2.546754e+03
1.839759e+03,2.548891e+03
1.842652e+03,2.531388e+03
1.845544e+03,2.542634e+03
1.848437e+03,2.544074e+03
1.851330e+03,2.523378e+03
1.854222e+03,2.512987e+03
1.857115e+03,2.509139e+03
1.860008e+03,2.503276e+03
1.862901e+03,2.504725e+03
1.865793e+03,2.504119e+03
1.868686e+03,2.469240e+03
1.871579e+03,2.471068e+03
1.874471e+03,2.465769e+03
1.877364e+03,2.481122e+03
1.880257e+03,2.473172e+03
1.883149e+03,2.449765e+03
1.886042e+03,2.458333e+03
1.888935e+03,2.449781e+03
1.891828e+03,2.433707e+03
1.894720e+03,2.440249e+03
1.897613e+03,2.427655e+03
1.900506e+03,2.440218e+03
1.903398e+03,2.423066e+03
1.906291e+03,2.418039e+03
1.909184e+03,2.408655e+03
1.912076e+03,2.397752e+03
1.914969e+03,2.396238e+03
1.917862e+03,2.382141e+03
1.920755e+03,2.379444e+03
1.923647e+03,2.365618e+03
1.926540e+03,2.377100e+03
1.929433e+03,2.382147e+03
1.932325e+03,2.351289e+03
1.935218e+03,2.337626e+03
1.938111e+03,2.341830e+03
1.941003e+03,2.357909e+03
1.943896e+03,2.344040e+03
1.946789e+03,2.323090e+03
1.949682e+03,2.316600e+03
1.952574e+03,2.315893e+03
1.955467e+03,2.315668e+03
1.958360e+03,2.301447e+03
1.961252e+03,2.299719e+03
1.964145e+03,2.280415e+03
1.967038e+03,2.303085e+03
1.969930e+03,2.299552e+03
1.972823e+03,2.283813e+03
1.975716e+03,2.262779e+03
1.978609e+03,2.257223e+03
1.981501e+03,2.245351e+03
1.984394e+03,2.274274e+03
1.987287e+03,2.274110e+03
1.990179e+03,2.247954e+03
1.993072e+03,2.226034e+03
1.995965e+03,2.229902e+03
1.998857e+03,2.237601e+03
2.001750e+03,2.233888e+03
2.004643e+03,2.227975e+03
2.007536e+03,2.210954e+03
2.010428e+03,2.188700e+03
2.013321e+03,2.181876e+03
2.016214e+03,2.195945e+03
2.019106e+03,2.181551e+03
2.021999e+03,2.172403e+03
2.024892e+03,2.163514e+03
2.027784e+03,2.173127e+03
2.030677e+03,2.173307e+03
2.033570e+03,2.177519e+03
2.036463e+03,2.176251e+03
2.039355e+03,2.115242e+03
2.042248e+03,2.114202e+03
2.045141e+03,2.115977e+03
2.048033e+03,2.119386e+03
2.050926e+03,2.124120e+03
2.053819e+03,2.117416e+03
2.056711e+03,2.098295e+03
2.059604e+03,2.104885e+03
2.062497e+03,2.100741e+03
2.065390e+03,2.119554e+03
2.068282e+03,2.092222e+03
2.071175e+03,2.076593e+03
2.074068e+03,2.075822e+03
2.076960e+03,2.077131e+03
2.079853e+03,2.075119e+03
2.082746e+03,2.039099e+03
2.085638e+03,2.026253e+03
2.088531e+03,2.054328e+03
2.091424e+03,2.017451e+03
2.094316e+03,2.009341e+03
2.097209e+03,2.034694e+03
2.100102e+03,2.017806e+03
2.102995e+03,2.010971e+03
2.105887e+03,1.991277e+03
2.108780e+03,2.025206e+03
2.111673e+03,2.002328e+03
2.114565e+03,1.999220e+03
2.117458e+03,1.970890e+03
2.120351e+03,1.993536e+03
2.123244e+03,1.986185e+03
2.126136e+03,1.964869e+03
2.129029e+03,1.961177e+03
2.131922e+03,1.977816e+03
2.134814e+03,1.955672e+03
2.137707e+03,1.954794e+03
2.140600e+03,1.944404e+03
2.143492e+03,1.919455e+03
2.146385e+03,1.935018e+03
2.149278e+03,1.922504e+03
2.152170e+03,1.918859e+03
2.155063e+03,1.922447e+03
2.157956e+03,1.890666e+03
2.160849e+03,1.919788e+03
2.163741e+03,1.888786e+03
2.166634e+03,1.886824e+03
2.169527e+03,1.893202e+03
2.172419e+03,1.860676e+03
2.175312e+03,1.874399e+03
2.178205e+03,1.864128e+03
2.181098e+03,1.872627e+03
2.183990e+03,1.853053e+03
2.186883e+03,1.852737e+03
2.189776e+03,1.843489e+03
2.192668e+03,1.840029e+03
2.195561e+03,1.854902e+03
2.198454e+03,1.842164e+03
2.201346e+03,1.814242e+03
2.204239e+03,1.823838e+03
2.207132e+03,1.818367e+03
2.210024e+03,1.800036e+03
2.212917e+03,1.796422e+03
2.215810e+03,1.807683e+03
2.218703e+03,1.794772e+03
2.221595e+03,1.774767e+03
2.224488e+03,1.770188e+03
2.227381e+03,1.779075e+03
2.230273e+03,1.781590e+03
2.233166e+03,1.783820e+03
2.236059e+03,1.765524e+03
2.238952e+03,1.767056e+03
2.241844e+03,1.736743e+03
2.244737e+03,1.734069e+03
2.247630e+03,1.748662e+03
2.250522e+03,1.724584e+03
2.253415e+03,1.718301e+03
2.256308e+03,1.730605e+03
2.259200e+03,1.723864e+03
2.262093e+03,1.716564e+03
2.264986e+03,1.710966e+03
2.267879e+03,1.704134e+03
2.270771e+03,1.676396e+03
2.273664e+03,1.668715e+03
2.276557e+03,1.690655e+03
2.279449e+03,1.686147e+03
2.282342e+03,1.663834e+03
2.285235e+03,1.644083e+03
2.288127e+03,1.650747e+03
2.291020e+03,1.646510e+03
2.293913e+03,1.652907e+03
2.296805e+03,1.658553e+03
2.299698e+03,1.656747e+03
2.302591e+03,1.648012e+03
2.305484e+03,1.640312e+03
2.308376e+03,1.629274e+03
2.311269e+03,1.623292e+03
2.314162e+03,1.630592e+03
2.317054e+03,1.614512e+03
2.319947e+03,1.617927e+03
2.322840e+03,1.613704e+03
2.325733e+03,1.590497e+03
2.328625e+03,1.604187e+03
2.331518e+03,1.607498e+03
2.334411e+03,1.577802e+03
2.337303e+03,1.581522e+03
2.340196e+03,1.559494e+03
2.343089e+03,1.583467e+03
2.345981e+03,1.560979e+03
2.348874e+03,1.559991e+03
2.351767e+03,1.545437e+03
2.354659e+03,1.555591e+03
2.357552e+03,1.566488e+03
2.360445e+03,1.553908e+03
2.363338e+03,1.545594e+03
2.366230e+03,1.547644e+03
2.369123e+03,1.534864e+03
2.372016e+03,1.525509e+03
2.374908e+03,1.525925e+03
2.377801e+03,1.523178e+03
2.380694e+03,1.500443e+03
2.383587e+03,1.504818e+03
2.386479e+03,1.512647e+03
2.389372e+03,1.505625e+03
2.392265e+03,1.498751e+03
2.395157e+03,1.470244e+03
2.398050e+03,1.469564e+03
2.400943e+03,1.480813e+03
2.403835e+03,1.484648e+03
2.406728e+03,1.477198e+03
2.409621e+03,1.483018e+03
2.412513e+03,1.458811e+03
2.415406e+03,1.467080e+03
2.418299e+03,1.439264e+03
2.421192e+03,1.455794e+03
2.424084e+03,1.451266e+03
2.426977e+03,1.438647e+03
2.429870e+03,1.438277e+03
2.432762e+03,1.441613e+03
2.435655e+03,1.430580e+03
2.438548e+03,1.423077e+03
2.441441e+03,1.435063e+03
2.444333e+03,1.409901e+03
2.447226e+03,1.402182e+03
2.450119e+03,1.411007e+03
2.453011e+03,1.425058e+03
2.455904e+03,1.377003e+03
2.458797e+03,1.389547e+03
2.461689e+03,1.391709e+03
2.464582e+03,1.389596e+03
2.467475e+03,1.387797e+03
2.470367e+03,1.394115e+03
2.473260e+03,1.393141e+03
2.476153e+03,1.356452e+03
2.479046e+03,1.393655e+03
2.481938e+03,1.373115e+03
2.484831e+03,1.365980e+03
2.487724e+03,1.353759e+03
2.490616e+03,1.369347e+03
2.493509e+03,1.370426e+03
2.496402e+03,1.336347e+03
2.499295e+03,1.349149e+03
2.502187e+03,1.325252e+03
2.505080e+03,1.335645e+03
2.507973e+03,1.341355e+03
2.510865e+03,1.341231e+03
2.513758e+03,1.333462e+03
2.516651e+03,1.323045e+03
2.519543e+03,1.310751e+03
2.522436e+03,1.328155e+03
2.525329e+03,1.315704e+03
2.528221e+03,1.299957e+03
2.531114e+03,1.299173e+03
2.534007e+03,1.316741e+03
2.536900e+03,1.298333e+03
2.539792e+03,1.300569e+03
2.542685e+03,1.304891e+03
2.545578e+03,1.309263e+03
2.548470e+03,1.288537e+03
2.551363e+03,1.277770e+03
2.554256e+03,1.301609e+03
2.557149e+03,1.284052e+03
2.560041e+03,1.276505e+03
2.562934e+03,1.274261e+03
2.565827e+03,1.275416e+03
2.568719e+03,1.279413e+03
2.571612e+03,1.275833e+03
2.574505e+03,1.279348e+03
2.577397e+03,1.260716e+03
2.580290e+03,1.260512e+03
2.583183e+03,1.239828e+03
2.586075e+03,1.238971e+03
2.588968e+03,1.259478e+03
2.591861e+03,1.241608e+03
2.594754e+03,1.226236e+03
2.597646e+03,1.242286e+03
2.600539e+03,1.216469e+03
2.603432e+03,1.209921e+03
2.606324e+03,1.215600e+03
2.609217e+03,1.213068e+03
2.612110e+03,1.222118e+03
2.615003e+03,1.218408e+03
2.617895e+03,1.215232e+03
2.620788e+03,1.201454e+03
2.623681e+03,1.206032e+03
2.626573e+03,1.198679e+03
2.629466e+03,1.193783e+03
2.632359e+03,1.181066e+03
2.635251e+03,1.187808e+03
2.638144e+03,1.219511e+03
2.641037e+03,1.182395e+03
2.643929e+03,1.196815e+03
2.646822e+03,1.186152e+03
2.649715e+03,1.172141e+03
2.652608e+03,1.160844e+03
2.655500e+03,1.168947e+03
2.658393e+03,1.173093e+03
2.661286e+03,1.162605e+03
2.664178e+03,1.163230e+03
2.667071e+03,1.174515e+03
2.669964e+03,1.148496e+03
2.672857e+03,1.178522e+03
2.675749e+03,1.143242e+03
2.678642e+03,1.158211e+03
2.681535e+03,1.146385e+03
2.684427e+03,1.157749e+03
2.687320e+03,1.133444e+03
2.690213e+03,1.159689e+03
2.693105e+03,1.125005e+03
2.695998e+03,1.135353e+03
2.698891e+03,1.121029e+03
2.701783e+03,1.133878e+03
2.704676e+03,1.128773e+03
2.707569e+03,1.132465e+03
2.710462e+03,1.119114e+03
2.713354e+03,1.116024e+03
2.716247e+03,1.115516e+03
2.719140e+03,1.117208e+03
2.722032e+03,1.105693e+03
2.724925e+03,1.125610e+03
2.727818e+03,1.119798e+03
2.730711e+03,1.107619e+03
2.733603e+03,1.128839e+03
2.736496e+03,1.108013e+03
2.739389e+03,1.096547e+03
2.742281e+03,1.100159e+03
2.745174e+03,1.085427e+03
2.748067e+03,1.102751e+03
2.750959e+03,1.080656e+03
2.753852e+03,1.089113e+03
2.756745e+03,1.077258e+03
2.759637e+03,1.087702e+03
2.762530e+03,1.061808e+03
2.765423e+03,1.073053e+03
2.768316e+03,1.064702e+03
2.771208e+03,1.092272e+03
2.774101e+03,1.072381e+03
2.776994e+03,1.079243e+03
2.779886e+03,1.072344e+03
2.782779e+03,1.077970e+03
2.785672e+03,1.049570e+03
2.788565e+03,1.062774e+03
2.791457e+03,1.073349e+03
2.794350e+03,1.055359e+03
2.797243e+03,1.055952e+03
2.800135e+03,1.052289e+03
2.803028e+03,1.047779e+03
2.805921e+03,1.066291e+03
2.808813e+03,1.063223e+03
2.811706e+03,1.047417e+03
2.814599e+03,1.043592e+03
2.817491e+03,1.063218e+03
2.820384e+03,1.050050e+03
2.823277e+03,1.009158e+03
2.826170e+03,1.040612e+03
2.829062e+03,1.029086e+03
2.831955e+03,1.023863e+03
2.834848e+03,1.024400e+03
2.837740e+03,1.039976e+03
2.840633e+03,1.032210e+03
2.843526e+03,1.036537e+03
2.846419e+03,1.015990e+03
2.849311e+03,1.027213e+03
2.852204e+03,1.049641e+03
2.855097e+03,1.042448e+03
2.857990e+03,1.038713e+03
2.860882e+03,1.038900e+03
2.863775e+03,1.045468e+03
2.866667e+03,1.019230e+03
2.869560e+03,1.039906e+03
2.872453e+03,1.035996e+03
2.875345e+03,1.034210e+03
2.878238e+03,1.041096e+03
2.881131e+03,1.026935e+03
2.884024e+03,1.025091e+03
2.886916e+03,1.020136e+03
2.889809e+03,1.027530e+03
2.892702e+03,1.037469e+03
2.895594e+03,1.045351e+03
2.898487e+03,1.026447e+03
2.901380e+03,1.019746e+03
2.904273e+03,1.023564e+03
2.907165e+03,1.029831e+03
2.910058e+03,1.022247e+03
2.912951e+03,1.023321e+03
2.915844e+03,1.005960e+03
2.918736e+03,9.981025e+02
2.921629e+03,1.008089e+03
2.924521e+03,9.862764e+02
2.927414e+03,9.960070e+02
2.930307e+03,9.807663e+02
2.933199e+03,1.008317e+03
2.936092e+03,9.945056e+02
2.938985e+03,9.529959e+02
2.941878e+03,9.486048e+02
2.944770e+03,9.935907e+02
2.947663e+03,9.793622e+02
2.950556e+03,9.987989e+02
2.953448e+03,9.864604e+02
2.956341e+03,1.000172e+03
2.959234e+03,9.859465e+02
2.962127e+03,9.638514e+02
2.965019e+03,9.534750e+02
2.967912e+03,9.467366e+02
2.970805e+03,9.665692e+02
2.973698e+03,9.412369e+02
2.976590e+03,9.542177e+02
2.979483e+03,9.515477e+02
2.982375e+03,9.776595e+02
2.985268e+03,9.292488e+02
2.988161e+03,9.349504e+02
2.991053e+03,9.403156e+02
2.993946e+03,9.395957e+02
2.996839e+03,9.537411e+02
2.999732e+03,9.445189e+02
3.002624e+03,9.055555e+02
3.005517e+03,9.225615e+02
3.008410e+03,9.134442e+02
3.011302e+03,9.616788e+02
3.014195e+03,9.423751e+02
3.017088e+03,9.237767e+02
3.019981e+03,9.214255e+02
3.022873e+03,9.147918e+02
3.025766e+03,9.235544e+02
3.028659e+03,8.968067e+02
3.031552e+03,9.239648e+02
3.034444e+03,9.275476e+02
3.037337e+03,9.242170e+02
3.040229e+03,9.057081e+02
3.043122e+03,9.039997e+02
3.046015e+03,8.802827e+02
3.048907e+03,8.847307e+02
3.051800e+03,8.699774e+02
3.054693e+03,8.857372e+02
3.057586e+03,9.204910e+02
3.060478e+03,9.065409e+02
3.063371e+03,8.896706e+02
3.066264e+03,9.004824e+02
3.069156e+03,9.107155e+02
3.072049e+03,9.472927e+02
3.074942e+03,9.203694e+02
3.077835e+03,8.864801e+02
3.080727e+03,9.091514e+02
3.083620e+03,8.792436e+02
3.086513e+03,8.910752e+02
3.089406e+03,9.380817e+02
3.092298e+03,9.096484e+02
3.095191e+03,8.941349e+02
3.098083e+03,8.915309e+02
3.100976e+03,8.815421e+02
3.103869e+03,8.952510e+02
3.106761e+03,8.700220e+02
3.109654e+03,8.805345e+02
3.112547e+03,9.045986e+02
3.115440e+03,8.934802e+02
3.118332e+03,9.163561e+02
3.121225e+03,8.807985e+02
3.124118e+03,9.053700e+02
3.127010e+03,8.989538e+02
3.129903e+03,8.809844e+02
3.132796e+03,9.107660e+02
3.135689e+03,9.322613e+02
3.138581e+03,8.938056e+02
3.141474e+03,8.940067e+02
3.144367e+03,8.630948e+02
3.147260e+03,9.065572e+02
3.150152e+03,9.118382e+02
3.153045e+03,9.184548e+02
3.155938e+03,8.784044e+02
3.158830e+03,8.971072e+02
3.161723e+03,9.076592e+02
3.164615e+03,9.244847e+02
3.167508e+03,8.833008e+02
3.170401e+03,9.106953e+02
3.173294e+03,8.540937e+02
3.176186e+03,9.202229e+02
3.179079e+03,9.201539e+02
3.181972e+03,8.981858e+02
3.184865e+03,9.149927e+02
3.187757e+03,8.898099e+02
3.190650e+03,8.958680e+02
3.193543e+03,8.439619e+02
3.196435e+03,9.144478e+02
3.199328e+03,9.274037e+02
3.200292e+03,9.459061e+02