File: RAMAN_data/20012023_r1/black fibre2.CSV
1.995979e+02,3.113668e+03
2.024906e+02,3.135065e+03
2.053833e+02,3.130990e+03
2.082760e+02,3.114993e+03
2.111687e+02,3.132878e+03
2.140614e+02,3.136635e+03
2.169541e+02,3.136426e+03
2.198468e+02,3.134070e+03
2.227395e+02,3.147886e+03
2.256322e+02,3.144818e+03
2.285249e+02,3.146905e+03
2.314176e+02,3.151750e+03
2.343103e+02,3.144083e+03
2.372030e+02,3.159870e+03
2.400957e+02,3.165814e+03
2.429884e+02,3.164827e+03
2.458811e+02,3.158663e+03
2.487738e+02,3.170076e+03
2.516665e+02,3.177975e+03
2.545592e+02,3.176590e+03
2.574519e+02,3.168192e+03
2.603446e+02,3.157217e+03
2.632373e+02,3.184819e+03
2.661300e+02,3.192974e+03
2.690227e+02,3.199919e+03
2.719154e+02,3.191834e+03
2.748081e+02,3.191923e+03
2.777008e+02,3.196222e+03
2.805935e+02,3.200913e+03
2.834862e+02,3.210253e+03
2.863789e+02,3.223969e+03
2.892716e+02,3.224229e+03
2.921643e+02,3.223359e+03
2.950570e+02,3.207412e+03
2.979497e+02,3.213212e+03
3.008424e+02,3.203427e+03
3.037351e+02,3.213177e+03
3.066278e+02,3.197995e+03
3.095205e+02,3.211197e+03
3.124132e+02,3.226904e+03
3.153059e+02,3.229073e+03
3.181986e+02,3.218142e+03
3.210913e+02,3.214294e+03
3.239840e+02,3.224677e+03
3.268767e+02,3.240109e+03
3.297694e+02,3.236908e+03
3.326621e+02,3.223827e+03
3.355548e+02,3.213522e+03
3.384475e+02,3.237229e+03
3.413402e+02,3.235214e+03
3.442329e+02,3.255660e+03
3.471256e+02,3.231578e+03
3.500183e+02,3.243026e+03
3.529110e+02,3.227374e+03
3.558037e+02,3.232042e+03
3.586964e+02,3.248147e+03
3.615891e+02,3.252203e+03
3.644818e+02,3.255739e+03
3.673745e+02,3.243494e+03
3.702672e+02,3.255427e+03
3.731599e+02,3.274727e+03
3.760526e+02,3.271648e+03
3.789453e+02,3.255778e+03
3.818380e+02,3.228480e+03
3.847307e+02,3.242543e+03
3.876234e+02,3.232612e+03
3.905161e+02,3.237764e+03
3.934088e+02,3.240298e+03
3.963015e+02,3.244633e+03
3.991942e+02,3.237733e+03
4.020869e+02,3.230742e+03
4.049796e+02,3.242693e+03
4.078723e+02,3.233506e+03
4.107650e+02,3.239820e+03
4.136577e+02,3.225648e+03
4.165504e+02,3.230582e+03
4.194431e+02,3.219892e+03
4.223358e+02,3.228577e+03
4.252285e+02,3.229190e+03
4.281212e+02,3.248539e+03
4.310139e+02,3.228121e+03
4.339066e+02,3.243669e+03
4.367993e+02,3.246858e+03
4.396920e+02,3.217657e+03
4.425847e+02,3.229621e+03
4.454774e+02,3.230193e+03
4.483701e+02,3.225282e+03
4.512628e+02,3.239084e+03
4.541555e+02,3.237014e+03
4.570482e+02,3.234343e+03
4.599409e+02,3.226097e+03
4.628336e+02,3.212347e+03
4.657263e+02,3.216056e+03
4.686190e+02,3.208492e+03
4.715117e+02,3.217723e+03
4.744044e+02,3.207288e+03
4.772971e+02,3.205620e+03
4.801898e+02,3.228771e+03
4.830825e+02,3.222816e+03
4.859752e+02,3.223038e+03
4.888679e+02,3.228048e+03
4.917606e+02,3.221851e+03
4.946533e+02,3.207366e+03
4.975460e+02,3.203970e+03
5.004387e+02,3.212310e+03
5.033314e+02,3.195397e+03
5.062241e+02,3.187158e+03
5.091168e+02,3.190509e+03
5.120095e+02,3.197484e+03
5.149022e+02,3.216099e+03
5.177949e+02,3.209119e+03
5.206876e+02,3.174054e+03
5.235803e+02,3.177519e+03
5.264730e+02,3.184323e+03
5.293657e+02,3.161835e+03
5.322584e+02,3.162015e+03
5.351511e+02,3.167007e+03
5.380438e+02,3.160008e+03
5.409365e+02,3.147466e+03
5.438292e+02,3.166734e+03
5.467219e+02,3.156979e+03
5.496146e+02,3.140393e+03
5.525073e+02,3.140685e+03
5.554000e+02,3.127851e+03
5.582927e+02,3.153718e+03
5.611854e+02,3.134275e+03
5.640781e+02,3.147460e+03
5.669708e+02,3.146547e+03
5.698635e+02,3.127206e+03
5.727562e+02,3.130698e+03
5.756489e+02,3.118156e+03
5.785416e+02,3.116109e+03
5.814343e+02,3.127159e+03
5.843270e+02,3.114670e+03
5.872197e+02,3.114297e+03
5.901124e+02,3.107106e+03
5.930051e+02,3.118599e+03
5.958978e+02,3.109903e+03
5.987905e+02,3.106123e+03
6.016832e+02,3.101025e+03
6.045759e+02,3.093716e+03
6.074686e+02,3.115669e+03
6.103613e+02,3.098375e+03
6.132540e+02,3.092439e+03
6.161467e+02,3.095772e+03
6.190394e+02,3.101812e+03
6.219321e+02,3.083645e+03
6.248248e+02,3.082203e+03
6.277175e+02,3.081276e+03
6.306102e+02,3.080015e+03
6.335029e+02,3.066940e+03
6.363956e+02,3.066820e+03
6.392883e+02,3.061225e+03
6.421810e+02,3.065449e+03
6.450737e+02,3.039425e+03
6.479664e+02,3.050858e+03
6.508591e+02,3.040018e+03
6.537518e+02,3.054554e+03
6.566445e+02,3.039170e+03
6.595372e+02,3.028511e+03
6.624299e+02,3.020487e+03
6.653226e+02,3.023214e+03
6.682153e+02,3.013846e+03
6.711080e+02,3.017827e+03
6.740007e+02,3.015207e+03
6.768934e+02,3.005197e+03
6.797861e+02,3.000671e+03
6.826788e+02,3.000761e+03
6.855715e+02,3.006741e+03
6.884642e+02,2.999861e+03
6.913569e+02,2.984625e+03
6.942496e+02,3.003361e+03
6.971423e+02,2.990797e+03
7.000350e+02,2.971831e+03
7.029277e+02,2.974445e+03
7.058204e+02,2.969486e+03
7.087131e+02,2.953364e+03
7.116058e+02,2.961602e+03
7.144985e+02,2.977044e+03
7.173912e+02,2.954745e+03
7.202839e+02,2.949014e+03
7.231766e+02,2.946752e+03
7.260693e+02,2.957516e+03
7.289620e+02,2.956272e+03
7.318547e+02,2.924662e+03
7.347474e+02,2.920486e+03
7.376401e+02,2.925824e+03
7.405328e+02,2.920825e+03
7.434255e+02,2.910076e+03
7.463182e+02,2.909427e+03
7.492109e+02,2.906094e+03
7.521036e+02,2.893905e+03
7.549963e+02,2.905725e+03
7.578890e+02,2.893387e+03
7.607817e+02,2.912522e+03
7.636744e+02,2.888746e+03
7.665671e+02,2.877548e+03
7.694598e+02,2.883564e+03
7.723525e+02,2.873496e+03
7.752452e+02,2.863814e+03
7.781379e+02,2.868171e+03
7.810306e+02,2.853480e+03
7.839233e+02,2.837757e+03
7.868160e+02,2.856510e+03
7.897087e+02,2.855070e+03
7.926014e+02,2.852695e+03
7.954941e+02,2.839976e+03
7.983868e+02,2.835163e+03
8.012795e+02,2.834804e+03
8.041722e+02,2.831704e+03
8.070649e+02,2.829298e+03
8.099576e+02,2.825626e+03
8.128503e+02,2.820695e+03
8.157430e+02,2.814493e+03
8.186357e+02,2.801387e+03
8.215284e+02,2.809735e+03
8.244211e+02,2.791346e+03
8.273138e+02,2.792296e+03
8.302065e+02,2.787957e+03
8.330992e+02,2.789836e+03
8.359919e+02,2.789070e+03
8.388846e+02,2.780335e+03
8.417773e+02,2.787020e+03
8.446700e+02,2.756316e+03
8.475627e+02,2.743434e+03
8.504554e+02,2.766693e+03
8.533481e+02,2.750202e+03
8.562408e+02,2.761188e+03
8.591335e+02,2.741708e+03
8.620262e+02,2.735062e+03
8.649189e+02,2.731776e+03
8.678116e+02,2.735075e+03
8.707043e+02,2.729277e+03
8.735970e+02,2.725610e+03
8.764897e+02,2.735042e+03
8.793824e+02,2.706250e+03
8.822751e+02,2.712648e+03
8.851678e+02,2.710229e+03
8.880605e+02,2.703919e+03
8.909532e+02,2.703265e+03
8.938459e+02,2.700676e+03
8.967386e+02,2.691977e+03
8.996313e+02,2.691474e+03
9.025240e+02,2.686692e+03
9.054167e+02,2.673138e+03
9.083094e+02,2.662137e+03
9.112021e+02,2.673030e+03
9.140948e+02,2.657645e+03
9.169875e+02,2.650830e+03
9.198802e+02,2.635554e+03
9.227729e+02,2.644499e+03
9.256656e+02,2.623861e+03
9.285583e+02,2.636481e+03
9.314510e+02,2.637810e+03
9.343438e+02,2.626371e+03
9.372365e+02,2.617191e+03
9.401292e+02,2.608107e+03
9.430219e+02,2.598638e+03
9.459146e+02,2.596447e+03
9.488073e+02,2.609978e+03
9.517000e+02,2.598240e+03
9.545927e+02,2.594745e+03
9.574854e+02,2.588581e+03
9.603781e+02,2.573733e+03
9.632708e+02,2.587333e+03
9.661635e+02,2.571933e+03
9.690562e+02,2.569687e+03
9.719489e+02,2.568636e+03
9.748416e+02,2.571518e+03
9.777343e+02,2.566217e+03
9.806270e+02,2.555535e+03
9.835197e+02,2.546199e+03
9.864124e+02,2.536056e+03
9.893051e+02,2.536847e+03
9.921978e+02,2.527391e+03
9.950905e+02,2.543121e+03
9.979832e+02,2.533909e+03
1.000876e+03,2.511594e+03
1.003769e+03,2.516064e+03
1.006661e+03,2.499786e+03
1.009554e+03,2.507680e+03
1.012447e+03,2.498580e+03
1.015339e+03,2.516664e+03
1.018232e+03,2.493310e+03
1.021125e+03,2.494161e+03
1.024017e+03,2.492628e+03
1.026910e+03,2.476735e+03
1.029803e+03,2.477698e+03
1.032696e+03,2.481021e+03
1.035588e+03,2.471075e+03
1.038481e+03,2.471085e+03
1.041374e+03,2.465622e+03
1.044266e+03,2.443740e+03
1.047159e+03,2.449457e+03
1.050052e+03,2.442942e+03
1.052944e+03,2.453207e+03
1.055837e+03,2.459462e+03
1.058730e+03,2.454391e+03
1.061623e+03,2.436838e+03
1.064515e+03,2.419855e+03
1.067408e+03,2.447396e+03
1.070301e+03,2.437557e+03
1.073193e+03,2.428073e+03
1.076086e+03,2.414520e+03
1.078979e+03,2.416012e+03
1.081871e+03,2.411140e+03
1.084764e+03,2.427747e+03
1.087657e+03,2.447599e+03
1.090550e+03,2.433633e+03
1.093442e+03,2.440327e+03
1.096335e+03,2.426982e+03
1.099228e+03,2.411215e+03
1.102120e+03,2.378954e+03
1.105013e+03,2.388800e+03
1.107906e+03,2.385194e+03
1.110798e+03,2.385790e+03
1.113691e+03,2.389582e+03
1.116584e+03,2.401131e+03
1.119477e+03,2.406685e+03
1.122369e+03,2.398663e+03
1.125262e+03,2.385241e+03
1.128155e+03,2.370873e+03
1.131047e+03,2.373816e+03
1.133940e+03,2.362376e+03
1.136833e+03,2.341062e+03
1.139725e+03,2.333738e+03
1.142618e+03,2.335055e+03
1.145511e+03,2.340842e+03
1.148404e+03,2.331073e+03
1.151296e+03,2.357898e+03
1.154189e+03,2.330859e+03
1.157082e+03,2.311439e+03
1.159974e+03,2.309360e+03
1.162867e+03,2.304917e+03
1.165760e+03,2.294667e+03
1.168652e+03,2.289844e+03
1.171545e+03,2.281160e+03
1.174438e+03,2.269480e+03
1.177331e+03,2.279605e+03
1.180223e+03,2.281917e+03
1.183116e+03,2.272777e+03
1.186009e+03,2.257782e+03
1.188901e+03,2.257621e+03
1.191794e+03,2.258147e+03
1.194687e+03,2.257704e+03
1.197579e+03,2.246076e+03
1.200472e+03,2.225406e+03
1.203365e+03,2.221190e+03
1.206258e+03,2.233391e+03
1.209150e+03,2.228906e+03
1.212043e+03,2.235504e+03
1.214936e+03,2.230808e+03
1.217828e+03,2.222591e+03
1.220721e+03,2.218177e+03
1.223614e+03,2.216656e+03
1.226506e+03,2.206053e+03
1.229399e+03,2.210003e+03
1.232292e+03,2.201782e+03
1.235185e+03,2.185643e+03
1.238077e+03,2.200292e+03
1.240970e+03,2.196987e+03
1.243863e+03,2.190867e+03
1.246755e+03,2.179209e+03
1.249648e+03,2.173604e+03
1.252541e+03,2.176647e+03
1.255433e+03,2.170448e+03
1.258326e+03,2.184050e+03
1.261219e+03,2.168956e+03
1.264112e+03,2.158076e+03
1.267004e+03,2.155222e+03
1.269897e+03,2.167769e+03
1.272790e+03,2.155865e+03
1.275682e+03,2.164358e+03
1.278575e+03,2.164411e+03
1.281468e+03,2.166748e+03
1.284360e+03,2.162067e+03
1.287253e+03,2.152201e+03
1.290146e+03,2.159828e+03
1.293039e+03,2.138644e+03
1.295931e+03,2.122981e+03
1.298824e+03,2.115969e+03
1.301717e+03,2.118454e+03
1.304609e+03,2.117515e+03
1.307502e+03,2.108855e+03
1.310395e+03,2.109479e+03
1.313287e+03,2.098316e+03
1.316180e+03,2.098122e+03
1.319073e+03,2.106925e+03
1.321966e+03,2.101536e+03
1.324858e+03,2.096885e+03
1.327751e+03,2.080908e+03
1.330644e+03,2.091347e+03
1.333536e+03,2.102863e+03
1.336429e+03,2.107632e+03
1.339322e+03,2.096742e+03
1.342214e+03,2.084370e+03
1.345107e+03,2.087967e+03
1.348000e+03,2.081838e+03
1.350893e+03,2.079298e+03
1.353785e+03,2.080907e+03
1.356678e+03,2.061007e+03
1.359571e+03,2.059401e+03
1.362463e+03,2.052637e+03
1.365356e+03,2.062047e+03
1.368249e+03,2.058583e+03
1.371141e+03,2.045467e+03
1.374034e+03,2.065648e+03
1.376927e+03,2.051129e+03
1.379820e+03,2.036557e+03
1.382712e+03,2.031301e+03
1.385605e+03,2.029061e+03
1.388498e+03,2.014534e+03
1.391390e+03,2.014919e+03
1.394283e+03,2.011483e+03
1.397176e+03,2.012365e+03
1.400068e+03,2.006218e+03
1.402961e+03,1.991009e+03
1.405854e+03,1.987298e+03
1.408747e+03,1.999223e+03
1.411639e+03,2.000981e+03
1.414532e+03,1.987932e+03
1.417425e+03,1.989609e+03
1.420317e+03,1.978803e+03
1.423210e+03,1.970375e+03
1.426103e+03,1.979989e+03
1.428995e+03,1.973781e+03
1.431888e+03,1.958953e+03
1.434781e+03,1.934846e+03
1.437674e+03,1.950856e+03
1.440566e+03,1.935941e+03
1.443459e+03,1.935013e+03
1.446352e+03,1.926078e+03
1.449244e+03,1.928326e+03
1.452137e+03,1.924248e+03
1.455030e+03,1.920809e+03
1.457922e+03,1.922375e+03
1.460815e+03,1.925432e+03
1.463708e+03,1.921978e+03
1.466601e+03,1.920867e+03
1.469493e+03,1.912103e+03
1.472386e+03,1.911263e+03
1.475279e+03,1.903345e+03
1.478171e+03,1.896595e+03
1.481064e+03,1.897001e+03
1.483957e+03,1.889213e+03
1.486849e+03,1.889225e+03
1.489742e+03,1.885128e+03
1.492635e+03,1.885315e+03
1.495528e+03,1.888383e+03
1.498420e+03,1.873984e+03
1.501313e+03,1.872959e+03
1.504206e+03,1.876593e+03
1.507098e+03,1.864750e+03
1.509991e+03,1.861747e+03
1.512884e+03,1.855870e+03
1.515776e+03,1.851737e+03
1.518669e+03,1.852104e+03
1.521562e+03,1.830301e+03
1.524455e+03,1.846077e+03
1.527347e+03,1.835450e+03
1.530240e+03,1.834342e+03
1.533133e+03,1.833941e+03
1.536025e+03,1.838857e+03
1.538918e+03,1.814359e+03
1.541811e+03,1.823778e+03
1.544703e+03,1.820410e+03
1.547596e+03,1.823799e+03
1.550489e+03,1.828294e+03
1.553382e+03,1.807677e+03
1.556274e+03,1.810929e+03
1.559167e+03,1.802480e+03
1.562060e+03,1.819290e+03
1.564952e+03,1.811526e+03
1.567845e+03,1.808036e+03
1.570738e+03,1.808060e+03
1.573630e+03,1.803358e+03
1.576523e+03,1.810460e+03
1.579416e+03,1.809488e+03
1.582309e+03,1.791209e+03
1.585201e+03,1.796967e+03
1.588094e+03,1.802294e+03
1.590987e+03,1.780703e+03
1.593879e+03,1.778829e+03
1.596772e+03,1.765985e+03
1.599665e+03,1.768008e+03
1.602557e+03,1.757884e+03
1.605450e+03,1.758096e+03
1.608343e+03,1.754324e+03
1.611236e+03,1.751882e+03
1.614128e+03,1.741667e+03
1.617021e+03,1.748819e+03
1.619914e+03,1.736236e+03
1.622806e+03,1.727962e+03
1.625699e+03,1.742758e+03
1.628592e+03,1.731252e+03
1.631484e+03,1.720730e+03
1.634377e+03,1.716082e+03
1.637270e+03,1.713887e+03
1.640163e+03,1.712349e+03
1.643055e+03,1.713218e+03
1.645948e+03,1.702891e+03
1.648841e+03,1.693199e+03
1.651733e+03,1.704056e+03
1.654626e+03,1.692135e+03
1.657519e+03,1.688073e+03
1.660411e+03,1.685276e+03
1.663304e+03,1.686281e+03
1.666197e+03,1.678039e+03
1.669090e+03,1.674117e+03
1.671982e+03,1.673973e+03
1.674875e+03,1.668203e+03
1.677768e+03,1.667173e+03
1.680660e+03,1.663849e+03
1.683553e+03,1.642230e+03
1.686446e+03,1.651454e+03
1.689339e+03,1.662088e+03
1.692231e+03,1.642718e+03
1.695124e+03,1.653452e+03
1.698017e+03,1.638460e+03
1.700909e+03,1.640293e+03
1.703802e+03,1.637372e+03
1.706695e+03,1.625953e+03
1.709587e+03,1.627773e+03
1.712480e+03,1.628197e+03
1.715373e+03,1.613641e+03
1.718266e+03,1.621577e+03
1.721158e+03,1.628169e+03
1.724051e+03,1.620368e+03
1.726944e+03,1.592393e+03
1.729836e+03,1.605580e+03
1.732729e+03,1.603651e+03
1.735622e+03,1.601516e+03
1.738514e+03,1.594901e+03
1.741407e+03,1.588380e+03
1.744300e+03,1.595701e+03
1.747193e+03,1.584898e+03
1.750085e+03,1.577985e+03
1.752978e+03,1.567878e+03
1.755871e+03,1.585140e+03
1.758763e+03,1.566690e+03
1.761656e+03,1.561784e+03
1.764549e+03,1.566414e+03
1.767441e+03,1.559616e+03
1.770334e+03,1.572329e+03
1.773227e+03,1.560934e+03
1.776120e+03,1.562508e+03
1.779012e+03,1.561721e+03
1.781905e+03,1.532995e+03
1.784798e+03,1.556346e+03
1.787690e+03,1.528728e+03
1.790583e+03,1.519931e+03
1.793476e+03,1.529059e+03
1.796368e+03,1.524729e+03
1.799261e+03,1.521729e+03
1.802154e+03,1.521972e+03
1.805047e+03,1.516904e+03
1.807939e+03,1.517764e+03
1.810832e+03,1.518264e+03
1.813725e+03,1.513840e+03
1.816617e+03,1.504614e+03
1.819510e+03,1.503963e+03
1.822403e+03,1.496935e+03
1.825295e+03,1.486640e+03
1.828188e+03,1.483316e+03
1.831081e+03,1.503519e+03
1.833974e+03,1.482717e+03
1.836866e+03,1.480562e+03
1.839759e+03,1.470639e+03
1.842652e+03,1.468321e+03
1.845544e+03,1.468888e+03
1.848437e+03,1.473181e+03
1.851330e+03,1.457904e+03
1.854222e+03,1.453889e+03
1.857115e+03,1.448950e+03
1.860008e+03,1.454904e+03
1.862901e+03,1.462129e+03
1.865793e+03,1.421616e+03
1.868686e+03,1.425947e+03
1.871579e+03,1.431683e+03
1.874471e+03,1.434021e+03
1.877364e+03,1.433291e+03
1.880257e+03,1.425139e+03
1.883149e+03,1.423503e+03
1.886042e+03,1.412182e+03
1.888935e+03,1.402505e+03
1.891828e+03,1.410999e+03
1.894720e+03,1.408212e+03
1.897613e+03,1.416312e+03
1.900506e+03,1.378170e+03
1.903398e+03,1.391365e+03
1.906291e+03,1.390242e+03
1.909184e+03,1.397138e+03
1.912076e+03,1.375840e+03
1.914969e+03,1.372908e+03
1.917862e+03,1.358556e+03
1.920755e+03,1.364426e+03
1.923647e+03,1.365171e+03
1.926540e+03,1.369036e+03
1.929433e+03,1.357773e+03
1.932325e+03,1.335657e+03
1.935218e+03,1.360559e+03
1.938111e+03,1.354177e+03
1.941003e+03,1.348076e+03
1.943896e+03,1.346313e+03
1.946789e+03,1.341443e+03
1.949682e+03,1.340036e+03
1.952574e+03,1.338829e+03
1.955467e+03,1.329853e+03
1.958360e+03,1.340167e+03
1.961252e+03,1.324360e+03
1.964145e+03,1.326014e+03
1.967038e+03,1.321207e+03
1.969930e+03,1.316838e+03
1.972823e+03,1.307596e+03
1.975716e+03,1.297470e+03
1.978609e+03,1.324212e+03
1.981501e+03,1.298351e+03
1.984394e+03,1.299091e+03
1.987287e+03,1.296228e+03
1.990179e+03,1.281856e+03
1.993072e+03,1.281791e+03
1.995965e+03,1.285274e+03
1.998857e+03,1.273758e+03
2.001750e+03,1.269426e+03
2.004643e+03,1.273240e+03
2.007536e+03,1.270388e+03
2.010428e+03,1.257772e+03
2.013321e+03,1.255488e+03
2.016214e+03,1.246524e+03
2.019106e+03,1.234444e+03
2.021999e+03,1.249383e+03
2.024892e+03,1.247919e+03
2.027784e+03,1.251501e+03
2.030677e+03,1.224598e+03
2.033570e+03,1.248442e+03
2.036463e+03,1.232365e+03
2.039355e+03,1.233190e+03
2.042248e+03,1.213597e+03
2.045141e+03,1.223460e+03
2.048033e+03,1.207307e+03
2.050926e+03,1.210918e+03
2.053819e+03,1.201908e+03
2.056711e+03,1.206803e+03
2.059604e+03,1.198967e+03
2.062497e+03,1.190560e+03
2.065390e+03,1.190542e+03
2.068282e+03,1.190176e+03
2.071175e+03,1.185472e+03
2.074068e+03,1.176127e+03
2.076960e+03,1.184569e+03
2.079853e+03,1.178247e+03
2.082746e+03,1.163884e+03
2.085638e+03,1.158654e+03
2.088531e+03,1.185274e+03
2.091424e+03,1.170533e+03
2.094316e+03,1.157523e+03
2.097209e+03,1.147869e+03
2.100102e+03,1.140498e+03
2.102995e+03,1.156319e+03
2.105887e+03,1.147164e+03
2.108780e+03,1.153781e+03
2.111673e+03,1.141945e+03
2.114565e+03,1.143663e+03
2.117458e+03,1.118498e+03
2.120351e+03,1.140344e+03
2.123244e+03,1.146090e+03
2.126136e+03,1.128499e+03
2.129029e+03,1.109015e+03
2.131922e+03,1.133331e+03
2.134814e+03,1.113189e+03
2.137707e+03,1.109606e+03
2.140600e+03,1.103261e+03
2.143492e+03,1.096635e+03
2.146385e+03,1.095022e+03
2.149278e+03,1.092926e+03
2.152170e+03,1.089041e+03
2.155063e+03,1.078440e+03
2.157956e+03,1.080433e+03
2.160849e+03,1.083498e+03
2.163741e+03,1.078306e+03
2.166634e+03,1.072697e+03
2.169527e+03,1.071426e+03
2.172419e+03,1.065176e+03
2.175312e+03,1.061387e+03
2.178205e+03,1.063785e+03
2.181098e+03,1.047458e+03
2.183990e+03,1.053199e+03
2.186883e+03,1.062001e+03
2.189776e+03,1.064915e+03
2.192668e+03,1.042105e+03
2.195561e+03,1.040687e+03
2.198454e+03,1.036469e+03
2.201346e+03,1.036197e+03
2.204239e+03,1.037217e+03
2.207132e+03,1.031026e+03
2.210024e+03,1.014548e+03
2.212917e+03,1.015490e+03
2.215810e+03,1.021091e+03
2.218703e+03,1.013981e+03
2.221595e+03,1.014960e+03
2.224488e+03,9.975696e+02
2.227381e+03,9.973393e+02
2.230273e+03,1.011008e+03
2.233166e+03,9.970284e+02
2.236059e+03,9.928121e+02
2.238952e+03,9.891972e+02
2.241844e+03,9.914442e+02
2.244737e+03,9.786361e+02
2.247630e+03,9.753063e+02
2.250522e+03,9.790204e+02
2.253415e+03,9.965855e+02
2.256308e+03,9.780511e+02
2.259200e+03,9.603393e+02
2.262093e+03,9.704901e+02
2.264986e+03,9.521800e+02
2.267879e+03,9.627687e+02
2.270771e+03,9.450073e+02
2.273664e+03,9.453556e+02
2.276557e+03,9.544932e+02
2.279449e+03,9.446086e+02
2.282342e+03,9.384969e+02
2.285235e+03,9.455074e+02
2.288127e+03,9.416921e+02
2.291020e+03,9.242170e+02
2.293913e+03,9.361265e+02
2.296805e+03,9.369519e+02
2.299698e+03,9.258992e+02
2.302591e+03,9.253495e+02
2.305484e+03,9.278611e+02
2.308376e+03,9.250550e+02
2.311269e+03,9.237819e+02
2.314162e+03,9.009915e+02
2.317054e+03,9.103799e+02
2.319947e+03,9.227672e+02
2.322840e+03,9.063281e+02
2.325733e+03,9.038026e+02
2.328625e+03,8.973746e+02
2.331518e+03,9.093976e+02
2.334411e+03,8.874895e+02
2.337303e+03,9.035709e+02
2.340196e+03,8.843708e+02
2.343089e+03,8.893428e+02
2.345981e+03,8.954437e+02
2.348874e+03,8.789697e+02
2.351767e+03,8.695672e+02
2.354659e+03,8.757346e+02
2.357552e+03,8.804955e+02
2.360445e+03,8.828190e+02
2.363338e+03,8.557748e+02
2.366230e+03,8.736661e+02
2.369123e+03,8.612352e+02
2.372016e+03,8.585473e+02
2.374908e+03,8.554940e+02
2.377801e+03,8.559681e+02
2.380694e+03,8.468577e+02
2.383587e+03,8.415651e+02
2.386479e+03,8.520072e+02
2.389372e+03,8.417957e+02
2.392265e+03,8.377784e+02
2.395157e+03,8.405201e+02
2.398050e+03,8.245634e+02
2.400943e+03,8.221881e+02
2.403835e+03,8.277025e+02
2.406728e+03,8.256068e+02
2.409621e+03,8.286367e+02
2.412513e+03,8.162444e+02
2.415406e+03,8.257640e+02
2.418299e+03,8.198153e+02
2.421192e+03,8.114794e+02
2.424084e+03,8.111409e+02
2.426977e+03,8.034315e+02
2.429870e+03,8.114719e+02
2.432762e+03,8.094307e+02
2.435655e+03,8.054411e+02
2.438548e+03,8.016129e+02
2.441441e+03,7.952656e+02
2.444333e+03,7.845313e+02
2.447226e+03,8.007963e+02
2.450119e+03,7.940565e+02
2.453011e+03,7.832391e+02
2.455904e+03,7.859357e+02
2.458797e+03,7.707156e+02
2.461689e+03,8.044016e+02
2.464582e+03,7.796505e+02
2.467475e+03,7.841940e+02
2.470367e+03,7.689948e+02
2.473260e+03,7.713632e+02
2.476153e+03,7.792127e+02
2.479046e+03,7.738824e+02
2.481938e+03,7.575506e+02
2.484831e+03,7.571354e+02
2.487724e+03,7.564795e+02
2.490616e+03,7.627121e+02
2.493509e+03,7.569724e+02
2.496402e+03,7.491735e+02
2.499295e+03,7.622299e+02
2.502187e+03,7.564586e+02
2.505080e+03,7.468881e+02
2.507973e+03,7.397118e+02
2.510865e+03,7.520861e+02
2.513758e+03,7.312722e+02
2.516651e+03,7.452005e+02
2.519543e+03,7.424246e+02
2.522436e+03,7.418958e+02
2.525329e+03,7.218254e+02
2.528221e+03,7.371476e+02
2.531114e+03,7.341996e+02
2.534007e+03,7.293055e+02
2.536900e+03,7.354606e+02
2.539792e+03,7.187831e+02
2.542685e+03,7.335892e+02
2.545578e+03,7.252298e+02
2.548470e+03,7.272877e+02
2.551363e+03,7.286619e+02
2.554256e+03,7.187077e+02
2.557149e+03,7.345714e+02
2.560041e+03,7.139385e+02
2.562934e+03,7.131750e+02
2.565827e+03,7.087157e+02
2.568719e+03,7.136389e+02
2.571612e+03,7.153546e+02
2.574505e+03,6.906738e+02
2.577397e+03,7.130179e+02
2.580290e+03,6.985296e+02
2.583183e+03,7.026864e+02
2.586075e+03,6.956775e+02
2.588968e+03,6.828058e+02
2.591861e+03,6.952255e+02
2.594754e+03,6.804435e+02
2.597646e+03,6.886749e+02
2.600539e+03,6.870419e+02
2.603432e+03,6.752225e+02
2.606324e+03,6.930865e+02
2.609217e+03,6.704736e+02
2.612110e+03,6.782119e+02
2.615003e+03,6.691042e+02
2.617895e+03,6.656940e+02
2.620788e+03,6.787736e+02
2.623681e+03,6.637805e+02
2.626573e+03,6.690184e+02
2.629466e+03,6.597680e+02
2.632359e+03,6.670313e+02
2.635251e+03,6.697377e+02
2.638144e+03,6.617573e+02
2.641037e+03,6.539603e+02
2.643929e+03,6.675289e+02
2.646822e+03,6.577454e+02
2.649715e+03,6.539082e+02
2.652608e+03,6.529611e+02
2.655500e+03,6.586710e+02
2.658393e+03,6.380088e+02
2.661286e+03,6.442560e+02
2.664178e+03,6.448779e+02
2.667071e+03,6.410817e+02
2.669964e+03,6.514565e+02
2.672857e+03,6.421482e+02
2.675749e+03,6.435330e+02
2.678642e+03,6.369600e+02
2.681535e+03,6.435861e+02
2.684427e+03,6.429338e+02
2.687320e+03,6.236235e+02
2.690213e+03,6.176523e+02
2.693105e+03,6.303871e+02
2.695998e+03,6.093052e+02
2.698891e+03,6.403626e+02
2.701783e+03,6.295318e+02
2.704676e+03,6.242916e+02
2.707569e+03,6.402531e+02
2.710462e+03,6.217252e+02
2.713354e+03,6.312147e+02
2.716247e+03,6.242576e+02
2.719140e+03,6.213490e+02
2.722032e+03,5.983700e+02
2.724925e+03,6.265078e+02
2.727818e+03,6.101560e+02
2.730711e+03,6.159327e+02
2.733603e+03,6.152519e+02
2.736496e+03,6.114691e+02
2.739389e+03,6.031359e+02
2.742281e+03,6.068009e+02
2.745174e+03,6.158954e+02
2.748067e+03,6.130096e+02
2.750959e+03,6.177677e+02
2.753852e+03,5.894753e+02
2.756745e+03,6.145709e+02
2.759637e+03,5.862879e+02
2.762530e+03,6.075167e+02
2.765423e+03,6.081583e+02
2.768316e+03,5.868389e+02
2.771208e+03,5.834928e+02
2.774101e+03,5.934977e+02
2.776994e+03,5.805980e+02
2.779886e+03,5.978918e+02
2.782779e+03,5.808037e+02
2.785672e+03,5.833604e+02
2.788565e+03,5.810361e+02
2.791457e+03,5.946627e+02
2.794350e+03,5.747088e+02
2.797243e+03,5.848033e+02
2.800135e+03,5.758170e+02
2.803028e+03,5.778494e+02
2.805921e+03,5.800829e+02
2.808813e+03,5.673492e+02
2.811706e+03,5.852436e+02
2.814599e+03,5.892856e+02
2.817491e+03,5.842125e+02
2.820384e+03,5.827112e+02
2.823277e+03,5.912961e+02
2.826170e+03,5.814633e+02
2.829062e+03,5.768406e+02
2.831955e+03,5.914675e+02
2.834848e+03,5.751982e+02
2.837740e+03,5.832952e+02
2.840633e+03,5.823329e+02
2.843526e+03,5.826891e+02
2.846419e+03,5.845310e+02
2.849311e+03,5.742819e+02
2.852204e+03,5.589089e+02
2.855097e+03,5.750844e+02
2.857990e+03,5.852272e+02
2.860882e+03,5.862591e+02
2.863775e+03,5.896710e+02
2.866667e+03,5.739227e+02
2.869560e+03,5.910944e+02
2.872453e+03,5.830303e+02
2.875345e+03,5.837339e+02
2.878238e+03,5.997369e+02
2.881131e+03,5.767495e+02
2.884024e+03,6.079965e+02
2.886916e+03,5.790198e+02
2.889809e+03,5.917984e+02
2.892702e+03,6.184180e+02
2.895594e+03,5.874325e+02
2.898487e+03,5.927545e+02
2.901380e+03,5.868438e+02
2.904273e+03,6.027530e+02
2.907165e+03,5.940527e+02
2.910058e+03,5.813035e+02
2.912951e+03,5.656795e+02
2.915844e+03,5.989418e+02
2.918736e+03,5.734576e+02
2.921629e+03,5.688976e+02
2.924521e+03,5.697203e+02
2.927414e+03,5.807927e+02
2.930307e+03,5.778060e+02
2.933199e+03,5.421985e+02
2.936092e+03,5.541984e+02
2.938985e+03,5.554156e+02
2.941878e+03,5.576688e+02
2.944770e+03,5.446458e+02
2.947663e+03,5.444410e+02
2.950556e+03,5.446304e+02
2.953448e+03,5.558383e+02
2.956341e+03,5.593741e+02
2.959234e+03,5.633745e+02
2.962127e+03,5.384854e+02
2.965019e+03,5.319648e+02
2.967912e+03,5.356052e+02
2.970805e+03,5.298170e+02
2.973698e+03,5.221100e+02
2.976590e+03,5.454307e+02
2.979483e+03,5.013243e+02
2.982375e+03,5.430139e+02
2.985268e+03,5.401206e+02
2.988161e+03,4.915447e+02
2.991053e+03,5.377604e+02
2.993946e+03,5.088345e+02
2.996839e+03,5.234494e+02
2.999732e+03,5.156824e+02
3.002624e+03,5.340319e+02
3.005517e+03,5.169412e+02
3.008410e+03,5.135600e+02
3.011302e+03,5.194362e+02
3.014195e+03,5.038688e+02
3.017088e+03,5.089205e+02
3.019981e+03,5.132788e+02
3.022873e+03,5.085571e+02
3.025766e+03,4.841417e+02
3.028659e+03,5.173973e+02
3.031552e+03,4.934784e+02
3.034444e+03,5.037286e+02
3.037337e+03,4.886949e+02
3.040229e+03,4.875795e+02
3.043122e+03,4.839010e+02
3.046015e+03,4.952541e+02
3.048907e+03,5.085025e+02
3.051800e+03,5.005284e+02
3.054693e+03,5.276892e+02
3.057586e+03,5.095233e+02
3.060478e+03,5.062985e+02
3.063371e+03,4.879832e+02
3.066264e+03,5.084810e+02
3.069156e+03,5.147042e+02
3.072049e+03,5.050643e+02
3.074942e+03,4.750044e+02
3.077835e+03,4.883808e+02
3.080727e+03,4.810425e+02
3.083620e+03,4.915894e+02
3.086513e+03,4.692026e+02
3.089406e+03,5.032003e+02
3.092298e+03,4.804393e+02
3.095191e+03,5.114599e+02
3.098083e+03,4.938557e+02
3.100976e+03,4.783355e+02
3.103869e+03,4.860670e+02
3.106761e+03,4.818681e+02
3.109654e+03,5.047181e+02
3.112547e+03,4.913730e+02
3.115440e+03,4.845975e+02
3.118332e+03,4.923954e+02
3.121225e+03,5.190778e+02
3.124118e+03,5.123195e+02
3.127010e+03,4.757190e+02
3.129903e+03,4.855034e+02
3.132796e+03,4.729449e+02
3.135689e+03,4.647549e+02
3.138581e+03,4.945453e+02
3.141474e+03,4.896621e+02
3.144367e+03,5.070274e+02
3.147260e+03,4.703984e+02
3.150152e+03,4.957162e+02
3.153045e+03,4.903344e+02
3.155938e+03,4.856171e+02
3.158830e+03,4.840789e+02
3.161723e+03,4.854994e+02
3.164615e+03,5.124004e+02
3.167508e+03,4.633564e+02
3.170401e+03,5.050127e+02
3.173294e+03,4.827710e+02
3.176186e+03,4.714902e+02
3.179079e+03,5.158486e+02
3.181972e+03,5.208477e+02
3.184865e+03,4.891171e+02
3.187757e+03,5.132186e+02
3.190650e+03,4.849336e+02
3.193543e+03,4.979648e+02
3.196435e+03,5.011054e+02
3.199328e+03,5.116981e+02
3.200292e+03,5.027825e+02