File: RAMAN_data/20012023_r1/black fibre5.CSV
1.995979e+02,3.575572e+03
2.024906e+02,3.572454e+03
2.053833e+02,3.597638e+03
2.082760e+02,3.599385e+03
2.111687e+02,3.595781e+03
2.140614e+02,3.604623e+03
2.169541e+02,3.608844e+03
2.198468e+02,3.603572e+03
2.227395e+02,3.610334e+03
2.256322e+02,3.599294e+03
2.285249e+02,3.613193e+03
2.314176e+02,3.636583e+03
2.343103e+02,3.620521e+03
2.372030e+02,3.646058e+03
2.400957e+02,3.634852e+03
2.429884e+02,3.632161e+03
2.458811e+02,3.656621e+03
2.487738e+02,3.654707e+03
2.516665e+02,3.646923e+03
2.545592e+02,3.649477e+03
2.574519e+02,3.661373e+03
2.603446e+02,3.671480e+03
2.632373e+02,3.670182e+03
2.661300e+02,3.678527e+03
2.690227e+02,3.669014e+03
2.719154e+02,3.682773e+03
2.748081e+02,3.669141e+03
2.777008e+02,3.675338e+03
2.805935e+02,3.672505e+03
2.834862e+02,3.680707e+03
2.863789e+02,3.689115e+03
2.892716e+02,3.693525e+03
2.921643e+02,3.695331e+03
2.950570e+02,3.681314e+03
2.979497e+02,3.697644e+03
3.008424e+02,3.680769e+03
3.037351e+02,3.687813e+03
3.066278e+02,3.709669e+03
3.095205e+02,3.710807e+03
3.124132e+02,3.720104e+03
3.153059e+02,3.722555e+03
3.181986e+02,3.710216e+03
3.210913e+02,3.705221e+03
3.239840e+02,3.706497e+03
3.268767e+02,3.719566e+03
3.297694e+02,3.721942e+03
3.326621e+02,3.712988e+03
3.355548e+02,3.732179e+03
3.384475e+02,3.724848e+03
3.413402e+02,3.714511e+03
3.442329e+02,3.730059e+03
3.471256e+02,3.747912e+03
3.500183e+02,3.721828e+03
3.529110e+02,3.719284e+03
3.558037e+02,3.728336e+03
3.586964e+02,3.730408e+03
3.615891e+02,3.742476e+03
3.644818e+02,3.733661e+03
3.673745e+02,3.726035e+03
3.702672e+02,3.747673e+03
3.731599e+02,3.765891e+03
3.760526e+02,3.756060e+03
3.789453e+02,3.764223e+03
3.818380e+02,3.752581e+03
3.847307e+02,3.745356e+03
3.876234e+02,3.746783e+03
3.905161e+02,3.729901e+03
3.934088e+02,3.723773e+03
3.963015e+02,3.719054e+03
3.991942e+02,3.722730e+03
4.020869e+02,3.737594e+03
4.049796e+02,3.727198e+03
4.078723e+02,3.731179e+03
4.107650e+02,3.727152e+03
4.136577e+02,3.718385e+03
4.165504e+02,3.725662e+03
4.194431e+02,3.719618e+03
4.223358e+02,3.719786e+03
4.252285e+02,3.717842e+03
4.281212e+02,3.720866e+03
4.310139e+02,3.724801e+03
4.339066e+02,3.728563e+03
4.367993e+02,3.731821e+03
4.396920e+02,3.723017e+03
4.425847e+02,3.720570e+03
4.454774e+02,3.709507e+03
4.483701e+02,3.718568e+03
4.512628e+02,3.706213e+03
4.541555e+02,3.708089e+03
4.570482e+02,3.705661e+03
4.599409e+02,3.718113e+03
4.628336e+02,3.716822e+03
4.657263e+02,3.699849e+03
4.686190e+02,3.700483e+03
4.715117e+02,3.714947e+03
4.744044e+02,3.702559e+03
4.772971e+02,3.699220e+03
4.801898e+02,3.733289e+03
4.830825e+02,3.752037e+03
4.859752e+02,3.755802e+03
4.888679e+02,3.746917e+03
4.917606e+02,3.726231e+03
4.946533e+02,3.704587e+03
4.975460e+02,3.702083e+03
5.004387e+02,3.698599e+03
5.033314e+02,3.693694e+03
5.062241e+02,3.689380e+03
5.091168e+02,3.666213e+03
5.120095e+02,3.667112e+03
5.149022e+02,3.683364e+03
5.177949e+02,3.660126e+03
5.206876e+02,3.648007e+03
5.235803e+02,3.671476e+03
5.264730e+02,3.665222e+03
5.293657e+02,3.653551e+03
5.322584e+02,3.646382e+03
5.351511e+02,3.645210e+03
5.380438e+02,3.631132e+03
5.409365e+02,3.644468e+03
5.438292e+02,3.646998e+03
5.467219e+02,3.650119e+03
5.496146e+02,3.647529e+03
5.525073e+02,3.625373e+03
5.554000e+02,3.630147e+03
5.582927e+02,3.624834e+03
5.611854e+02,3.611583e+03
5.640781e+02,3.599662e+03
5.669708e+02,3.626397e+03
5.698635e+02,3.612108e+03
5.727562e+02,3.590778e+03
5.756489e+02,3.611366e+03
5.785416e+02,3.600234e+03
5.814343e+02,3.604762e+03
5.843270e+02,3.584653e+03
5.872197e+02,3.583483e+03
5.901124e+02,3.610025e+03
5.930051e+02,3.578592e+03
5.958978e+02,3.586651e+03
5.987905e+02,3.581896e+03
6.016832e+02,3.579696e+03
6.045759e+02,3.595579e+03
6.074686e+02,3.581030e+03
6.103613e+02,3.571774e+03
6.132540e+02,3.568403e+03
6.161467e+02,3.556069e+03
6.190394e+02,3.554898e+03
6.219321e+02,3.541478e+03
6.248248e+02,3.549284e+03
6.277175e+02,3.534773e+03
6.306102e+02,3.538681e+03
6.335029e+02,3.542162e+03
6.363956e+02,3.533867e+03
6.392883e+02,3.526924e+03
6.421810e+02,3.505389e+03
6.450737e+02,3.543093e+03
6.479664e+02,3.516488e+03
6.508591e+02,3.542246e+03
6.537518e+02,3.526616e+03
6.566445e+02,3.517692e+03
6.595372e+02,3.497238e+03
6.624299e+02,3.501648e+03
6.653226e+02,3.495815e+03
6.682153e+02,3.489991e+03
6.711080e+02,3.475681e+03
6.740007e+02,3.471928e+03
6.768934e+02,3.489903e+03
6.797861e+02,3.481898e+03
6.826788e+02,3.458457e+03
6.855715e+02,3.487486e+03
6.884642e+02,3.456409e+03
6.913569e+02,3.450266e+03
6.942496e+02,3.467045e+03
6.971423e+02,3.457005e+03
7.000350e+02,3.450487e+03
7.029277e+02,3.422843e+03
7.058204e+02,3.424235e+03
7.087131e+02,3.423906e+03
7.116058e+02,3.438012e+03
7.144985e+02,3.423176e+03
7.173912e+02,3.430343e+03
7.202839e+02,3.424098e+03
7.231766e+02,3.419935e+03
7.260693e+02,3.418039e+03
7.289620e+02,3.405327e+03
7.318547e+02,3.397677e+03
7.347474e+02,3.391401e+03
7.376401e+02,3.390388e+03
7.405328e+02,3.388236e+03
7.434255e+02,3.376634e+03
7.463182e+02,3.375582e+03
7.492109e+02,3.385207e+03
7.521036e+02,3.364577e+03
7.549963e+02,3.363323e+03
7.578890e+02,3.354362e+03
7.607817e+02,3.365643e+03
7.636744e+02,3.350713e+03
7.665671e+02,3.343058e+03
7.694598e+02,3.346177e+03
7.723525e+02,3.320908e+03
7.752452e+02,3.319953e+03
7.781379e+02,3.323400e+03
7.810306e+02,3.331919e+03
7.839233e+02,3.305797e+03
7.868160e+02,3.327489e+03
7.897087e+02,3.299609e+03
7.926014e+02,3.313086e+03
7.954941e+02,3.298718e+03
7.983868e+02,3.312029e+03
8.012795e+02,3.294076e+03
8.041722e+02,3.277919e+03
8.070649e+02,3.266699e+03
8.099576e+02,3.277107e+03
8.128503e+02,3.276676e+03
8.157430e+02,3.274203e+03
8.186357e+02,3.261351e+03
8.215284e+02,3.245831e+03
8.244211e+02,3.254260e+03
8.273138e+02,3.260238e+03
8.302065e+02,3.247124e+03
8.330992e+02,3.254573e+03
8.359919e+02,3.259220e+03
8.388846e+02,3.234566e+03
8.417773e+02,3.228463e+03
8.446700e+02,3.222842e+03
8.475627e+02,3.232918e+03
8.504554e+02,3.219564e+03
8.533481e+02,3.220502e+03
8.562408e+02,3.202768e+03
8.591335e+02,3.202960e+03
8.620262e+02,3.187773e+03
8.649189e+02,3.176174e+03
8.678116e+02,3.194624e+03
8.707043e+02,3.193976e+03
8.735970e+02,3.171581e+03
8.764897e+02,3.173931e+03
8.793824e+02,3.170728e+03
8.822751e+02,3.169924e+03
8.851678e+02,3.183394e+03
8.880605e+02,3.180827e+03
8.909532e+02,3.168430e+03
8.938459e+02,3.126172e+03
8.967386e+02,3.162828e+03
8.996313e+02,3.140736e+03
9.025240e+02,3.140784e+03
9.054167e+02,3.148212e+03
9.083094e+02,3.123760e+03
9.112021e+02,3.122566e+03
9.140948e+02,3.117206e+03
9.169875e+02,3.113500e+03
9.198802e+02,3.096046e+03
9.227729e+02,3.085247e+03
9.256656e+02,3.089181e+03
9.285583e+02,3.083931e+03
9.314510e+02,3.108753e+03
9.343438e+02,3.090851e+03
9.372365e+02,3.069859e+03
9.401292e+02,3.054665e+03
9.430219e+02,3.058880e+03
9.459146e+02,3.063997e+03
9.488073e+02,3.079397e+03
9.517000e+02,3.061140e+03
9.545927e+02,3.043175e+03
9.574854e+02,3.019922e+03
9.603781e+02,3.030066e+03
9.632708e+02,3.029512e+03
9.661635e+02,3.029387e+03
9.690562e+02,3.024082e+03
9.719489e+02,3.001550e+03
9.748416e+02,3.013231e+03
9.777343e+02,3.012707e+03
9.806270e+02,2.988435e+03
9.835197e+02,2.992211e+03
9.864124e+02,2.990651e+03
9.893051e+02,2.982708e+03
9.921978e+02,2.985823e+03
9.950905e+02,3.003562e+03
9.979832e+02,2.982649e+03
1.000876e+03,2.975715e+03
1.003769e+03,2.971901e+03
1.006661e+03,2.986159e+03
1.009554e+03,2.964801e+03
1.012447e+03,2.953436e+03
1.015339e+03,2.950247e+03
1.018232e+03,2.932141e+03
1.021125e+03,2.945818e+03
1.024017e+03,2.948633e+03
1.026910e+03,2.937703e+03
1.029803e+03,2.942642e+03
1.032696e+03,2.937659e+03
1.035588e+03,2.942607e+03
1.038481e+03,2.935701e+03
1.041374e+03,2.911346e+03
1.044266e+03,2.907203e+03
1.047159e+03,2.904245e+03
1.050052e+03,2.901062e+03
1.052944e+03,2.894059e+03
1.055837e+03,2.900531e+03
1.058730e+03,2.892955e+03
1.061623e+03,2.884530e+03
1.064515e+03,2.878817e+03
1.067408e+03,2.869662e+03
1.070301e+03,2.886402e+03
1.073193e+03,2.883449e+03
1.076086e+03,2.885188e+03
1.078979e+03,2.852390e+03
1.081871e+03,2.875927e+03
1.084764e+03,2.877318e+03
1.087657e+03,2.898878e+03
1.090550e+03,2.881137e+03
1.093442e+03,2.888382e+03
1.096335e+03,2.870989e+03
1.099228e+03,2.863973e+03
1.102120e+03,2.847976e+03
1.105013e+03,2.854172e+03
1.107906e+03,2.849988e+03
1.110798e+03,2.868596e+03
1.113691e+03,2.848760e+03
1.116584e+03,2.874955e+03
1.119477e+03,2.873911e+03
1.122369e+03,2.877421e+03
1.125262e+03,2.875446e+03
1.128155e+03,2.867144e+03
1.131047e+03,2.863512e+03
1.133940e+03,2.850646e+03
1.136833e+03,2.844928e+03
1.139725e+03,2.837643e+03
1.142618e+03,2.850762e+03
1.145511e+03,2.842563e+03
1.148404e+03,2.858823e+03
1.151296e+03,2.848937e+03
1.154189e+03,2.847944e+03
1.157082e+03,2.824993e+03
1.159974e+03,2.810921e+03
1.162867e+03,2.780757e+03
1.165760e+03,2.768656e+03
1.168652e+03,2.770024e+03
1.171545e+03,2.767971e+03
1.174438e+03,2.774270e+03
1.177331e+03,2.775112e+03
1.180223e+03,2.759563e+03
1.183116e+03,2.776896e+03
1.186009e+03,2.749679e+03
1.188901e+03,2.753673e+03
1.191794e+03,2.754031e+03
1.194687e+03,2.739519e+03
1.197579e+03,2.733450e+03
1.200472e+03,2.739480e+03
1.203365e+03,2.720930e+03
1.206258e+03,2.714426e+03
1.209150e+03,2.742013e+03
1.212043e+03,2.735619e+03
1.214936e+03,2.717078e+03
1.217828e+03,2.708453e+03
1.220721e+03,2.706256e+03
1.223614e+03,2.700977e+03
1.226506e+03,2.697180e+03
1.229399e+03,2.710341e+03
1.232292e+03,2.705792e+03
1.235185e+03,2.684469e+03
1.238077e+03,2.675066e+03
1.240970e+03,2.665235e+03
1.243863e+03,2.666692e+03
1.246755e+03,2.659310e+03
1.249648e+03,2.650744e+03
1.252541e+03,2.644551e+03
1.255433e+03,2.647344e+03
1.258326e+03,2.653522e+03
1.261219e+03,2.664728e+03
1.264112e+03,2.635083e+03
1.267004e+03,2.651285e+03
1.269897e+03,2.654227e+03
1.272790e+03,2.661188e+03
1.275682e+03,2.669587e+03
1.278575e+03,2.675433e+03
1.281468e+03,2.671157e+03
1.284360e+03,2.666946e+03
1.287253e+03,2.673107e+03
1.290146e+03,2.665830e+03
1.293039e+03,2.638825e+03
1.295931e+03,2.612773e+03
1.298824e+03,2.609767e+03
1.301717e+03,2.608294e+03
1.304609e+03,2.626490e+03
1.307502e+03,2.619768e+03
1.310395e+03,2.608779e+03
1.313287e+03,2.589479e+03
1.316180e+03,2.598418e+03
1.319073e+03,2.621693e+03
1.321966e+03,2.595178e+03
1.324858e+03,2.600088e+03
1.327751e+03,2.582521e+03
1.330644e+03,2.599256e+03
1.333536e+03,2.611070e+03
1.336429e+03,2.623951e+03
1.339322e+03,2.617580e+03
1.342214e+03,2.608113e+03
1.345107e+03,2.593035e+03
1.348000e+03,2.600160e+03
1.350893e+03,2.596186e+03
1.353785e+03,2.573364e+03
1.356678e+03,2.568447e+03
1.359571e+03,2.546387e+03
1.362463e+03,2.551967e+03
1.365356e+03,2.564594e+03
1.368249e+03,2.557773e+03
1.371141e+03,2.537181e+03
1.374034e+03,2.535350e+03
1.376927e+03,2.525677e+03
1.379820e+03,2.530757e+03
1.382712e+03,2.513372e+03
1.385605e+03,2.510377e+03
1.388498e+03,2.492055e+03
1.391390e+03,2.493419e+03
1.394283e+03,2.479133e+03
1.397176e+03,2.499541e+03
1.400068e+03,2.481702e+03
1.402961e+03,2.497297e+03
1.405854e+03,2.487944e+03
1.408747e+03,2.479341e+03
1.411639e+03,2.485071e+03
1.414532e+03,2.474140e+03
1.417425e+03,2.465543e+03
1.420317e+03,2.451298e+03
1.423210e+03,2.456835e+03
1.426103e+03,2.448128e+03
1.428995e+03,2.455515e+03
1.431888e+03,2.438725e+03
1.434781e+03,2.409541e+03
1.437674e+03,2.407500e+03
1.440566e+03,2.419976e+03
1.443459e+03,2.404184e+03
1.446352e+03,2.414768e+03
1.449244e+03,2.397214e+03
1.452137e+03,2.389701e+03
1.455030e+03,2.391711e+03
1.457922e+03,2.399090e+03
1.460815e+03,2.386933e+03
1.463708e+03,2.376308e+03
1.466601e+03,2.387966e+03
1.469493e+03,2.380892e+03
1.472386e+03,2.369495e+03
1.475279e+03,2.373391e+03
1.478171e+03,2.379753e+03
1.481064e+03,2.369207e+03
1.483957e+03,2.363411e+03
1.486849e+03,2.358993e+03
1.489742e+03,2.369999e+03
1.492635e+03,2.354869e+03
1.495528e+03,2.345690e+03
1.498420e+03,2.333793e+03
1.501313e+03,2.331614e+03
1.504206e+03,2.333982e+03
1.507098e+03,2.342245e+03
1.509991e+03,2.319214e+03
1.512884e+03,2.321401e+03
1.515776e+03,2.318106e+03
1.518669e+03,2.318499e+03
1.521562e+03,2.306620e+03
1.524455e+03,2.316972e+03
1.527347e+03,2.302981e+03
1.530240e+03,2.302312e+03
1.533133e+03,2.296663e+03
1.536025e+03,2.283772e+03
1.538918e+03,2.289719e+03
1.541811e+03,2.294024e+03
1.544703e+03,2.274781e+03
1.547596e+03,2.281784e+03
1.550489e+03,2.294344e+03
1.553382e+03,2.284663e+03
1.556274e+03,2.284814e+03
1.559167e+03,2.291294e+03
1.562060e+03,2.279411e+03
1.564952e+03,2.292548e+03
1.567845e+03,2.299944e+03
1.570738e+03,2.301331e+03
1.573630e+03,2.295976e+03
1.576523e+03,2.304875e+03
1.579416e+03,2.294746e+03
1.582309e+03,2.288261e+03
1.585201e+03,2.295423e+03
1.588094e+03,2.284323e+03
1.590987e+03,2.281226e+03
1.593879e+03,2.254421e+03
1.596772e+03,2.256655e+03
1.599665e+03,2.261597e+03
1.602557e+03,2.231525e+03
1.605450e+03,2.217824e+03
1.608343e+03,2.222645e+03
1.611236e+03,2.234010e+03
1.614128e+03,2.224703e+03
1.617021e+03,2.210376e+03
1.619914e+03,2.202997e+03
1.622806e+03,2.196106e+03
1.625699e+03,2.189162e+03
1.628592e+03,2.175940e+03
1.631484e+03,2.166731e+03
1.634377e+03,2.164385e+03
1.637270e+03,2.166715e+03
1.640163e+03,2.162451e+03
1.643055e+03,2.165728e+03
1.645948e+03,2.165962e+03
1.648841e+03,2.150856e+03
1.651733e+03,2.154604e+03
1.654626e+03,2.120520e+03
1.657519e+03,2.139828e+03
1.660411e+03,2.146430e+03
1.663304e+03,2.125989e+03
1.666197e+03,2.132151e+03
1.669090e+03,2.109383e+03
1.671982e+03,2.121256e+03
1.674875e+03,2.124148e+03
1.677768e+03,2.105464e+03
1.680660e+03,2.112015e+03
1.683553e+03,2.097859e+03
1.686446e+03,2.095034e+03
1.689339e+03,2.091576e+03
1.692231e+03,2.085076e+03
1.695124e+03,2.069661e+03
1.698017e+03,2.087153e+03
1.700909e+03,2.069744e+03
1.703802e+03,2.061494e+03
1.706695e+03,2.088781e+03
1.709587e+03,2.063681e+03
1.712480e+03,2.076120e+03
1.715373e+03,2.056678e+03
1.718266e+03,2.045082e+03
1.721158e+03,2.050074e+03
1.724051e+03,2.056616e+03
1.726944e+03,2.044305e+03
1.729836e+03,2.052740e+03
1.732729e+03,2.046196e+03
1.735622e+03,2.030250e+03
1.738514e+03,2.026670e+03
1.741407e+03,2.033733e+03
1.744300e+03,2.021672e+03
1.747193e+03,2.018728e+03
1.750085e+03,2.022854e+03
1.752978e+03,1.997133e+03
1.755871e+03,1.996506e+03
1.758763e+03,2.008057e+03
1.761656e+03,1.998402e+03
1.764549e+03,1.985209e+03
1.767441e+03,1.980649e+03
1.770334e+03,1.989208e+03
1.773227e+03,1.977152e+03
1.776120e+03,1.979011e+03
1.779012e+03,1.972174e+03
1.781905e+03,1.972866e+03
1.784798e+03,1.961674e+03
1.787690e+03,1.971110e+03
1.790583e+03,1.948853e+03
1.793476e+03,1.956420e+03
1.796368e+03,1.953320e+03
1.799261e+03,1.947958e+03
1.802154e+03,1.947214e+03
1.805047e+03,1.930511e+03
1.807939e+03,1.937423e+03
1.810832e+03,1.935765e+03
1.813725e+03,1.917372e+03
1.816617e+03,1.939104e+03
1.819510e+03,1.914861e+03
1.822403e+03,1.918751e+03
1.825295e+03,1.895509e+03
1.828188e+03,1.935867e+03
1.831081e+03,1.911664e+03
1.833974e+03,1.894326e+03
1.836866e+03,1.892859e+03
1.839759e+03,1.896746e+03
1.842652e+03,1.898604e+03
1.845544e+03,1.880902e+03
1.848437e+03,1.875404e+03
1.851330e+03,1.878404e+03
1.854222e+03,1.858115e+03
1.857115e+03,1.869702e+03
1.860008e+03,1.868666e+03
1.862901e+03,1.860726e+03
1.865793e+03,1.855926e+03
1.868686e+03,1.865470e+03
1.871579e+03,1.856583e+03
1.874471e+03,1.857903e+03
1.877364e+03,1.840414e+03
1.880257e+03,1.840554e+03
1.883149e+03,1.841718e+03
1.886042e+03,1.825961e+03
1.888935e+03,1.821812e+03
1.891828e+03,1.834562e+03
1.894720e+03,1.821370e+03
1.897613e+03,1.806336e+03
1.900506e+03,1.811244e+03
1.903398e+03,1.807241e+03
1.906291e+03,1.792803e+03
1.909184e+03,1.811522e+03
1.912076e+03,1.793861e+03
1.914969e+03,1.792562e+03
1.917862e+03,1.774155e+03
1.920755e+03,1.790382e+03
1.923647e+03,1.777544e+03
1.926540e+03,1.758697e+03
1.929433e+03,1.757453e+03
1.932325e+03,1.756284e+03
1.935218e+03,1.770971e+03
1.938111e+03,1.749116e+03
1.941003e+03,1.760734e+03
1.943896e+03,1.756465e+03
1.946789e+03,1.750028e+03
1.949682e+03,1.750378e+03
1.952574e+03,1.733380e+03
1.955467e+03,1.743712e+03
1.958360e+03,1.740054e+03
1.961252e+03,1.727559e+03
1.964145e+03,1.717301e+03
1.967038e+03,1.723823e+03
1.969930e+03,1.706711e+03
1.972823e+03,1.705949e+03
1.975716e+03,1.709234e+03
1.978609e+03,1.714020e+03
1.981501e+03,1.697298e+03
1.984394e+03,1.691767e+03
1.987287e+03,1.698413e+03
1.990179e+03,1.682288e+03
1.993072e+03,1.668781e+03
1.995965e+03,1.675119e+03
1.998857e+03,1.662857e+03
2.001750e+03,1.682250e+03
2.004643e+03,1.670191e+03
2.007536e+03,1.661368e+03
2.010428e+03,1.663350e+03
2.013321e+03,1.647349e+03
2.016214e+03,1.643873e+03
2.019106e+03,1.655548e+03
2.021999e+03,1.650584e+03
2.024892e+03,1.631835e+03
2.027784e+03,1.631196e+03
2.030677e+03,1.611466e+03
2.033570e+03,1.623917e+03
2.036463e+03,1.627933e+03
2.039355e+03,1.615019e+03
2.042248e+03,1.617888e+03
2.045141e+03,1.600651e+03
2.048033e+03,1.609628e+03
2.050926e+03,1.591762e+03
2.053819e+03,1.585413e+03
2.056711e+03,1.609021e+03
2.059604e+03,1.591916e+03
2.062497e+03,1.589978e+03
2.065390e+03,1.578569e+03
2.068282e+03,1.564902e+03
2.071175e+03,1.572090e+03
2.074068e+03,1.562010e+03
2.076960e+03,1.566057e+03
2.079853e+03,1.568946e+03
2.082746e+03,1.567040e+03
2.085638e+03,1.549908e+03
2.088531e+03,1.541748e+03
2.091424e+03,1.541301e+03
2.094316e+03,1.548391e+03
2.097209e+03,1.546846e+03
2.100102e+03,1.537530e+03
2.102995e+03,1.519644e+03
2.105887e+03,1.517629e+03
2.108780e+03,1.523798e+03
2.111673e+03,1.515659e+03
2.114565e+03,1.512758e+03
2.117458e+03,1.493073e+03
2.120351e+03,1.499776e+03
2.123244e+03,1.513670e+03
2.126136e+03,1.482502e+03
2.129029e+03,1.478172e+03
2.131922e+03,1.490844e+03
2.134814e+03,1.487856e+03
2.137707e+03,1.465353e+03
2.140600e+03,1.469226e+03
2.143492e+03,1.480907e+03
2.146385e+03,1.448268e+03
2.149278e+03,1.471847e+03
2.152170e+03,1.466499e+03
2.155063e+03,1.443154e+03
2.157956e+03,1.437860e+03
2.160849e+03,1.447308e+03
2.163741e+03,1.449857e+03
2.166634e+03,1.447158e+03
2.169527e+03,1.442571e+03
2.172419e+03,1.436086e+03
2.175312e+03,1.437926e+03
2.178205e+03,1.425555e+03
2.181098e+03,1.418477e+03
2.183990e+03,1.420432e+03
2.186883e+03,1.408338e+03
2.189776e+03,1.420694e+03
2.192668e+03,1.393873e+03
2.195561e+03,1.412120e+03
2.198454e+03,1.405348e+03
2.201346e+03,1.389203e+03
2.204239e+03,1.394773e+03
2.207132e+03,1.404362e+03
2.210024e+03,1.370611e+03
2.212917e+03,1.384228e+03
2.215810e+03,1.377918e+03
2.218703e+03,1.376961e+03
2.221595e+03,1.362157e+03
2.224488e+03,1.355134e+03
2.227381e+03,1.344765e+03
2.230273e+03,1.360556e+03
2.233166e+03,1.364258e+03
2.236059e+03,1.364588e+03
2.238952e+03,1.345133e+03
2.241844e+03,1.336225e+03
2.244737e+03,1.331432e+03
2.247630e+03,1.335291e+03
2.250522e+03,1.331433e+03
2.253415e+03,1.329163e+03
2.256308e+03,1.330081e+03
2.259200e+03,1.314049e+03
2.262093e+03,1.309547e+03
2.264986e+03,1.315764e+03
2.267879e+03,1.314385e+03
2.270771e+03,1.311280e+03
2.273664e+03,1.296759e+03
2.276557e+03,1.321937e+03
2.279449e+03,1.294722e+03
2.282342e+03,1.289080e+03
2.285235e+03,1.285799e+03
2.288127e+03,1.275959e+03
2.291020e+03,1.260812e+03
2.293913e+03,1.289275e+03
2.296805e+03,1.255210e+03
2.299698e+03,1.276259e+03
2.302591e+03,1.260504e+03
2.305484e+03,1.256388e+03
2.308376e+03,1.261426e+03
2.311269e+03,1.260649e+03
2.314162e+03,1.246432e+03
2.317054e+03,1.250712e+03
2.319947e+03,1.238202e+03
2.322840e+03,1.237226e+03
2.325733e+03,1.248760e+03
2.328625e+03,1.240414e+03
2.331518e+03,1.230001e+03
2.334411e+03,1.217358e+03
2.337303e+03,1.219563e+03
2.340196e+03,1.203685e+03
2.343089e+03,1.221512e+03
2.345981e+03,1.214180e+03
2.348874e+03,1.217896e+03
2.351767e+03,1.194767e+03
2.354659e+03,1.206323e+03
2.357552e+03,1.201357e+03
2.360445e+03,1.199682e+03
2.363338e+03,1.204035e+03
2.366230e+03,1.178089e+03
2.369123e+03,1.178762e+03
2.372016e+03,1.184703e+03
2.374908e+03,1.171667e+03
2.377801e+03,1.172268e+03
2.380694e+03,1.181147e+03
2.383587e+03,1.171124e+03
2.386479e+03,1.169867e+03
2.389372e+03,1.147187e+03
2.392265e+03,1.170435e+03
2.395157e+03,1.152401e+03
2.398050e+03,1.160023e+03
2.400943e+03,1.148806e+03
2.403835e+03,1.141789e+03
2.406728e+03,1.167328e+03
2.409621e+03,1.136788e+03
2.412513e+03,1.142112e+03
2.415406e+03,1.132078e+03
2.418299e+03,1.108897e+03
2.421192e+03,1.144455e+03
2.424084e+03,1.126613e+03
2.426977e+03,1.116277e+03
2.429870e+03,1.118617e+03
2.432762e+03,1.130164e+03
2.435655e+03,1.114519e+03
2.438548e+03,1.108879e+03
2.441441e+03,1.107797e+03
2.444333e+03,1.109455e+03
2.447226e+03,1.108488e+03
2.450119e+03,1.103224e+03
2.453011e+03,1.105186e+03
2.455904e+03,1.099022e+03
2.458797e+03,1.085797e+03
2.461689e+03,1.064783e+03
2.464582e+03,1.071219e+03
2.467475e+03,1.088339e+03
2.470367e+03,1.087558e+03
2.473260e+03,1.068141e+03
2.476153e+03,1.053060e+03
2.479046e+03,1.077289e+03
2.481938e+03,1.074529e+03
2.484831e+03,1.065207e+03
2.487724e+03,1.066621e+03
2.490616e+03,1.062023e+03
2.493509e+03,1.069845e+03
2.496402e+03,1.056968e+03
2.499295e+03,1.056095e+03
2.502187e+03,1.046454e+03
2.505080e+03,1.061334e+03
2.507973e+03,1.022403e+03
2.510865e+03,1.052060e+03
2.513758e+03,1.044393e+03
2.516651e+03,1.036918e+03
2.519543e+03,1.045445e+03
2.522436e+03,1.027309e+03
2.525329e+03,1.040497e+03
2.528221e+03,1.021812e+03
2.531114e+03,1.037250e+03
2.534007e+03,1.011170e+03
2.536900e+03,1.031431e+03
2.539792e+03,1.022077e+03
2.542685e+03,1.016079e+03
2.545578e+03,1.009479e+03
2.548470e+03,1.024966e+03
2.551363e+03,1.018668e+03
2.554256e+03,1.023927e+03
2.557149e+03,1.018581e+03
2.560041e+03,9.997607e+02
2.562934e+03,1.014911e+03
2.565827e+03,1.004344e+03
2.568719e+03,1.014129e+03
2.571612e+03,9.892190e+02
2.574505e+03,9.874709e+02
2.577397e+03,9.852715e+02
2.580290e+03,9.812189e+02
2.583183e+03,9.784075e+02
2.586075e+03,9.946619e+02
2.588968e+03,1.000855e+03
2.591861e+03,9.747657e+02
2.594754e+03,9.826161e+02
2.597646e+03,9.625948e+02
2.600539e+03,9.588304e+02
2.603432e+03,9.559285e+02
2.606324e+03,9.655569e+02
2.609217e+03,9.514786e+02
2.612110e+03,9.465303e+02
2.615003e+03,9.680147e+02
2.617895e+03,9.590527e+02
2.620788e+03,9.490535e+02
2.623681e+03,9.598853e+02
2.626573e+03,9.540264e+02
2.629466e+03,9.479738e+02
2.632359e+03,9.433947e+02
2.635251e+03,9.393051e+02
2.638144e+03,9.461235e+02
2.641037e+03,9.330638e+02
2.643929e+03,9.249779e+02
2.646822e+03,9.427463e+02
2.649715e+03,9.418449e+02
2.652608e+03,9.155309e+02
2.655500e+03,9.338348e+02
2.658393e+03,9.311811e+02
2.661286e+03,9.038752e+02
2.664178e+03,9.435677e+02
2.667071e+03,9.255209e+02
2.669964e+03,9.165629e+02
2.672857e+03,9.232079e+02
2.675749e+03,9.083830e+02
2.678642e+03,9.017045e+02
2.681535e+03,9.101988e+02
2.684427e+03,9.070944e+02
2.687320e+03,9.123132e+02
2.690213e+03,8.961376e+02
2.693105e+03,9.079960e+02
2.695998e+03,8.797144e+02
2.698891e+03,9.183590e+02
2.701783e+03,8.977408e+02
2.704676e+03,8.851548e+02
2.707569e+03,9.048477e+02
2.710462e+03,8.905175e+02
2.713354e+03,8.872386e+02
2.716247e+03,8.978123e+02
2.719140e+03,8.916296e+02
2.722032e+03,8.806201e+02
2.724925e+03,8.798573e+02
2.727818e+03,8.827708e+02
2.730711e+03,8.752697e+02
2.733603e+03,9.005917e+02
2.736496e+03,8.759495e+02
2.739389e+03,8.673558e+02
2.742281e+03,8.673484e+02
2.745174e+03,8.775696e+02
2.748067e+03,8.730168e+02
2.750959e+03,8.818422e+02
2.753852e+03,8.670143e+02
2.756745e+03,8.730320e+02
2.759637e+03,8.536918e+02
2.762530e+03,8.526755e+02
2.765423e+03,8.470260e+02
2.768316e+03,8.332596e+02
2.771208e+03,8.605232e+02
2.774101e+03,8.504736e+02
2.776994e+03,8.431930e+02
2.779886e+03,8.471104e+02
2.782779e+03,8.408369e+02
2.785672e+03,8.307330e+02
2.788565e+03,8.429838e+02
2.791457e+03,8.429670e+02
2.794350e+03,8.503578e+02
2.797243e+03,8.657294e+02
2.800135e+03,8.429297e+02
2.803028e+03,8.254123e+02
2.805921e+03,8.424650e+02
2.808813e+03,8.244997e+02
2.811706e+03,8.313057e+02
2.814599e+03,8.256230e+02
2.817491e+03,8.259168e+02
2.820384e+03,8.063439e+02
2.823277e+03,8.188956e+02
2.826170e+03,8.316456e+02
2.829062e+03,8.216573e+02
2.831955e+03,8.453263e+02
2.834848e+03,8.393671e+02
2.837740e+03,8.262503e+02
2.840633e+03,8.013998e+02
2.843526e+03,8.042152e+02
2.846419e+03,8.194884e+02
2.849311e+03,8.563214e+02
2.852204e+03,8.142839e+02
2.855097e+03,8.186184e+02
2.857990e+03,8.238720e+02
2.860882e+03,8.206159e+02
2.863775e+03,8.218702e+02
2.866667e+03,8.321188e+02
2.869560e+03,8.377318e+02
2.872453e+03,8.032925e+02
2.875345e+03,8.343055e+02
2.878238e+03,8.406962e+02
2.881131e+03,8.232158e+02
2.884024e+03,8.207918e+02
2.886916e+03,8.346299e+02
2.889809e+03,8.300387e+02
2.892702e+03,8.292580e+02
2.895594e+03,8.264721e+02
2.898487e+03,8.391047e+02
2.901380e+03,8.343321e+02
2.904273e+03,8.362550e+02
2.907165e+03,8.021000e+02
2.910058e+03,8.042546e+02
2.912951e+03,8.018531e+02
2.915844e+03,8.244995e+02
2.918736e+03,8.093693e+02
2.921629e+03,8.074617e+02
2.924521e+03,7.956923e+02
2.927414e+03,8.115334e+02
2.930307e+03,7.890109e+02
2.933199e+03,7.742665e+02
2.936092e+03,7.934612e+02
2.938985e+03,7.987938e+02
2.941878e+03,8.054612e+02
2.944770e+03,7.868655e+02
2.947663e+03,7.761597e+02
2.950556e+03,7.943517e+02
2.953448e+03,7.901041e+02
2.956341e+03,7.968094e+02
2.959234e+03,7.853991e+02
2.962127e+03,7.859462e+02
2.965019e+03,7.633076e+02
2.967912e+03,7.829070e+02
2.970805e+03,7.849769e+02
2.973698e+03,7.660789e+02
2.976590e+03,7.507178e+02
2.979483e+03,7.659366e+02
2.982375e+03,7.638421e+02
2.985268e+03,7.326882e+02
2.988161e+03,7.586462e+02
2.991053e+03,7.572668e+02
2.993946e+03,7.463465e+02
2.996839e+03,7.492631e+02
2.999732e+03,7.282231e+02
3.002624e+03,7.376933e+02
3.005517e+03,7.419786e+02
3.008410e+03,7.106100e+02
3.011302e+03,7.427945e+02
3.014195e+03,7.475344e+02
3.017088e+03,7.517817e+02
3.019981e+03,7.482688e+02
3.022873e+03,7.179329e+02
3.025766e+03,7.320219e+02
3.028659e+03,7.169431e+02
3.031552e+03,7.183290e+02
3.034444e+03,7.341661e+02
3.037337e+03,7.213084e+02
3.040229e+03,7.155075e+02
3.043122e+03,7.252717e+02
3.046015e+03,7.138012e+02
3.048907e+03,7.033768e+02
3.051800e+03,7.387958e+02
3.054693e+03,6.938815e+02
3.057586e+03,7.460484e+02
3.060478e+03,7.139320e+02
3.063371e+03,7.324290e+02
3.066264e+03,6.876133e+02
3.069156e+03,7.286906e+02
3.072049e+03,7.315370e+02
3.074942e+03,7.041051e+02
3.077835e+03,7.072695e+02
3.080727e+03,7.084329e+02
3.083620e+03,7.257471e+02
3.086513e+03,7.342919e+02
3.089406e+03,7.047131e+02
3.092298e+03,7.299352e+02
3.095191e+03,7.108366e+02
3.098083e+03,7.155833e+02
3.100976e+03,7.351082e+02
3.103869e+03,6.823566e+02
3.106761e+03,6.886588e+02
3.109654e+03,7.035880e+02
3.112547e+03,7.179310e+02
3.115440e+03,7.177221e+02
3.118332e+03,7.040926e+02
3.121225e+03,7.377494e+02
3.124118e+03,7.238471e+02
3.127010e+03,7.166846e+02
3.129903e+03,7.179178e+02
3.132796e+03,7.277592e+02
3.135689e+03,6.987065e+02
3.138581e+03,7.367913e+02
3.141474e+03,7.407668e+02
3.144367e+03,7.009477e+02
3.147260e+03,7.046066e+02
3.150152e+03,7.514686e+02
3.153045e+03,6.784893e+02
3.155938e+03,7.087303e+02
3.158830e+03,7.023656e+02
3.161723e+03,7.412900e+02
3.164615e+03,7.058363e+02
3.167508e+03,7.180559e+02
3.170401e+03,7.002307e+02
3.173294e+03,7.260446e+02
3.176186e+03,7.459384e+02
3.179079e+03,7.329009e+02
3.181972e+03,7.075063e+02
3.184865e+03,7.199324e+02
3.187757e+03,7.220109e+02
3.190650e+03,7.401404e+02
3.193543e+03,6.667842e+02
3.196435e+03,7.543353e+02
3.199328e+03,7.526102e+02
3.200292e+03,7.415574e+02