File: RAMAN_data/20012023_r1/black fibre7.CSV
1.995979e+02,1.046964e+04
2.024906e+02,1.050564e+04
2.053833e+02,1.054303e+04
2.082760e+02,1.055275e+04
2.111687e+02,1.054622e+04
2.140614e+02,1.057110e+04
2.169541e+02,1.059435e+04
2.198468e+02,1.064671e+04
2.227395e+02,1.067257e+04
2.256322e+02,1.068503e+04
2.285249e+02,1.070199e+04
2.314176e+02,1.075159e+04
2.343103e+02,1.078854e+04
2.372030e+02,1.082920e+04
2.400957e+02,1.083586e+04
2.429884e+02,1.084039e+04
2.458811e+02,1.087555e+04
2.487738e+02,1.091119e+04
2.516665e+02,1.094691e+04
2.545592e+02,1.097477e+04
2.574519e+02,1.097223e+04
2.603446e+02,1.100378e+04
2.632373e+02,1.105567e+04
2.661300e+02,1.109269e+04
2.690227e+02,1.111753e+04
2.719154e+02,1.114509e+04
2.748081e+02,1.115076e+04
2.777008e+02,1.120286e+04
2.805935e+02,1.122116e+04
2.834862e+02,1.125533e+04
2.863789e+02,1.124672e+04
2.892716e+02,1.126298e+04
2.921643e+02,1.127656e+04
2.950570e+02,1.131250e+04
2.979497e+02,1.134237e+04
3.008424e+02,1.134730e+04
3.037351e+02,1.137071e+04
3.066278e+02,1.137297e+04
3.095205e+02,1.140090e+04
3.124132e+02,1.144046e+04
3.153059e+02,1.147679e+04
3.181986e+02,1.148376e+04
3.210913e+02,1.148795e+04
3.239840e+02,1.153425e+04
3.268767e+02,1.154969e+04
3.297694e+02,1.157504e+04
3.326621e+02,1.159821e+04
3.355548e+02,1.159363e+04
3.384475e+02,1.161923e+04
3.413402e+02,1.166172e+04
3.442329e+02,1.168635e+04
3.471256e+02,1.171919e+04
3.500183e+02,1.168116e+04
3.529110e+02,1.171578e+04
3.558037e+02,1.173248e+04
3.586964e+02,1.176165e+04
3.615891e+02,1.176737e+04
3.644818e+02,1.174803e+04
3.673745e+02,1.173330e+04
3.702672e+02,1.178060e+04
3.731599e+02,1.181796e+04
3.760526e+02,1.180505e+04
3.789453e+02,1.183275e+04
3.818380e+02,1.183612e+04
3.847307e+02,1.183613e+04
3.876234e+02,1.185224e+04
3.905161e+02,1.188630e+04
3.934088e+02,1.188722e+04
3.963015e+02,1.187232e+04
3.991942e+02,1.187070e+04
4.020869e+02,1.192104e+04
4.049796e+02,1.192681e+04
4.078723e+02,1.194822e+04
4.107650e+02,1.188981e+04
4.136577e+02,1.190724e+04
4.165504e+02,1.194040e+04
4.194431e+02,1.195772e+04
4.223358e+02,1.196290e+04
4.252285e+02,1.196305e+04
4.281212e+02,1.195285e+04
4.310139e+02,1.197511e+04
4.339066e+02,1.200149e+04
4.367993e+02,1.203256e+04
4.396920e+02,1.199617e+04
4.425847e+02,1.200353e+04
4.454774e+02,1.200620e+04
4.483701e+02,1.201431e+04
4.512628e+02,1.197475e+04
4.541555e+02,1.198847e+04
4.570482e+02,1.199175e+04
4.599409e+02,1.193112e+04
4.628336e+02,1.194443e+04
4.657263e+02,1.191603e+04
4.686190e+02,1.192053e+04
4.715117e+02,1.190341e+04
4.744044e+02,1.191989e+04
4.772971e+02,1.192793e+04
4.801898e+02,1.190709e+04
4.830825e+02,1.194309e+04
4.859752e+02,1.192129e+04
4.888679e+02,1.186955e+04
4.917606e+02,1.187275e+04
4.946533e+02,1.190356e+04
4.975460e+02,1.186441e+04
5.004387e+02,1.185632e+04
5.033314e+02,1.185878e+04
5.062241e+02,1.182110e+04
5.091168e+02,1.180674e+04
5.120095e+02,1.180951e+04
5.149022e+02,1.182148e+04
5.177949e+02,1.183958e+04
5.206876e+02,1.177686e+04
5.235803e+02,1.174878e+04
5.264730e+02,1.175519e+04
5.293657e+02,1.173622e+04
5.322584e+02,1.176934e+04
5.351511e+02,1.174585e+04
5.380438e+02,1.169858e+04
5.409365e+02,1.170078e+04
5.438292e+02,1.170058e+04
5.467219e+02,1.173002e+04
5.496146e+02,1.169924e+04
5.525073e+02,1.165520e+04
5.554000e+02,1.162165e+04
5.582927e+02,1.163950e+04
5.611854e+02,1.169638e+04
5.640781e+02,1.164089e+04
5.669708e+02,1.160860e+04
5.698635e+02,1.156404e+04
5.727562e+02,1.155972e+04
5.756489e+02,1.159065e+04
5.785416e+02,1.158952e+04
5.814343e+02,1.157247e+04
5.843270e+02,1.151071e+04
5.872197e+02,1.151826e+04
5.901124e+02,1.155394e+04
5.930051e+02,1.152630e+04
5.958978e+02,1.151510e+04
5.987905e+02,1.149837e+04
6.016832e+02,1.144897e+04
6.045759e+02,1.146787e+04
6.074686e+02,1.147319e+04
6.103613e+02,1.147021e+04
6.132540e+02,1.142431e+04
6.161467e+02,1.140126e+04
6.190394e+02,1.140788e+04
6.219321e+02,1.141130e+04
6.248248e+02,1.140197e+04
6.277175e+02,1.133154e+04
6.306102e+02,1.132858e+04
6.335029e+02,1.135442e+04
6.363956e+02,1.132671e+04
6.392883e+02,1.131746e+04
6.421810e+02,1.128570e+04
6.450737e+02,1.128923e+04
6.479664e+02,1.127425e+04
6.508591e+02,1.124779e+04
6.537518e+02,1.121491e+04
6.566445e+02,1.119484e+04
6.595372e+02,1.118977e+04
6.624299e+02,1.115847e+04
6.653226e+02,1.113795e+04
6.682153e+02,1.116558e+04
6.711080e+02,1.117014e+04
6.740007e+02,1.117730e+04
6.768934e+02,1.111355e+04
6.797861e+02,1.109415e+04
6.826788e+02,1.107315e+04
6.855715e+02,1.106409e+04
6.884642e+02,1.106033e+04
6.913569e+02,1.102164e+04
6.942496e+02,1.102102e+04
6.971423e+02,1.100375e+04
7.000350e+02,1.099787e+04
7.029277e+02,1.095503e+04
7.058204e+02,1.096453e+04
7.087131e+02,1.094478e+04
7.116058e+02,1.094942e+04
7.144985e+02,1.092862e+04
7.173912e+02,1.089423e+04
7.202839e+02,1.088258e+04
7.231766e+02,1.084026e+04
7.260693e+02,1.084097e+04
7.289620e+02,1.085572e+04
7.318547e+02,1.082649e+04
7.347474e+02,1.081926e+04
7.376401e+02,1.078967e+04
7.405328e+02,1.077945e+04
7.434255e+02,1.078329e+04
7.463182e+02,1.076409e+04
7.492109e+02,1.075139e+04
7.521036e+02,1.070144e+04
7.549963e+02,1.068265e+04
7.578890e+02,1.064437e+04
7.607817e+02,1.068440e+04
7.636744e+02,1.066421e+04
7.665671e+02,1.063079e+04
7.694598e+02,1.063368e+04
7.723525e+02,1.057245e+04
7.752452e+02,1.057921e+04
7.781379e+02,1.059223e+04
7.810306e+02,1.055020e+04
7.839233e+02,1.051947e+04
7.868160e+02,1.052095e+04
7.897087e+02,1.052726e+04
7.926014e+02,1.053117e+04
7.954941e+02,1.046189e+04
7.983868e+02,1.043453e+04
8.012795e+02,1.043352e+04
8.041722e+02,1.040898e+04
8.070649e+02,1.042834e+04
8.099576e+02,1.040020e+04
8.128503e+02,1.035649e+04
8.157430e+02,1.033958e+04
8.186357e+02,1.033918e+04
8.215284e+02,1.033170e+04
8.244211e+02,1.030983e+04
8.273138e+02,1.031947e+04
8.302065e+02,1.029648e+04
8.330992e+02,1.029288e+04
8.359919e+02,1.027183e+04
8.388846e+02,1.027726e+04
8.417773e+02,1.026622e+04
8.446700e+02,1.019661e+04
8.475627e+02,1.021369e+04
8.504554e+02,1.014979e+04
8.533481e+02,1.018573e+04
8.562408e+02,1.016422e+04
8.591335e+02,1.012698e+04
8.620262e+02,1.008547e+04
8.649189e+02,1.009521e+04
8.678116e+02,1.006838e+04
8.707043e+02,1.006627e+04
8.735970e+02,1.005155e+04
8.764897e+02,1.000769e+04
8.793824e+02,1.000114e+04
8.822751e+02,1.001465e+04
8.851678e+02,1.003212e+04
8.880605e+02,9.967767e+03
8.909532e+02,9.954639e+03
8.938459e+02,9.914550e+03
8.967386e+02,9.923036e+03
8.996313e+02,9.870540e+03
9.025240e+02,9.908844e+03
9.054167e+02,9.865521e+03
9.083094e+02,9.820891e+03
9.112021e+02,9.838799e+03
9.140948e+02,9.792748e+03
9.169875e+02,9.817306e+03
9.198802e+02,9.780851e+03
9.227729e+02,9.746362e+03
9.256656e+02,9.761229e+03
9.285583e+02,9.709021e+03
9.314510e+02,9.703155e+03
9.343438e+02,9.709766e+03
9.372365e+02,9.672851e+03
9.401292e+02,9.634313e+03
9.430219e+02,9.640037e+03
9.459146e+02,9.639784e+03
9.488073e+02,9.641770e+03
9.517000e+02,9.632541e+03
9.545927e+02,9.560501e+03
9.574854e+02,9.574277e+03
9.603781e+02,9.542869e+03
9.632708e+02,9.559370e+03
9.661635e+02,9.558911e+03
9.690562e+02,9.490856e+03
9.719489e+02,9.474810e+03
9.748416e+02,9.472233e+03
9.777343e+02,9.479220e+03
9.806270e+02,9.467548e+03
9.835197e+02,9.426286e+03
9.864124e+02,9.408075e+03
9.893051e+02,9.393959e+03
9.921978e+02,9.383929e+03
9.950905e+02,9.388331e+03
9.979832e+02,9.374424e+03
1.000876e+03,9.310092e+03
1.003769e+03,9.303589e+03
1.006661e+03,9.305393e+03
1.009554e+03,9.293676e+03
1.012447e+03,9.327655e+03
1.015339e+03,9.236870e+03
1.018232e+03,9.219842e+03
1.021125e+03,9.240131e+03
1.024017e+03,9.230594e+03
1.026910e+03,9.223427e+03
1.029803e+03,9.207237e+03
1.032696e+03,9.149878e+03
1.035588e+03,9.172013e+03
1.038481e+03,9.166396e+03
1.041374e+03,9.134606e+03
1.044266e+03,9.129875e+03
1.047159e+03,9.109158e+03
1.050052e+03,9.096905e+03
1.052944e+03,9.102369e+03
1.055837e+03,9.065619e+03
1.058730e+03,9.048524e+03
1.061623e+03,9.027881e+03
1.064515e+03,8.996949e+03
1.067408e+03,9.023971e+03
1.070301e+03,9.015155e+03
1.073193e+03,9.010303e+03
1.076086e+03,8.967669e+03
1.078979e+03,8.967563e+03
1.081871e+03,8.983940e+03
1.084764e+03,8.972634e+03
1.087657e+03,8.979794e+03
1.090550e+03,8.979408e+03
1.093442e+03,8.914901e+03
1.096335e+03,8.879760e+03
1.099228e+03,8.891893e+03
1.102120e+03,8.898360e+03
1.105013e+03,8.864762e+03
1.107906e+03,8.837729e+03
1.110798e+03,8.820667e+03
1.113691e+03,8.852068e+03
1.116584e+03,8.836644e+03
1.119477e+03,8.819720e+03
1.122369e+03,8.805275e+03
1.125262e+03,8.800762e+03
1.128155e+03,8.736907e+03
1.131047e+03,8.775825e+03
1.133940e+03,8.763217e+03
1.136833e+03,8.753625e+03
1.139725e+03,8.737521e+03
1.142618e+03,8.731763e+03
1.145511e+03,8.699929e+03
1.148404e+03,8.733426e+03
1.151296e+03,8.702080e+03
1.154189e+03,8.649983e+03
1.157082e+03,8.645685e+03
1.159974e+03,8.623448e+03
1.162867e+03,8.622585e+03
1.165760e+03,8.610886e+03
1.168652e+03,8.578681e+03
1.171545e+03,8.523951e+03
1.174438e+03,8.533611e+03
1.177331e+03,8.553904e+03
1.180223e+03,8.572521e+03
1.183116e+03,8.534911e+03
1.186009e+03,8.482056e+03
1.188901e+03,8.511709e+03
1.191794e+03,8.472572e+03
1.194687e+03,8.446665e+03
1.197579e+03,8.478584e+03
1.200472e+03,8.450179e+03
1.203365e+03,8.388235e+03
1.206258e+03,8.403071e+03
1.209150e+03,8.429354e+03
1.212043e+03,8.409692e+03
1.214936e+03,8.406447e+03
1.217828e+03,8.359636e+03
1.220721e+03,8.383778e+03
1.223614e+03,8.385696e+03
1.226506e+03,8.367065e+03
1.229399e+03,8.360218e+03
1.232292e+03,8.301708e+03
1.235185e+03,8.269499e+03
1.238077e+03,8.273723e+03
1.240970e+03,8.287235e+03
1.243863e+03,8.268696e+03
1.246755e+03,8.225642e+03
1.249648e+03,8.212440e+03
1.252541e+03,8.221697e+03
1.255433e+03,8.225166e+03
1.258326e+03,8.190939e+03
1.261219e+03,8.212446e+03
1.264112e+03,8.176862e+03
1.267004e+03,8.160712e+03
1.269897e+03,8.168611e+03
1.272790e+03,8.196698e+03
1.275682e+03,8.194967e+03
1.278575e+03,8.177867e+03
1.281468e+03,8.136185e+03
1.284360e+03,8.119162e+03
1.287253e+03,8.141192e+03
1.290146e+03,8.124667e+03
1.293039e+03,8.068419e+03
1.295931e+03,8.066657e+03
1.298824e+03,8.038518e+03
1.301717e+03,8.052202e+03
1.304609e+03,8.043806e+03
1.307502e+03,8.022670e+03
1.310395e+03,7.988186e+03
1.313287e+03,8.000674e+03
1.316180e+03,7.993079e+03
1.319073e+03,7.995453e+03
1.321966e+03,7.979619e+03
1.324858e+03,7.936089e+03
1.327751e+03,7.941634e+03
1.330644e+03,7.930763e+03
1.333536e+03,7.939309e+03
1.336429e+03,7.961278e+03
1.339322e+03,7.945644e+03
1.342214e+03,7.910209e+03
1.345107e+03,7.870167e+03
1.348000e+03,7.913281e+03
1.350893e+03,7.873731e+03
1.353785e+03,7.866865e+03
1.356678e+03,7.827157e+03
1.359571e+03,7.828089e+03
1.362463e+03,7.811024e+03
1.365356e+03,7.843479e+03
1.368249e+03,7.796853e+03
1.371141e+03,7.750293e+03
1.374034e+03,7.764321e+03
1.376927e+03,7.744103e+03
1.379820e+03,7.745968e+03
1.382712e+03,7.727798e+03
1.385605e+03,7.741429e+03
1.388498e+03,7.681777e+03
1.391390e+03,7.663951e+03
1.394283e+03,7.643419e+03
1.397176e+03,7.649829e+03
1.400068e+03,7.634852e+03
1.402961e+03,7.626324e+03
1.405854e+03,7.611137e+03
1.408747e+03,7.617855e+03
1.411639e+03,7.598477e+03
1.414532e+03,7.578711e+03
1.417425e+03,7.567583e+03
1.420317e+03,7.558039e+03
1.423210e+03,7.512401e+03
1.426103e+03,7.519186e+03
1.428995e+03,7.531677e+03
1.431888e+03,7.495962e+03
1.434781e+03,7.458141e+03
1.437674e+03,7.448623e+03
1.440566e+03,7.473688e+03
1.443459e+03,7.428799e+03
1.446352e+03,7.431898e+03
1.449244e+03,7.419109e+03
1.452137e+03,7.392168e+03
1.455030e+03,7.384980e+03
1.457922e+03,7.387913e+03
1.460815e+03,7.359571e+03
1.463708e+03,7.343313e+03
1.466601e+03,7.316386e+03
1.469493e+03,7.333297e+03
1.472386e+03,7.312095e+03
1.475279e+03,7.321642e+03
1.478171e+03,7.286953e+03
1.481064e+03,7.271708e+03
1.483957e+03,7.273097e+03
1.486849e+03,7.246295e+03
1.489742e+03,7.264065e+03
1.492635e+03,7.221558e+03
1.495528e+03,7.228208e+03
1.498420e+03,7.192114e+03
1.501313e+03,7.192419e+03
1.504206e+03,7.192447e+03
1.507098e+03,7.166810e+03
1.509991e+03,7.133697e+03
1.512884e+03,7.133630e+03
1.515776e+03,7.108231e+03
1.518669e+03,7.101557e+03
1.521562e+03,7.124083e+03
1.524455e+03,7.109981e+03
1.527347e+03,7.082407e+03
1.530240e+03,7.062060e+03
1.533133e+03,7.068621e+03
1.536025e+03,7.022118e+03
1.538918e+03,7.038095e+03
1.541811e+03,7.010916e+03
1.544703e+03,6.998115e+03
1.547596e+03,6.983155e+03
1.550489e+03,6.987508e+03
1.553382e+03,7.021593e+03
1.556274e+03,6.989289e+03
1.559167e+03,6.967121e+03
1.562060e+03,6.957835e+03
1.564952e+03,6.958520e+03
1.567845e+03,6.957173e+03
1.570738e+03,6.948143e+03
1.573630e+03,6.903578e+03
1.576523e+03,6.902425e+03
1.579416e+03,6.925843e+03
1.582309e+03,6.899262e+03
1.585201e+03,6.911164e+03
1.588094e+03,6.855859e+03
1.590987e+03,6.846521e+03
1.593879e+03,6.842058e+03
1.596772e+03,6.814001e+03
1.599665e+03,6.823894e+03
1.602557e+03,6.784347e+03
1.605450e+03,6.736242e+03
1.608343e+03,6.760000e+03
1.611236e+03,6.743052e+03
1.614128e+03,6.720506e+03
1.617021e+03,6.700540e+03
1.619914e+03,6.696506e+03
1.622806e+03,6.674704e+03
1.625699e+03,6.671428e+03
1.628592e+03,6.665492e+03
1.631484e+03,6.635569e+03
1.634377e+03,6.618096e+03
1.637270e+03,6.626625e+03
1.640163e+03,6.576953e+03
1.643055e+03,6.612381e+03
1.645948e+03,6.569167e+03
1.648841e+03,6.556291e+03
1.651733e+03,6.538329e+03
1.654626e+03,6.532653e+03
1.657519e+03,6.517140e+03
1.660411e+03,6.485567e+03
1.663304e+03,6.489953e+03
1.666197e+03,6.460662e+03
1.669090e+03,6.432542e+03
1.671982e+03,6.447240e+03
1.674875e+03,6.450618e+03
1.677768e+03,6.409206e+03
1.680660e+03,6.398863e+03
1.683553e+03,6.378703e+03
1.686446e+03,6.403159e+03
1.689339e+03,6.364834e+03
1.692231e+03,6.341561e+03
1.695124e+03,6.332664e+03
1.698017e+03,6.333827e+03
1.700909e+03,6.339222e+03
1.703802e+03,6.290360e+03
1.706695e+03,6.297400e+03
1.709587e+03,6.307841e+03
1.712480e+03,6.251161e+03
1.715373e+03,6.210070e+03
1.718266e+03,6.249128e+03
1.721158e+03,6.223052e+03
1.724051e+03,6.171378e+03
1.726944e+03,6.168118e+03
1.729836e+03,6.175606e+03
1.732729e+03,6.158690e+03
1.735622e+03,6.149718e+03
1.738514e+03,6.132965e+03
1.741407e+03,6.143230e+03
1.744300e+03,6.143891e+03
1.747193e+03,6.078021e+03
1.750085e+03,6.111779e+03
1.752978e+03,6.056310e+03
1.755871e+03,6.084078e+03
1.758763e+03,6.046460e+03
1.761656e+03,6.029751e+03
1.764549e+03,6.031788e+03
1.767441e+03,6.037708e+03
1.770334e+03,6.024796e+03
1.773227e+03,5.985171e+03
1.776120e+03,5.956195e+03
1.779012e+03,5.935644e+03
1.781905e+03,5.961859e+03
1.784798e+03,5.949982e+03
1.787690e+03,5.915148e+03
1.790583e+03,5.899609e+03
1.793476e+03,5.867949e+03
1.796368e+03,5.875892e+03
1.799261e+03,5.895554e+03
1.802154e+03,5.857745e+03
1.805047e+03,5.824123e+03
1.807939e+03,5.842139e+03
1.810832e+03,5.814121e+03
1.813725e+03,5.800698e+03
1.816617e+03,5.838750e+03
1.819510e+03,5.817255e+03
1.822403e+03,5.759776e+03
1.825295e+03,5.745038e+03
1.828188e+03,5.717279e+03
1.831081e+03,5.739881e+03
1.833974e+03,5.727780e+03
1.836866e+03,5.710452e+03
1.839759e+03,5.698878e+03
1.842652e+03,5.701749e+03
1.845544e+03,5.682690e+03
1.848437e+03,5.634935e+03
1.851330e+03,5.636445e+03
1.854222e+03,5.588363e+03
1.857115e+03,5.592085e+03
1.860008e+03,5.591673e+03
1.862901e+03,5.606442e+03
1.865793e+03,5.550099e+03
1.868686e+03,5.558343e+03
1.871579e+03,5.562519e+03
1.874471e+03,5.522472e+03
1.877364e+03,5.534071e+03
1.880257e+03,5.507430e+03
1.883149e+03,5.488441e+03
1.886042e+03,5.465316e+03
1.888935e+03,5.455728e+03
1.891828e+03,5.454227e+03
1.894720e+03,5.422638e+03
1.897613e+03,5.422592e+03
1.900506e+03,5.403552e+03
1.903398e+03,5.398365e+03
1.906291e+03,5.366778e+03
1.909184e+03,5.382302e+03
1.912076e+03,5.362757e+03
1.914969e+03,5.332073e+03
1.917862e+03,5.304367e+03
1.920755e+03,5.312586e+03
1.923647e+03,5.313077e+03
1.926540e+03,5.266625e+03
1.929433e+03,5.273655e+03
1.932325e+03,5.257900e+03
1.935218e+03,5.237833e+03
1.938111e+03,5.234121e+03
1.941003e+03,5.226077e+03
1.943896e+03,5.187949e+03
1.946789e+03,5.171414e+03
1.949682e+03,5.152311e+03
1.952574e+03,5.167584e+03
1.955467e+03,5.155356e+03
1.958360e+03,5.152684e+03
1.961252e+03,5.146665e+03
1.964145e+03,5.097288e+03
1.967038e+03,5.115024e+03
1.969930e+03,5.117215e+03
1.972823e+03,5.087420e+03
1.975716e+03,5.067113e+03
1.978609e+03,5.053214e+03
1.981501e+03,5.046014e+03
1.984394e+03,5.022149e+03
1.987287e+03,4.997458e+03
1.990179e+03,4.993156e+03
1.993072e+03,5.001067e+03
1.995965e+03,4.972842e+03
1.998857e+03,4.968360e+03
2.001750e+03,4.946837e+03
2.004643e+03,4.929462e+03
2.007536e+03,4.935849e+03
2.010428e+03,4.901318e+03
2.013321e+03,4.883719e+03
2.016214e+03,4.892464e+03
2.019106e+03,4.873372e+03
2.021999e+03,4.840201e+03
2.024892e+03,4.835503e+03
2.027784e+03,4.829232e+03
2.030677e+03,4.846672e+03
2.033570e+03,4.785533e+03
2.036463e+03,4.765967e+03
2.039355e+03,4.752151e+03
2.042248e+03,4.740803e+03
2.045141e+03,4.750463e+03
2.048033e+03,4.722853e+03
2.050926e+03,4.697151e+03
2.053819e+03,4.723913e+03
2.056711e+03,4.735301e+03
2.059604e+03,4.691229e+03
2.062497e+03,4.678055e+03
2.065390e+03,4.664632e+03
2.068282e+03,4.641366e+03
2.071175e+03,4.599367e+03
2.074068e+03,4.597920e+03
2.076960e+03,4.597453e+03
2.079853e+03,4.627008e+03
2.082746e+03,4.579080e+03
2.085638e+03,4.543858e+03
2.088531e+03,4.548976e+03
2.091424e+03,4.529325e+03
2.094316e+03,4.510624e+03
2.097209e+03,4.543202e+03
2.100102e+03,4.527866e+03
2.102995e+03,4.456675e+03
2.105887e+03,4.456518e+03
2.108780e+03,4.481888e+03
2.111673e+03,4.472840e+03
2.114565e+03,4.411954e+03
2.117458e+03,4.359782e+03
2.120351e+03,4.457444e+03
2.123244e+03,4.428264e+03
2.126136e+03,4.370378e+03
2.129029e+03,4.356374e+03
2.131922e+03,4.364447e+03
2.134814e+03,4.340729e+03
2.137707e+03,4.320764e+03
2.140600e+03,4.310858e+03
2.143492e+03,4.302829e+03
2.146385e+03,4.270076e+03
2.149278e+03,4.279318e+03
2.152170e+03,4.270292e+03
2.155063e+03,4.264672e+03
2.157956e+03,4.237340e+03
2.160849e+03,4.218629e+03
2.163741e+03,4.242693e+03
2.166634e+03,4.191818e+03
2.169527e+03,4.186840e+03
2.172419e+03,4.197197e+03
2.175312e+03,4.198622e+03
2.178205e+03,4.131498e+03
2.181098e+03,4.115698e+03
2.183990e+03,4.150993e+03
2.186883e+03,4.118212e+03
2.189776e+03,4.078119e+03
2.192668e+03,4.104406e+03
2.195561e+03,4.084000e+03
2.198454e+03,4.071690e+03
2.201346e+03,4.031519e+03
2.204239e+03,4.050959e+03
2.207132e+03,4.029916e+03
2.210024e+03,4.001282e+03
2.212917e+03,3.983784e+03
2.215810e+03,3.992171e+03
2.218703e+03,4.007336e+03
2.221595e+03,3.976854e+03
2.224488e+03,3.940489e+03
2.227381e+03,3.913201e+03
2.230273e+03,3.938979e+03
2.233166e+03,3.935542e+03
2.236059e+03,3.878360e+03
2.238952e+03,3.911900e+03
2.241844e+03,3.866731e+03
2.244737e+03,3.868094e+03
2.247630e+03,3.866511e+03
2.250522e+03,3.848488e+03
2.253415e+03,3.843887e+03
2.256308e+03,3.806698e+03
2.259200e+03,3.791012e+03
2.262093e+03,3.800236e+03
2.264986e+03,3.769647e+03
2.267879e+03,3.773183e+03
2.270771e+03,3.751950e+03
2.273664e+03,3.735341e+03
2.276557e+03,3.747541e+03
2.279449e+03,3.719009e+03
2.282342e+03,3.748503e+03
2.285235e+03,3.696129e+03
2.288127e+03,3.684949e+03
2.291020e+03,3.659146e+03
2.293913e+03,3.675573e+03
2.296805e+03,3.660156e+03
2.299698e+03,3.643458e+03
2.302591e+03,3.655837e+03
2.305484e+03,3.617403e+03
2.308376e+03,3.624796e+03
2.311269e+03,3.591340e+03
2.314162e+03,3.610077e+03
2.317054e+03,3.602739e+03
2.319947e+03,3.572424e+03
2.322840e+03,3.555663e+03
2.325733e+03,3.534020e+03
2.328625e+03,3.548095e+03
2.331518e+03,3.543123e+03
2.334411e+03,3.499898e+03
2.337303e+03,3.496151e+03
2.340196e+03,3.468095e+03
2.343089e+03,3.492683e+03
2.345981e+03,3.498266e+03
2.348874e+03,3.438512e+03
2.351767e+03,3.436900e+03
2.354659e+03,3.458179e+03
2.357552e+03,3.438459e+03
2.360445e+03,3.424964e+03
2.363338e+03,3.403662e+03
2.366230e+03,3.394253e+03
2.369123e+03,3.393989e+03
2.372016e+03,3.391525e+03
2.374908e+03,3.344543e+03
2.377801e+03,3.376354e+03
2.380694e+03,3.322008e+03
2.383587e+03,3.331398e+03
2.386479e+03,3.319161e+03
2.389372e+03,3.335166e+03
2.392265e+03,3.321222e+03
2.395157e+03,3.327110e+03
2.398050e+03,3.261407e+03
2.400943e+03,3.265726e+03
2.403835e+03,3.270989e+03
2.406728e+03,3.261538e+03
2.409621e+03,3.253453e+03
2.412513e+03,3.230035e+03
2.415406e+03,3.227022e+03
2.418299e+03,3.217937e+03
2.421192e+03,3.213566e+03
2.424084e+03,3.185569e+03
2.426977e+03,3.172798e+03
2.429870e+03,3.161549e+03
2.432762e+03,3.159774e+03
2.435655e+03,3.151848e+03
2.438548e+03,3.153412e+03
2.441441e+03,3.167069e+03
2.444333e+03,3.121944e+03
2.447226e+03,3.120711e+03
2.450119e+03,3.100457e+03
2.453011e+03,3.118189e+03
2.455904e+03,3.090035e+03
2.458797e+03,3.088340e+03
2.461689e+03,3.070308e+03
2.464582e+03,3.055648e+03
2.467475e+03,3.066990e+03
2.470367e+03,3.062120e+03
2.473260e+03,3.047224e+03
2.476153e+03,3.021960e+03
2.479046e+03,3.040994e+03
2.481938e+03,3.000181e+03
2.484831e+03,3.013288e+03
2.487724e+03,2.985629e+03
2.490616e+03,2.972177e+03
2.493509e+03,2.987613e+03
2.496402e+03,2.965983e+03
2.499295e+03,2.984938e+03
2.502187e+03,2.948755e+03
2.505080e+03,2.931998e+03
2.507973e+03,2.937150e+03
2.510865e+03,2.935973e+03
2.513758e+03,2.936032e+03
2.516651e+03,2.911695e+03
2.519543e+03,2.904653e+03
2.522436e+03,2.882991e+03
2.525329e+03,2.887899e+03
2.528221e+03,2.881532e+03
2.531114e+03,2.849143e+03
2.534007e+03,2.847279e+03
2.536900e+03,2.869774e+03
2.539792e+03,2.836915e+03
2.542685e+03,2.823447e+03
2.545578e+03,2.851938e+03
2.548470e+03,2.824384e+03
2.551363e+03,2.853173e+03
2.554256e+03,2.819527e+03
2.557149e+03,2.812430e+03
2.560041e+03,2.798781e+03
2.562934e+03,2.811773e+03
2.565827e+03,2.778525e+03
2.568719e+03,2.770999e+03
2.571612e+03,2.782254e+03
2.574505e+03,2.763196e+03
2.577397e+03,2.778037e+03
2.580290e+03,2.740185e+03
2.583183e+03,2.728163e+03
2.586075e+03,2.736787e+03
2.588968e+03,2.732107e+03
2.591861e+03,2.726246e+03
2.594754e+03,2.712839e+03
2.597646e+03,2.696034e+03
2.600539e+03,2.703291e+03
2.603432e+03,2.692099e+03
2.606324e+03,2.697810e+03
2.609217e+03,2.662531e+03
2.612110e+03,2.653005e+03
2.615003e+03,2.670954e+03
2.617895e+03,2.685870e+03
2.620788e+03,2.660445e+03
2.623681e+03,2.646217e+03
2.626573e+03,2.643081e+03
2.629466e+03,2.644535e+03
2.632359e+03,2.604082e+03
2.635251e+03,2.599622e+03
2.638144e+03,2.628911e+03
2.641037e+03,2.620960e+03
2.643929e+03,2.594208e+03
2.646822e+03,2.600088e+03
2.649715e+03,2.589492e+03
2.652608e+03,2.572026e+03
2.655500e+03,2.582558e+03
2.658393e+03,2.568097e+03
2.661286e+03,2.542625e+03
2.664178e+03,2.518694e+03
2.667071e+03,2.531286e+03
2.669964e+03,2.526932e+03
2.672857e+03,2.556816e+03
2.675749e+03,2.524421e+03
2.678642e+03,2.509688e+03
2.681535e+03,2.532020e+03
2.684427e+03,2.494593e+03
2.687320e+03,2.484281e+03
2.690213e+03,2.499759e+03
2.693105e+03,2.499910e+03
2.695998e+03,2.472927e+03
2.698891e+03,2.469151e+03
2.701783e+03,2.475049e+03
2.704676e+03,2.460886e+03
2.707569e+03,2.458291e+03
2.710462e+03,2.452525e+03
2.713354e+03,2.431589e+03
2.716247e+03,2.434937e+03
2.719140e+03,2.443329e+03
2.722032e+03,2.443173e+03
2.724925e+03,2.440113e+03
2.727818e+03,2.424587e+03
2.730711e+03,2.391745e+03
2.733603e+03,2.417882e+03
2.736496e+03,2.393117e+03
2.739389e+03,2.408634e+03
2.742281e+03,2.397298e+03
2.745174e+03,2.409781e+03
2.748067e+03,2.391053e+03
2.750959e+03,2.376435e+03
2.753852e+03,2.375601e+03
2.756745e+03,2.346333e+03
2.759637e+03,2.360623e+03
2.762530e+03,2.362087e+03
2.765423e+03,2.365305e+03
2.768316e+03,2.339194e+03
2.771208e+03,2.357877e+03
2.774101e+03,2.328680e+03
2.776994e+03,2.303327e+03
2.779886e+03,2.319978e+03
2.782779e+03,2.306872e+03
2.785672e+03,2.304538e+03
2.788565e+03,2.301356e+03
2.791457e+03,2.306688e+03
2.794350e+03,2.317744e+03
2.797243e+03,2.311562e+03
2.800135e+03,2.293598e+03
2.803028e+03,2.286163e+03
2.805921e+03,2.276917e+03
2.808813e+03,2.316831e+03
2.811706e+03,2.254415e+03
2.814599e+03,2.261454e+03
2.817491e+03,2.252836e+03
2.820384e+03,2.270292e+03
2.823277e+03,2.233080e+03
2.826170e+03,2.245532e+03
2.829062e+03,2.256583e+03
2.831955e+03,2.200158e+03
2.834848e+03,2.249006e+03
2.837740e+03,2.263261e+03
2.840633e+03,2.227983e+03
2.843526e+03,2.248056e+03
2.846419e+03,2.214643e+03
2.849311e+03,2.219619e+03
2.852204e+03,2.253146e+03
2.855097e+03,2.216205e+03
2.857990e+03,2.237481e+03
2.860882e+03,2.225786e+03
2.863775e+03,2.202025e+03
2.866667e+03,2.192203e+03
2.869560e+03,2.176363e+03
2.872453e+03,2.221414e+03
2.875345e+03,2.196341e+03
2.878238e+03,2.189127e+03
2.881131e+03,2.218243e+03
2.884024e+03,2.196076e+03
2.886916e+03,2.224904e+03
2.889809e+03,2.204310e+03
2.892702e+03,2.176373e+03
2.895594e+03,2.161725e+03
2.898487e+03,2.176504e+03
2.901380e+03,2.195825e+03
2.904273e+03,2.146467e+03
2.907165e+03,2.161493e+03
2.910058e+03,2.115383e+03
2.912951e+03,2.139007e+03
2.915844e+03,2.106351e+03
2.918736e+03,2.145490e+03
2.921629e+03,2.136072e+03
2.924521e+03,2.097695e+03
2.927414e+03,2.102810e+03
2.930307e+03,2.099612e+03
2.933199e+03,2.106613e+03
2.936092e+03,2.104433e+03
2.938985e+03,2.156758e+03
2.941878e+03,2.070175e+03
2.944770e+03,2.124128e+03
2.947663e+03,2.080529e+03
2.950556e+03,2.120398e+03
2.953448e+03,2.068435e+03
2.956341e+03,2.145838e+03
2.959234e+03,2.100751e+03
2.962127e+03,2.075761e+03
2.965019e+03,2.072016e+03
2.967912e+03,2.034930e+03
2.970805e+03,2.057553e+03
2.973698e+03,2.028993e+03
2.976590e+03,2.039061e+03
2.979483e+03,2.019252e+03
2.982375e+03,2.012298e+03
2.985268e+03,2.021728e+03
2.988161e+03,2.021802e+03
2.991053e+03,1.996423e+03
2.993946e+03,1.995187e+03
2.996839e+03,2.016619e+03
2.999732e+03,2.005439e+03
3.002624e+03,1.993643e+03
3.005517e+03,2.009203e+03
3.008410e+03,1.990923e+03
3.011302e+03,2.020897e+03
3.014195e+03,1.931759e+03
3.017088e+03,1.995223e+03
3.019981e+03,2.001363e+03
3.022873e+03,1.994141e+03
3.025766e+03,2.018622e+03
3.028659e+03,2.002872e+03
3.031552e+03,1.976642e+03
3.034444e+03,1.945292e+03
3.037337e+03,1.959013e+03
3.040229e+03,1.979540e+03
3.043122e+03,1.992056e+03
3.046015e+03,1.982231e+03
3.048907e+03,1.903199e+03
3.051800e+03,1.958243e+03
3.054693e+03,1.952256e+03
3.057586e+03,1.971676e+03
3.060478e+03,1.931359e+03
3.063371e+03,1.965518e+03
3.066264e+03,1.950276e+03
3.069156e+03,1.928706e+03
3.072049e+03,1.935034e+03
3.074942e+03,1.904813e+03
3.077835e+03,1.941815e+03
3.080727e+03,1.928867e+03
3.083620e+03,1.906636e+03
3.086513e+03,1.901745e+03
3.089406e+03,1.949736e+03
3.092298e+03,1.958069e+03
3.095191e+03,1.966331e+03
3.098083e+03,1.923537e+03
3.100976e+03,1.964771e+03
3.103869e+03,1.936967e+03
3.106761e+03,1.902030e+03
3.109654e+03,1.942557e+03
3.112547e+03,1.952627e+03
3.115440e+03,1.897544e+03
3.118332e+03,1.913565e+03
3.121225e+03,1.928656e+03
3.124118e+03,1.872792e+03
3.127010e+03,1.877594e+03
3.129903e+03,1.896573e+03
3.132796e+03,1.918436e+03
3.135689e+03,1.917160e+03
3.138581e+03,1.911401e+03
3.141474e+03,1.898298e+03
3.144367e+03,1.916278e+03
3.147260e+03,1.918210e+03
3.150152e+03,1.879912e+03
3.153045e+03,1.897906e+03
3.155938e+03,1.841417e+03
3.158830e+03,1.967570e+03
3.161723e+03,1.898732e+03
3.164615e+03,1.896327e+03
3.167508e+03,1.895394e+03
3.170401e+03,1.860621e+03
3.173294e+03,1.902412e+03
3.176186e+03,1.907679e+03
3.179079e+03,1.841718e+03
3.181972e+03,1.955794e+03
3.184865e+03,1.873717e+03
3.187757e+03,1.931595e+03
3.190650e+03,1.889091e+03
3.193543e+03,1.885205e+03
3.196435e+03,1.915771e+03
3.199328e+03,1.960091e+03
3.200292e+03,1.966888e+03