File: RAMAN_data/20012023_r1/blue frag2.CSV
1.995979e+02,8.295905e+03
2.024906e+02,8.275971e+03
2.053833e+02,8.279303e+03
2.082760e+02,8.250442e+03
2.111687e+02,8.213300e+03
2.140614e+02,8.211990e+03
2.169541e+02,8.184452e+03
2.198468e+02,8.178803e+03
2.227395e+02,8.210788e+03
2.256322e+02,8.148405e+03
2.285249e+02,8.180521e+03
2.314176e+02,8.181600e+03
2.343103e+02,8.141271e+03
2.372030e+02,8.112797e+03
2.400957e+02,8.065511e+03
2.429884e+02,8.044416e+03
2.458811e+02,8.051345e+03
2.487738e+02,8.083143e+03
2.516665e+02,8.148827e+03
2.545592e+02,8.153354e+03
2.574519e+02,8.096758e+03
2.603446e+02,8.042669e+03
2.632373e+02,7.987698e+03
2.661300e+02,7.961608e+03
2.690227e+02,7.939970e+03
2.719154e+02,7.891036e+03
2.748081e+02,7.895490e+03
2.777008e+02,7.880122e+03
2.805935e+02,7.880898e+03
2.834862e+02,7.863471e+03
2.863789e+02,7.815266e+03
2.892716e+02,7.804247e+03
2.921643e+02,7.766348e+03
2.950570e+02,7.740794e+03
2.979497e+02,7.709690e+03
3.008424e+02,7.687622e+03
3.037351e+02,7.664779e+03
3.066278e+02,7.642016e+03
3.095205e+02,7.628608e+03
3.124132e+02,7.611946e+03
3.153059e+02,7.593752e+03
3.181986e+02,7.555215e+03
3.210913e+02,7.553622e+03
3.239840e+02,7.534851e+03
3.268767e+02,7.534719e+03
3.297694e+02,7.501193e+03
3.326621e+02,7.473565e+03
3.355548e+02,7.458644e+03
3.384475e+02,7.438203e+03
3.413402e+02,7.412675e+03
3.442329e+02,7.347882e+03
3.471256e+02,7.382503e+03
3.500183e+02,7.333000e+03
3.529110e+02,7.340419e+03
3.558037e+02,7.302733e+03
3.586964e+02,7.281156e+03
3.615891e+02,7.282542e+03
3.644818e+02,7.231769e+03
3.673745e+02,7.195172e+03
3.702672e+02,7.206362e+03
3.731599e+02,7.181347e+03
3.760526e+02,7.168194e+03
3.789453e+02,7.152568e+03
3.818380e+02,7.092794e+03
3.847307e+02,7.084248e+03
3.876234e+02,7.086208e+03
3.905161e+02,7.067994e+03
3.934088e+02,7.033564e+03
3.963015e+02,7.007777e+03
3.991942e+02,6.969194e+03
4.020869e+02,6.974411e+03
4.049796e+02,6.943725e+03
4.078723e+02,6.943676e+03
4.107650e+02,6.881342e+03
4.136577e+02,6.867674e+03
4.165504e+02,6.873481e+03
4.194431e+02,6.846843e+03
4.223358e+02,6.846032e+03
4.252285e+02,6.793432e+03
4.281212e+02,6.781313e+03
4.310139e+02,6.773281e+03
4.339066e+02,6.752511e+03
4.367993e+02,6.739147e+03
4.396920e+02,6.701962e+03
4.425847e+02,6.698407e+03
4.454774e+02,6.663616e+03
4.483701e+02,6.649722e+03
4.512628e+02,6.627647e+03
4.541555e+02,6.614017e+03
4.570482e+02,6.574663e+03
4.599409e+02,6.554688e+03
4.628336e+02,6.538333e+03
4.657263e+02,6.527388e+03
4.686190e+02,6.496906e+03
4.715117e+02,6.490361e+03
4.744044e+02,6.485891e+03
4.772971e+02,6.582893e+03
4.801898e+02,6.587005e+03
4.830825e+02,6.544334e+03
4.859752e+02,6.458697e+03
4.888679e+02,6.401629e+03
4.917606e+02,6.392868e+03
4.946533e+02,6.387628e+03
4.975460e+02,6.355851e+03
5.004387e+02,6.329830e+03
5.033314e+02,6.310989e+03
5.062241e+02,6.298854e+03
5.091168e+02,6.267120e+03
5.120095e+02,6.267233e+03
5.149022e+02,6.253906e+03
5.177949e+02,6.246114e+03
5.206876e+02,6.213152e+03
5.235803e+02,6.181736e+03
5.264730e+02,6.171820e+03
5.293657e+02,6.183799e+03
5.322584e+02,6.140657e+03
5.351511e+02,6.107888e+03
5.380438e+02,6.097011e+03
5.409365e+02,6.094486e+03
5.438292e+02,6.082116e+03
5.467219e+02,6.078687e+03
5.496146e+02,6.080837e+03
5.525073e+02,6.015672e+03
5.554000e+02,6.012653e+03
5.582927e+02,6.017357e+03
5.611854e+02,5.998577e+03
5.640781e+02,6.011307e+03
5.669708e+02,5.973801e+03
5.698635e+02,5.959687e+03
5.727562e+02,5.938471e+03
5.756489e+02,5.945726e+03
5.785416e+02,5.944021e+03
5.814343e+02,5.923521e+03
5.843270e+02,5.926816e+03
5.872197e+02,5.930392e+03
5.901124e+02,5.943110e+03
5.930051e+02,5.933680e+03
5.958978e+02,5.885459e+03
5.987905e+02,5.850195e+03
6.016832e+02,5.814474e+03
6.045759e+02,5.782859e+03
6.074686e+02,5.799250e+03
6.103613e+02,5.758618e+03
6.132540e+02,5.742487e+03
6.161467e+02,5.731958e+03
6.190394e+02,5.701325e+03
6.219321e+02,5.729315e+03
6.248248e+02,5.718854e+03
6.277175e+02,5.691701e+03
6.306102e+02,5.687128e+03
6.335029e+02,5.676761e+03
6.363956e+02,5.675351e+03
6.392883e+02,5.648503e+03
6.421810e+02,5.641461e+03
6.450737e+02,5.615015e+03
6.479664e+02,5.622647e+03
6.508591e+02,5.609318e+03
6.537518e+02,5.617540e+03
6.566445e+02,5.593674e+03
6.595372e+02,5.562977e+03
6.624299e+02,5.560313e+03
6.653226e+02,5.561502e+03
6.682153e+02,5.564681e+03
6.711080e+02,5.603022e+03
6.740007e+02,5.772110e+03
6.768934e+02,5.942586e+03
6.797861e+02,5.840576e+03
6.826788e+02,5.620803e+03
6.855715e+02,5.532059e+03
6.884642e+02,5.502898e+03
6.913569e+02,5.507021e+03
6.942496e+02,5.478032e+03
6.971423e+02,5.477025e+03
7.000350e+02,5.455552e+03
7.029277e+02,5.441459e+03
7.058204e+02,5.410391e+03
7.087131e+02,5.393509e+03
7.116058e+02,5.385415e+03
7.144985e+02,5.401149e+03
7.173912e+02,5.360001e+03
7.202839e+02,5.341993e+03
7.231766e+02,5.307819e+03
7.260693e+02,5.307691e+03
7.289620e+02,5.281740e+03
7.318547e+02,5.276754e+03
7.347474e+02,5.257579e+03
7.376401e+02,5.304028e+03
7.405328e+02,5.455644e+03
7.434255e+02,5.685354e+03
7.463182e+02,5.666742e+03
7.492109e+02,5.415045e+03
7.521036e+02,5.237785e+03
7.549963e+02,5.209283e+03
7.578890e+02,5.205280e+03
7.607817e+02,5.200347e+03
7.636744e+02,5.168845e+03
7.665671e+02,5.161831e+03
7.694598e+02,5.170210e+03
7.723525e+02,5.144880e+03
7.752452e+02,5.183259e+03
7.781379e+02,5.159662e+03
7.810306e+02,5.126864e+03
7.839233e+02,5.109047e+03
7.868160e+02,5.052413e+03
7.897087e+02,5.056922e+03
7.926014e+02,5.064236e+03
7.954941e+02,5.041504e+03
7.983868e+02,5.042166e+03
8.012795e+02,5.015222e+03
8.041722e+02,5.001009e+03
8.070649e+02,5.006457e+03
8.099576e+02,4.988408e+03
8.128503e+02,4.974939e+03
8.157430e+02,4.959649e+03
8.186357e+02,4.948802e+03
8.215284e+02,4.964920e+03
8.244211e+02,4.960585e+03
8.273138e+02,4.989445e+03
8.302065e+02,4.979813e+03
8.330992e+02,4.943303e+03
8.359919e+02,4.953138e+03
8.388846e+02,4.941391e+03
8.417773e+02,4.947034e+03
8.446700e+02,4.937424e+03
8.475627e+02,4.929017e+03
8.504554e+02,4.894517e+03
8.533481e+02,4.856343e+03
8.562408e+02,4.872537e+03
8.591335e+02,4.832326e+03
8.620262e+02,4.827495e+03
8.649189e+02,4.806079e+03
8.678116e+02,4.803914e+03
8.707043e+02,4.797891e+03
8.735970e+02,4.791693e+03
8.764897e+02,4.786341e+03
8.793824e+02,4.757729e+03
8.822751e+02,4.760033e+03
8.851678e+02,4.775280e+03
8.880605e+02,4.767401e+03
8.909532e+02,4.743960e+03
8.938459e+02,4.695869e+03
8.967386e+02,4.690974e+03
8.996313e+02,4.714903e+03
9.025240e+02,4.680456e+03
9.054167e+02,4.680247e+03
9.083094e+02,4.677771e+03
9.112021e+02,4.658462e+03
9.140948e+02,4.646788e+03
9.169875e+02,4.648451e+03
9.198802e+02,4.627761e+03
9.227729e+02,4.589807e+03
9.256656e+02,4.616208e+03
9.285583e+02,4.645486e+03
9.314510e+02,4.624162e+03
9.343438e+02,4.608371e+03
9.372365e+02,4.600519e+03
9.401292e+02,4.573660e+03
9.430219e+02,4.560088e+03
9.459146e+02,4.591465e+03
9.488073e+02,4.648542e+03
9.517000e+02,4.646923e+03
9.545927e+02,4.590742e+03
9.574854e+02,4.527906e+03
9.603781e+02,4.504909e+03
9.632708e+02,4.507249e+03
9.661635e+02,4.486698e+03
9.690562e+02,4.487484e+03
9.719489e+02,4.484955e+03
9.748416e+02,4.489262e+03
9.777343e+02,4.463952e+03
9.806270e+02,4.461325e+03
9.835197e+02,4.451175e+03
9.864124e+02,4.419259e+03
9.893051e+02,4.433683e+03
9.921978e+02,4.429903e+03
9.950905e+02,4.440931e+03
9.979832e+02,4.434535e+03
1.000876e+03,4.412248e+03
1.003769e+03,4.431304e+03
1.006661e+03,4.434313e+03
1.009554e+03,4.422838e+03
1.012447e+03,4.386018e+03
1.015339e+03,4.372745e+03
1.018232e+03,4.346641e+03
1.021125e+03,4.358384e+03
1.024017e+03,4.357821e+03
1.026910e+03,4.354877e+03
1.029803e+03,4.329173e+03
1.032696e+03,4.324807e+03
1.035588e+03,4.331671e+03
1.038481e+03,4.318446e+03
1.041374e+03,4.332904e+03
1.044266e+03,4.293947e+03
1.047159e+03,4.291784e+03
1.050052e+03,4.283132e+03
1.052944e+03,4.298770e+03
1.055837e+03,4.292137e+03
1.058730e+03,4.262154e+03
1.061623e+03,4.260392e+03
1.064515e+03,4.257271e+03
1.067408e+03,4.286763e+03
1.070301e+03,4.259039e+03
1.073193e+03,4.265657e+03
1.076086e+03,4.261834e+03
1.078979e+03,4.229897e+03
1.081871e+03,4.257737e+03
1.084764e+03,4.263780e+03
1.087657e+03,4.249642e+03
1.090550e+03,4.266795e+03
1.093442e+03,4.233690e+03
1.096335e+03,4.233229e+03
1.099228e+03,4.232324e+03
1.102120e+03,4.247326e+03
1.105013e+03,4.270719e+03
1.107906e+03,4.264314e+03
1.110798e+03,4.237255e+03
1.113691e+03,4.217605e+03
1.116584e+03,4.199846e+03
1.119477e+03,4.189982e+03
1.122369e+03,4.189829e+03
1.125262e+03,4.172896e+03
1.128155e+03,4.178150e+03
1.131047e+03,4.195776e+03
1.133940e+03,4.205648e+03
1.136833e+03,4.254870e+03
1.139725e+03,4.347572e+03
1.142618e+03,4.344870e+03
1.145511e+03,4.239203e+03
1.148404e+03,4.168115e+03
1.151296e+03,4.149662e+03
1.154189e+03,4.135865e+03
1.157082e+03,4.104939e+03
1.159974e+03,4.109583e+03
1.162867e+03,4.102028e+03
1.165760e+03,4.096171e+03
1.168652e+03,4.064959e+03
1.171545e+03,4.085958e+03
1.174438e+03,4.069869e+03
1.177331e+03,4.091517e+03
1.180223e+03,4.097324e+03
1.183116e+03,4.118123e+03
1.186009e+03,4.088188e+03
1.188901e+03,4.104570e+03
1.191794e+03,4.121062e+03
1.194687e+03,4.127593e+03
1.197579e+03,4.086924e+03
1.200472e+03,4.080724e+03
1.203365e+03,4.069292e+03
1.206258e+03,4.060867e+03
1.209150e+03,4.093080e+03
1.212043e+03,4.073890e+03
1.214936e+03,4.062086e+03
1.217828e+03,4.048390e+03
1.220721e+03,4.025840e+03
1.223614e+03,4.010621e+03
1.226506e+03,3.988978e+03
1.229399e+03,3.971901e+03
1.232292e+03,3.963101e+03
1.235185e+03,3.948168e+03
1.238077e+03,3.960532e+03
1.240970e+03,3.942672e+03
1.243863e+03,3.953578e+03
1.246755e+03,3.932369e+03
1.249648e+03,3.930958e+03
1.252541e+03,3.926229e+03
1.255433e+03,3.936821e+03
1.258326e+03,3.909612e+03
1.261219e+03,3.932823e+03
1.264112e+03,3.906967e+03
1.267004e+03,3.907544e+03
1.269897e+03,3.917164e+03
1.272790e+03,3.927957e+03
1.275682e+03,3.916395e+03
1.278575e+03,3.895671e+03
1.281468e+03,3.891650e+03
1.284360e+03,3.871481e+03
1.287253e+03,3.898672e+03
1.290146e+03,3.877766e+03
1.293039e+03,3.909331e+03
1.295931e+03,3.904131e+03
1.298824e+03,3.914236e+03
1.301717e+03,3.963035e+03
1.304609e+03,3.965355e+03
1.307502e+03,3.946049e+03
1.310395e+03,3.918948e+03
1.313287e+03,3.874693e+03
1.316180e+03,3.878464e+03
1.319073e+03,3.886073e+03
1.321966e+03,3.911996e+03
1.324858e+03,3.920996e+03
1.327751e+03,3.912384e+03
1.330644e+03,3.982511e+03
1.333536e+03,4.130490e+03
1.336429e+03,4.270382e+03
1.339322e+03,4.286454e+03
1.342214e+03,4.125738e+03
1.345107e+03,3.973845e+03
1.348000e+03,3.869976e+03
1.350893e+03,3.836242e+03
1.353785e+03,3.819301e+03
1.356678e+03,3.805056e+03
1.359571e+03,3.798932e+03
1.362463e+03,3.783348e+03
1.365356e+03,3.810390e+03
1.368249e+03,3.804625e+03
1.371141e+03,3.797806e+03
1.374034e+03,3.767900e+03
1.376927e+03,3.741406e+03
1.379820e+03,3.741974e+03
1.382712e+03,3.748622e+03
1.385605e+03,3.733836e+03
1.388498e+03,3.720045e+03
1.391390e+03,3.692282e+03
1.394283e+03,3.699630e+03
1.397176e+03,3.701031e+03
1.400068e+03,3.694347e+03
1.402961e+03,3.692513e+03
1.405854e+03,3.670086e+03
1.408747e+03,3.675199e+03
1.411639e+03,3.680933e+03
1.414532e+03,3.674391e+03
1.417425e+03,3.661034e+03
1.420317e+03,3.670487e+03
1.423210e+03,3.665925e+03
1.426103e+03,3.670726e+03
1.428995e+03,3.661526e+03
1.431888e+03,3.654462e+03
1.434781e+03,3.642649e+03
1.437674e+03,3.641724e+03
1.440566e+03,3.639492e+03
1.443459e+03,3.711943e+03
1.446352e+03,3.789602e+03
1.449244e+03,3.796802e+03
1.452137e+03,3.701669e+03
1.455030e+03,3.645754e+03
1.457922e+03,3.622101e+03
1.460815e+03,3.608453e+03
1.463708e+03,3.570456e+03
1.466601e+03,3.598359e+03
1.469493e+03,3.570827e+03
1.472386e+03,3.554148e+03
1.475279e+03,3.569811e+03
1.478171e+03,3.570137e+03
1.481064e+03,3.552329e+03
1.483957e+03,3.547798e+03
1.486849e+03,3.541522e+03
1.489742e+03,3.531102e+03
1.492635e+03,3.524180e+03
1.495528e+03,3.522592e+03
1.498420e+03,3.513662e+03
1.501313e+03,3.498006e+03
1.504206e+03,3.522165e+03
1.507098e+03,3.522473e+03
1.509991e+03,3.528802e+03
1.512884e+03,3.521325e+03
1.515776e+03,3.572061e+03
1.518669e+03,3.660157e+03
1.521562e+03,3.988951e+03
1.524455e+03,4.333332e+03
1.527347e+03,4.265189e+03
1.530240e+03,3.946883e+03
1.533133e+03,3.682304e+03
1.536025e+03,3.578554e+03
1.538918e+03,3.511240e+03
1.541811e+03,3.499333e+03
1.544703e+03,3.480688e+03
1.547596e+03,3.463089e+03
1.550489e+03,3.446610e+03
1.553382e+03,3.432290e+03
1.556274e+03,3.436147e+03
1.559167e+03,3.410412e+03
1.562060e+03,3.412148e+03
1.564952e+03,3.399443e+03
1.567845e+03,3.404241e+03
1.570738e+03,3.384591e+03
1.573630e+03,3.375560e+03
1.576523e+03,3.380451e+03
1.579416e+03,3.387066e+03
1.582309e+03,3.368318e+03
1.585201e+03,3.358012e+03
1.588094e+03,3.375750e+03
1.590987e+03,3.354425e+03
1.593879e+03,3.351280e+03
1.596772e+03,3.332246e+03
1.599665e+03,3.338712e+03
1.602557e+03,3.332241e+03
1.605450e+03,3.334644e+03
1.608343e+03,3.313116e+03
1.611236e+03,3.296185e+03
1.614128e+03,3.297043e+03
1.617021e+03,3.280719e+03
1.619914e+03,3.286069e+03
1.622806e+03,3.239273e+03
1.625699e+03,3.237918e+03
1.628592e+03,3.245464e+03
1.631484e+03,3.224103e+03
1.634377e+03,3.222309e+03
1.637270e+03,3.216525e+03
1.640163e+03,3.187970e+03
1.643055e+03,3.205942e+03
1.645948e+03,3.198380e+03
1.648841e+03,3.180981e+03
1.651733e+03,3.173909e+03
1.654626e+03,3.162503e+03
1.657519e+03,3.148247e+03
1.660411e+03,3.152662e+03
1.663304e+03,3.146986e+03
1.666197e+03,3.138742e+03
1.669090e+03,3.126154e+03
1.671982e+03,3.114534e+03
1.674875e+03,3.098679e+03
1.677768e+03,3.106171e+03
1.680660e+03,3.097233e+03
1.683553e+03,3.075919e+03
1.686446e+03,3.074492e+03
1.689339e+03,3.056847e+03
1.692231e+03,3.064669e+03
1.695124e+03,3.054577e+03
1.698017e+03,3.039106e+03
1.700909e+03,3.056239e+03
1.703802e+03,3.044423e+03
1.706695e+03,3.042821e+03
1.709587e+03,3.039376e+03
1.712480e+03,3.031289e+03
1.715373e+03,3.004464e+03
1.718266e+03,2.998040e+03
1.721158e+03,2.992955e+03
1.724051e+03,2.972388e+03
1.726944e+03,2.977427e+03
1.729836e+03,2.970448e+03
1.732729e+03,2.975085e+03
1.735622e+03,2.944700e+03
1.738514e+03,2.940926e+03
1.741407e+03,2.950315e+03
1.744300e+03,2.945603e+03
1.747193e+03,2.942583e+03
1.750085e+03,2.911176e+03
1.752978e+03,2.919400e+03
1.755871e+03,2.918037e+03
1.758763e+03,2.923082e+03
1.761656e+03,2.891126e+03
1.764549e+03,2.904656e+03
1.767441e+03,2.890132e+03
1.770334e+03,2.900864e+03
1.773227e+03,2.876041e+03
1.776120e+03,2.858819e+03
1.779012e+03,2.863692e+03
1.781905e+03,2.844564e+03
1.784798e+03,2.880051e+03
1.787690e+03,2.858580e+03
1.790583e+03,2.830131e+03
1.793476e+03,2.820834e+03
1.796368e+03,2.833845e+03
1.799261e+03,2.823240e+03
1.802154e+03,2.815741e+03
1.805047e+03,2.802230e+03
1.807939e+03,2.803597e+03
1.810832e+03,2.787461e+03
1.813725e+03,2.783117e+03
1.816617e+03,2.777506e+03
1.819510e+03,2.774756e+03
1.822403e+03,2.766302e+03
1.825295e+03,2.752797e+03
1.828188e+03,2.744323e+03
1.831081e+03,2.759176e+03
1.833974e+03,2.719551e+03
1.836866e+03,2.720058e+03
1.839759e+03,2.739230e+03
1.842652e+03,2.746143e+03
1.845544e+03,2.722167e+03
1.848437e+03,2.722394e+03
1.851330e+03,2.682405e+03
1.854222e+03,2.670459e+03
1.857115e+03,2.693901e+03
1.860008e+03,2.685620e+03
1.862901e+03,2.662759e+03
1.865793e+03,2.663429e+03
1.868686e+03,2.648111e+03
1.871579e+03,2.651853e+03
1.874471e+03,2.642447e+03
1.877364e+03,2.636755e+03
1.880257e+03,2.651836e+03
1.883149e+03,2.638923e+03
1.886042e+03,2.615302e+03
1.888935e+03,2.601499e+03
1.891828e+03,2.600312e+03
1.894720e+03,2.591066e+03
1.897613e+03,2.586263e+03
1.900506e+03,2.585472e+03
1.903398e+03,2.592080e+03
1.906291e+03,2.604355e+03
1.909184e+03,2.588652e+03
1.912076e+03,2.570389e+03
1.914969e+03,2.548963e+03
1.917862e+03,2.536797e+03
1.920755e+03,2.555039e+03
1.923647e+03,2.539027e+03
1.926540e+03,2.542179e+03
1.929433e+03,2.539640e+03
1.932325e+03,2.497085e+03
1.935218e+03,2.497745e+03
1.938111e+03,2.516303e+03
1.941003e+03,2.501165e+03
1.943896e+03,2.473149e+03
1.946789e+03,2.473374e+03
1.949682e+03,2.475509e+03
1.952574e+03,2.476253e+03
1.955467e+03,2.476579e+03
1.958360e+03,2.449347e+03
1.961252e+03,2.458922e+03
1.964145e+03,2.460585e+03
1.967038e+03,2.429567e+03
1.969930e+03,2.436226e+03
1.972823e+03,2.427159e+03
1.975716e+03,2.436888e+03
1.978609e+03,2.407297e+03
1.981501e+03,2.415409e+03
1.984394e+03,2.401398e+03
1.987287e+03,2.403838e+03
1.990179e+03,2.388833e+03
1.993072e+03,2.385165e+03
1.995965e+03,2.392977e+03
1.998857e+03,2.383734e+03
2.001750e+03,2.361021e+03
2.004643e+03,2.376188e+03
2.007536e+03,2.366642e+03
2.010428e+03,2.354915e+03
2.013321e+03,2.334582e+03
2.016214e+03,2.352310e+03
2.019106e+03,2.316920e+03
2.021999e+03,2.348761e+03
2.024892e+03,2.312851e+03
2.027784e+03,2.332857e+03
2.030677e+03,2.315853e+03
2.033570e+03,2.305336e+03
2.036463e+03,2.283005e+03
2.039355e+03,2.269857e+03
2.042248e+03,2.265599e+03
2.045141e+03,2.285585e+03
2.048033e+03,2.268975e+03
2.050926e+03,2.255647e+03
2.053819e+03,2.253724e+03
2.056711e+03,2.253214e+03
2.059604e+03,2.239589e+03
2.062497e+03,2.254395e+03
2.065390e+03,2.242428e+03
2.068282e+03,2.221469e+03
2.071175e+03,2.228986e+03
2.074068e+03,2.219425e+03
2.076960e+03,2.213060e+03
2.079853e+03,2.209157e+03
2.082746e+03,2.208865e+03
2.085638e+03,2.187198e+03
2.088531e+03,2.180920e+03
2.091424e+03,2.187809e+03
2.094316e+03,2.182251e+03
2.097209e+03,2.182217e+03
2.100102e+03,2.190396e+03
2.102995e+03,2.154818e+03
2.105887e+03,2.140366e+03
2.108780e+03,2.158355e+03
2.111673e+03,2.141620e+03
2.114565e+03,2.121566e+03
2.117458e+03,2.110403e+03
2.120351e+03,2.146265e+03
2.123244e+03,2.119982e+03
2.126136e+03,2.117239e+03
2.129029e+03,2.092978e+03
2.131922e+03,2.097895e+03
2.134814e+03,2.091816e+03
2.137707e+03,2.088313e+03
2.140600e+03,2.071385e+03
2.143492e+03,2.091625e+03
2.146385e+03,2.060692e+03
2.149278e+03,2.068207e+03
2.152170e+03,2.071409e+03
2.155063e+03,2.063859e+03
2.157956e+03,2.055662e+03
2.160849e+03,2.016380e+03
2.163741e+03,2.039167e+03
2.166634e+03,2.040784e+03
2.169527e+03,2.036411e+03
2.172419e+03,2.025128e+03
2.175312e+03,2.016081e+03
2.178205e+03,2.000181e+03
2.181098e+03,2.000425e+03
2.183990e+03,1.993094e+03
2.186883e+03,1.999869e+03
2.189776e+03,2.004139e+03
2.192668e+03,1.990046e+03
2.195561e+03,1.981505e+03
2.198454e+03,1.971226e+03
2.201346e+03,1.965213e+03
2.204239e+03,1.973159e+03
2.207132e+03,1.983124e+03
2.210024e+03,1.948685e+03
2.212917e+03,1.925517e+03
2.215810e+03,1.958235e+03
2.218703e+03,1.961789e+03
2.221595e+03,1.919581e+03
2.224488e+03,1.893707e+03
2.227381e+03,1.914781e+03
2.230273e+03,1.920199e+03
2.233166e+03,1.905484e+03
2.236059e+03,1.910599e+03
2.238952e+03,1.887487e+03
2.241844e+03,1.885363e+03
2.244737e+03,1.885925e+03
2.247630e+03,1.866374e+03
2.250522e+03,1.875728e+03
2.253415e+03,1.882344e+03
2.256308e+03,1.852757e+03
2.259200e+03,1.870496e+03
2.262093e+03,1.878808e+03
2.264986e+03,1.860475e+03
2.267879e+03,1.850487e+03
2.270771e+03,1.826390e+03
2.273664e+03,1.816548e+03
2.276557e+03,1.816778e+03
2.279449e+03,1.834684e+03
2.282342e+03,1.818628e+03
2.285235e+03,1.809769e+03
2.288127e+03,1.805509e+03
2.291020e+03,1.789291e+03
2.293913e+03,1.779663e+03
2.296805e+03,1.785371e+03
2.299698e+03,1.801006e+03
2.302591e+03,1.796000e+03
2.305484e+03,1.775679e+03
2.308376e+03,1.736592e+03
2.311269e+03,1.773824e+03
2.314162e+03,1.792708e+03
2.317054e+03,1.746785e+03
2.319947e+03,1.748356e+03
2.322840e+03,1.751168e+03
2.325733e+03,1.757973e+03
2.328625e+03,1.742460e+03
2.331518e+03,1.724109e+03
2.334411e+03,1.742367e+03
2.337303e+03,1.710707e+03
2.340196e+03,1.709972e+03
2.343089e+03,1.724398e+03
2.345981e+03,1.699104e+03
2.348874e+03,1.711676e+03
2.351767e+03,1.674023e+03
2.354659e+03,1.700397e+03
2.357552e+03,1.691974e+03
2.360445e+03,1.695988e+03
2.363338e+03,1.683193e+03
2.366230e+03,1.674113e+03
2.369123e+03,1.648605e+03
2.372016e+03,1.663879e+03
2.374908e+03,1.668009e+03
2.377801e+03,1.660649e+03
2.380694e+03,1.642064e+03
2.383587e+03,1.642821e+03
2.386479e+03,1.647320e+03
2.389372e+03,1.641500e+03
2.392265e+03,1.644919e+03
2.395157e+03,1.626609e+03
2.398050e+03,1.638995e+03
2.400943e+03,1.607578e+03
2.403835e+03,1.609254e+03
2.406728e+03,1.639092e+03
2.409621e+03,1.612166e+03
2.412513e+03,1.622166e+03
2.415406e+03,1.599310e+03
2.418299e+03,1.606375e+03
2.421192e+03,1.608552e+03
2.424084e+03,1.593032e+03
2.426977e+03,1.563437e+03
2.429870e+03,1.581461e+03
2.432762e+03,1.590822e+03
2.435655e+03,1.582679e+03
2.438548e+03,1.579068e+03
2.441441e+03,1.567838e+03
2.444333e+03,1.574234e+03
2.447226e+03,1.545946e+03
2.450119e+03,1.558589e+03
2.453011e+03,1.547611e+03
2.455904e+03,1.538779e+03
2.458797e+03,1.540685e+03
2.461689e+03,1.526584e+03
2.464582e+03,1.573016e+03
2.467475e+03,1.516563e+03
2.470367e+03,1.552616e+03
2.473260e+03,1.528468e+03
2.476153e+03,1.519738e+03
2.479046e+03,1.514995e+03
2.481938e+03,1.532824e+03
2.484831e+03,1.531002e+03
2.487724e+03,1.505310e+03
2.490616e+03,1.514040e+03
2.493509e+03,1.492631e+03
2.496402e+03,1.477692e+03
2.499295e+03,1.498861e+03
2.502187e+03,1.484785e+03
2.505080e+03,1.495285e+03
2.507973e+03,1.481173e+03
2.510865e+03,1.481554e+03
2.513758e+03,1.479858e+03
2.516651e+03,1.472368e+03
2.519543e+03,1.471757e+03
2.522436e+03,1.450994e+03
2.525329e+03,1.461583e+03
2.528221e+03,1.457455e+03
2.531114e+03,1.474223e+03
2.534007e+03,1.454085e+03
2.536900e+03,1.455776e+03
2.539792e+03,1.447741e+03
2.542685e+03,1.453324e+03
2.545578e+03,1.457325e+03
2.548470e+03,1.451338e+03
2.551363e+03,1.432559e+03
2.554256e+03,1.436100e+03
2.557149e+03,1.441979e+03
2.560041e+03,1.424348e+03
2.562934e+03,1.422335e+03
2.565827e+03,1.433642e+03
2.568719e+03,1.412793e+03
2.571612e+03,1.423167e+03
2.574505e+03,1.420587e+03
2.577397e+03,1.407927e+03
2.580290e+03,1.406009e+03
2.583183e+03,1.384528e+03
2.586075e+03,1.390087e+03
2.588968e+03,1.392544e+03
2.591861e+03,1.388580e+03
2.594754e+03,1.402927e+03
2.597646e+03,1.371263e+03
2.600539e+03,1.394676e+03
2.603432e+03,1.386835e+03
2.606324e+03,1.393668e+03
2.609217e+03,1.362616e+03
2.612110e+03,1.357777e+03
2.615003e+03,1.376554e+03
2.617895e+03,1.369280e+03
2.620788e+03,1.368677e+03
2.623681e+03,1.361496e+03
2.626573e+03,1.360739e+03
2.629466e+03,1.344721e+03
2.632359e+03,1.368795e+03
2.635251e+03,1.336299e+03
2.638144e+03,1.368613e+03
2.641037e+03,1.339961e+03
2.643929e+03,1.356091e+03
2.646822e+03,1.343944e+03
2.649715e+03,1.323806e+03
2.652608e+03,1.324176e+03
2.655500e+03,1.336777e+03
2.658393e+03,1.307578e+03
2.661286e+03,1.325741e+03
2.664178e+03,1.328238e+03
2.667071e+03,1.316724e+03
2.669964e+03,1.324033e+03
2.672857e+03,1.318757e+03
2.675749e+03,1.311818e+03
2.678642e+03,1.320561e+03
2.681535e+03,1.312178e+03
2.684427e+03,1.304864e+03
2.687320e+03,1.306929e+03
2.690213e+03,1.285772e+03
2.693105e+03,1.304813e+03
2.695998e+03,1.306003e+03
2.698891e+03,1.294057e+03
2.701783e+03,1.301519e+03
2.704676e+03,1.273205e+03
2.707569e+03,1.268313e+03
2.710462e+03,1.303318e+03
2.713354e+03,1.279584e+03
2.716247e+03,1.287289e+03
2.719140e+03,1.271915e+03
2.722032e+03,1.276413e+03
2.724925e+03,1.268908e+03
2.727818e+03,1.274137e+03
2.730711e+03,1.260453e+03
2.733603e+03,1.262752e+03
2.736496e+03,1.255611e+03
2.739389e+03,1.250128e+03
2.742281e+03,1.257678e+03
2.745174e+03,1.246948e+03
2.748067e+03,1.245003e+03
2.750959e+03,1.249664e+03
2.753852e+03,1.267537e+03
2.756745e+03,1.243553e+03
2.759637e+03,1.220552e+03
2.762530e+03,1.239922e+03
2.765423e+03,1.228943e+03
2.768316e+03,1.230883e+03
2.771208e+03,1.220189e+03
2.774101e+03,1.231840e+03
2.776994e+03,1.235247e+03
2.779886e+03,1.234392e+03
2.782779e+03,1.196659e+03
2.785672e+03,1.217582e+03
2.788565e+03,1.210108e+03
2.791457e+03,1.231778e+03
2.794350e+03,1.231938e+03
2.797243e+03,1.208115e+03
2.800135e+03,1.201523e+03
2.803028e+03,1.224080e+03
2.805921e+03,1.228508e+03
2.808813e+03,1.210586e+03
2.811706e+03,1.196197e+03
2.814599e+03,1.187944e+03
2.817491e+03,1.202663e+03
2.820384e+03,1.195681e+03
2.823277e+03,1.193487e+03
2.826170e+03,1.187146e+03
2.829062e+03,1.210650e+03
2.831955e+03,1.178077e+03
2.834848e+03,1.175133e+03
2.837740e+03,1.197690e+03
2.840633e+03,1.169156e+03
2.843526e+03,1.201972e+03
2.846419e+03,1.169252e+03
2.849311e+03,1.194526e+03
2.852204e+03,1.194930e+03
2.855097e+03,1.173187e+03
2.857990e+03,1.196890e+03
2.860882e+03,1.196920e+03
2.863775e+03,1.185377e+03
2.866667e+03,1.202889e+03
2.869560e+03,1.209277e+03
2.872453e+03,1.180645e+03
2.875345e+03,1.177717e+03
2.878238e+03,1.178041e+03
2.881131e+03,1.190708e+03
2.884024e+03,1.189313e+03
2.886916e+03,1.190161e+03
2.889809e+03,1.167863e+03
2.892702e+03,1.201004e+03
2.895594e+03,1.190839e+03
2.898487e+03,1.201119e+03
2.901380e+03,1.200344e+03
2.904273e+03,1.190543e+03
2.907165e+03,1.200729e+03
2.910058e+03,1.200915e+03
2.912951e+03,1.182349e+03
2.915844e+03,1.158956e+03
2.918736e+03,1.173670e+03
2.921629e+03,1.143380e+03
2.924521e+03,1.157431e+03
2.927414e+03,1.139412e+03
2.930307e+03,1.135688e+03
2.933199e+03,1.169998e+03
2.936092e+03,1.152647e+03
2.938985e+03,1.135937e+03
2.941878e+03,1.147438e+03
2.944770e+03,1.152910e+03
2.947663e+03,1.151915e+03
2.950556e+03,1.152271e+03
2.953448e+03,1.131902e+03
2.956341e+03,1.199282e+03
2.959234e+03,1.167286e+03
2.962127e+03,1.134755e+03
2.965019e+03,1.138706e+03
2.967912e+03,1.121570e+03
2.970805e+03,1.110340e+03
2.973698e+03,1.119222e+03
2.976590e+03,1.129952e+03
2.979483e+03,1.124202e+03
2.982375e+03,1.122130e+03
2.985268e+03,1.127349e+03
2.988161e+03,1.107941e+03
2.991053e+03,1.117231e+03
2.993946e+03,1.083683e+03
2.996839e+03,1.127325e+03
2.999732e+03,1.111696e+03
3.002624e+03,1.110875e+03
3.005517e+03,1.071809e+03
3.008410e+03,1.106889e+03
3.011302e+03,1.116791e+03
3.014195e+03,1.099185e+03
3.017088e+03,1.073414e+03
3.019981e+03,1.101689e+03
3.022873e+03,1.105829e+03
3.025766e+03,1.107586e+03
3.028659e+03,1.085647e+03
3.031552e+03,1.107569e+03
3.034444e+03,1.073793e+03
3.037337e+03,1.098371e+03
3.040229e+03,1.102295e+03
3.043122e+03,1.121537e+03
3.046015e+03,1.059429e+03
3.048907e+03,1.072161e+03
3.051800e+03,1.123005e+03
3.054693e+03,1.103669e+03
3.057586e+03,1.109263e+03
3.060478e+03,1.061921e+03
3.063371e+03,1.078058e+03
3.066264e+03,1.070645e+03
3.069156e+03,1.096286e+03
3.072049e+03,1.117197e+03
3.074942e+03,1.098637e+03
3.077835e+03,1.087547e+03
3.080727e+03,1.117406e+03
3.083620e+03,1.079919e+03
3.086513e+03,1.098154e+03
3.089406e+03,1.102528e+03
3.092298e+03,1.066208e+03
3.095191e+03,1.101995e+03
3.098083e+03,1.110434e+03
3.100976e+03,1.109943e+03
3.103869e+03,1.085134e+03
3.106761e+03,1.086415e+03
3.109654e+03,1.096446e+03
3.112547e+03,1.124139e+03
3.115440e+03,1.065393e+03
3.118332e+03,1.136723e+03
3.121225e+03,1.062448e+03
3.124118e+03,1.093848e+03
3.127010e+03,1.070200e+03
3.129903e+03,1.114064e+03
3.132796e+03,1.063845e+03
3.135689e+03,1.119142e+03
3.138581e+03,1.120853e+03
3.141474e+03,1.120744e+03
3.144367e+03,1.070382e+03
3.147260e+03,1.056744e+03
3.150152e+03,1.108297e+03
3.153045e+03,1.097412e+03
3.155938e+03,1.064006e+03
3.158830e+03,1.085248e+03
3.161723e+03,1.117668e+03
3.164615e+03,1.104080e+03
3.167508e+03,1.095179e+03
3.170401e+03,1.065807e+03
3.173294e+03,1.088209e+03
3.176186e+03,1.155995e+03
3.179079e+03,1.138132e+03
3.181972e+03,1.100511e+03
3.184865e+03,1.105782e+03
3.187757e+03,1.142659e+03
3.190650e+03,1.077708e+03
3.193543e+03,1.066972e+03
3.196435e+03,1.112152e+03
3.199328e+03,1.190460e+03
3.200292e+03,1.208489e+03