File: RAMAN_data/20012023_r1/blue frag3.CSV
1.995979e+02,1.046964e+04
2.024906e+02,1.050564e+04
2.053833e+02,1.054303e+04
2.082760e+02,1.055275e+04
2.111687e+02,1.054622e+04
2.140614e+02,1.057110e+04
2.169541e+02,1.059435e+04
2.198468e+02,1.064671e+04
2.227395e+02,1.067257e+04
2.256322e+02,1.068503e+04
2.285249e+02,1.070199e+04
2.314176e+02,1.075159e+04
2.343103e+02,1.078854e+04
2.372030e+02,1.082920e+04
2.400957e+02,1.083586e+04
2.429884e+02,1.084039e+04
2.458811e+02,1.087555e+04
2.487738e+02,1.091119e+04
2.516665e+02,1.094691e+04
2.545592e+02,1.097477e+04
2.574519e+02,1.097223e+04
2.603446e+02,1.100378e+04
2.632373e+02,1.105562e+04
2.661300e+02,1.109288e+04
2.690227e+02,1.111871e+04
2.719154e+02,1.114331e+04
2.748081e+02,1.116541e+04
2.777008e+02,1.121963e+04
2.805935e+02,1.124688e+04
2.834862e+02,1.127886e+04
2.863789e+02,1.128756e+04
2.892716e+02,1.130667e+04
2.921643e+02,1.133578e+04
2.950570e+02,1.137532e+04
2.979497e+02,1.141115e+04
3.008424e+02,1.142350e+04
3.037351e+02,1.145768e+04
3.066278e+02,1.148101e+04
3.095205e+02,1.151189e+04
3.124132e+02,1.156491e+04
3.153059e+02,1.159377e+04
3.181986e+02,1.160278e+04
3.210913e+02,1.162868e+04
3.239840e+02,1.167008e+04
3.268767e+02,1.171076e+04
3.297694e+02,1.174823e+04
3.326621e+02,1.177917e+04
3.355548e+02,1.179020e+04
3.384475e+02,1.182536e+04
3.413402e+02,1.187475e+04
3.442329e+02,1.193150e+04
3.471256e+02,1.197256e+04
3.500183e+02,1.198235e+04
3.529110e+02,1.201902e+04
3.558037e+02,1.207473e+04
3.586964e+02,1.211193e+04
3.615891e+02,1.215814e+04
3.644818e+02,1.215827e+04
3.673745e+02,1.215997e+04
3.702672e+02,1.222116e+04
3.731599e+02,1.226728e+04
3.760526e+02,1.229588e+04
3.789453e+02,1.234456e+04
3.818380e+02,1.236471e+04
3.847307e+02,1.239503e+04
3.876234e+02,1.244819e+04
3.905161e+02,1.250335e+04
3.934088e+02,1.253735e+04
3.963015e+02,1.256752e+04
3.991942e+02,1.257081e+04
4.020869e+02,1.262381e+04
4.049796e+02,1.266457e+04
4.078723e+02,1.268104e+04
4.107650e+02,1.269492e+04
4.136577e+02,1.271018e+04
4.165504e+02,1.275005e+04
4.194431e+02,1.276957e+04
4.223358e+02,1.278883e+04
4.252285e+02,1.281919e+04
4.281212e+02,1.281947e+04
4.310139e+02,1.281181e+04
4.339066e+02,1.282322e+04
4.367993e+02,1.284871e+04
4.396920e+02,1.285114e+04
4.425847e+02,1.288258e+04
4.454774e+02,1.289430e+04
4.483701e+02,1.288623e+04
4.512628e+02,1.289921e+04
4.541555e+02,1.289746e+04
4.570482e+02,1.285470e+04
4.599409e+02,1.283407e+04
4.628336e+02,1.285868e+04
4.657263e+02,1.288540e+04
4.686190e+02,1.286250e+04
4.715117e+02,1.288486e+04
4.744044e+02,1.295408e+04
4.772971e+02,1.301782e+04
4.801898e+02,1.306144e+04
4.830825e+02,1.297902e+04
4.859752e+02,1.290003e+04
4.888679e+02,1.292908e+04
4.917606e+02,1.292874e+04
4.946533e+02,1.292621e+04
4.975460e+02,1.292577e+04
5.004387e+02,1.291652e+04
5.033314e+02,1.287846e+04
5.062241e+02,1.287122e+04
5.091168e+02,1.283640e+04
5.120095e+02,1.281199e+04
5.149022e+02,1.283826e+04
5.177949e+02,1.285208e+04
5.206876e+02,1.283388e+04
5.235803e+02,1.281571e+04
5.264730e+02,1.282413e+04
5.293657e+02,1.280853e+04
5.322584e+02,1.278867e+04
5.351511e+02,1.277408e+04
5.380438e+02,1.277116e+04
5.409365e+02,1.280619e+04
5.438292e+02,1.279282e+04
5.467219e+02,1.279550e+04
5.496146e+02,1.279911e+04
5.525073e+02,1.272150e+04
5.554000e+02,1.273848e+04
5.582927e+02,1.278522e+04
5.611854e+02,1.279452e+04
5.640781e+02,1.282841e+04
5.669708e+02,1.279392e+04
5.698635e+02,1.276423e+04
5.727562e+02,1.275595e+04
5.756489e+02,1.277284e+04
5.785416e+02,1.277625e+04
5.814343e+02,1.282162e+04
5.843270e+02,1.282359e+04
5.872197e+02,1.283613e+04
5.901124e+02,1.290133e+04
5.930051e+02,1.288360e+04
5.958978e+02,1.282266e+04
5.987905e+02,1.274083e+04
6.016832e+02,1.270411e+04
6.045759e+02,1.264822e+04
6.074686e+02,1.262439e+04
6.103613e+02,1.262405e+04
6.132540e+02,1.260406e+04
6.161467e+02,1.257625e+04
6.190394e+02,1.261854e+04
6.219321e+02,1.259899e+04
6.248248e+02,1.260954e+04
6.277175e+02,1.256306e+04
6.306102e+02,1.254635e+04
6.335029e+02,1.255300e+04
6.363956e+02,1.255949e+04
6.392883e+02,1.252679e+04
6.421810e+02,1.243423e+04
6.450737e+02,1.247951e+04
6.479664e+02,1.244608e+04
6.508591e+02,1.246257e+04
6.537518e+02,1.245346e+04
6.566445e+02,1.241590e+04
6.595372e+02,1.240628e+04
6.624299e+02,1.236639e+04
6.653226e+02,1.243994e+04
6.682153e+02,1.245255e+04
6.711080e+02,1.274117e+04
6.740007e+02,1.320346e+04
6.768934e+02,1.339169e+04
6.797861e+02,1.306333e+04
6.826788e+02,1.261167e+04
6.855715e+02,1.243095e+04
6.884642e+02,1.232622e+04
6.913569e+02,1.233509e+04
6.942496e+02,1.233944e+04
6.971423e+02,1.233954e+04
7.000350e+02,1.229130e+04
7.029277e+02,1.220190e+04
7.058204e+02,1.224992e+04
7.087131e+02,1.225924e+04
7.116058e+02,1.233544e+04
7.144985e+02,1.228444e+04
7.173912e+02,1.221286e+04
7.202839e+02,1.208240e+04
7.231766e+02,1.200082e+04
7.260693e+02,1.198816e+04
7.289620e+02,1.196984e+04
7.318547e+02,1.194784e+04
7.347474e+02,1.199613e+04
7.376401e+02,1.202753e+04
7.405328e+02,1.248068e+04
7.434255e+02,1.327027e+04
7.463182e+02,1.324078e+04
7.492109e+02,1.242516e+04
7.521036e+02,1.193445e+04
7.549963e+02,1.179746e+04
7.578890e+02,1.175126e+04
7.607817e+02,1.175338e+04
7.636744e+02,1.172185e+04
7.665671e+02,1.169701e+04
7.694598e+02,1.171475e+04
7.723525e+02,1.168533e+04
7.752452e+02,1.171551e+04
7.781379e+02,1.168449e+04
7.810306e+02,1.159356e+04
7.839233e+02,1.152148e+04
7.868160e+02,1.148473e+04
7.897087e+02,1.147654e+04
7.926014e+02,1.143422e+04
7.954941e+02,1.139451e+04
7.983868e+02,1.137247e+04
8.012795e+02,1.137914e+04
8.041722e+02,1.131325e+04
8.070649e+02,1.131861e+04
8.099576e+02,1.130925e+04
8.128503e+02,1.126317e+04
8.157430e+02,1.123956e+04
8.186357e+02,1.125779e+04
8.215284e+02,1.126559e+04
8.244211e+02,1.126700e+04
8.273138e+02,1.131267e+04
8.302065e+02,1.133290e+04
8.330992e+02,1.131379e+04
8.359919e+02,1.124986e+04
8.388846e+02,1.119102e+04
8.417773e+02,1.115434e+04
8.446700e+02,1.110021e+04
8.475627e+02,1.109061e+04
8.504554e+02,1.101367e+04
8.533481e+02,1.100270e+04
8.562408e+02,1.096522e+04
8.591335e+02,1.093423e+04
8.620262e+02,1.089158e+04
8.649189e+02,1.086374e+04
8.678116e+02,1.084150e+04
8.707043e+02,1.082120e+04
8.735970e+02,1.079033e+04
8.764897e+02,1.079493e+04
8.793824e+02,1.076047e+04
8.822751e+02,1.068270e+04
8.851678e+02,1.067705e+04
8.880605e+02,1.064823e+04
8.909532e+02,1.060577e+04
8.938459e+02,1.057925e+04
8.967386e+02,1.054460e+04
8.996313e+02,1.051000e+04
9.025240e+02,1.050142e+04
9.054167e+02,1.044093e+04
9.083094e+02,1.038589e+04
9.112021e+02,1.039745e+04
9.140948e+02,1.039075e+04
9.169875e+02,1.037236e+04
9.198802e+02,1.035710e+04
9.227729e+02,1.030778e+04
9.256656e+02,1.029959e+04
9.285583e+02,1.029487e+04
9.314510e+02,1.024737e+04
9.343438e+02,1.025165e+04
9.372365e+02,1.023591e+04
9.401292e+02,1.015858e+04
9.430219e+02,1.018249e+04
9.459146e+02,1.022109e+04
9.488073e+02,1.029516e+04
9.517000e+02,1.017808e+04
9.545927e+02,1.009617e+04
9.574854e+02,1.003917e+04
9.603781e+02,1.001641e+04
9.632708e+02,1.003307e+04
9.661635e+02,9.983723e+03
9.690562e+02,9.948759e+03
9.719489e+02,9.929809e+03
9.748416e+02,9.917708e+03
9.777343e+02,9.896202e+03
9.806270e+02,9.875955e+03
9.835197e+02,9.847482e+03
9.864124e+02,9.782521e+03
9.893051e+02,9.778027e+03
9.921978e+02,9.749140e+03
9.950905e+02,9.765111e+03
9.979832e+02,9.757781e+03
1.000876e+03,9.763888e+03
1.003769e+03,9.732525e+03
1.006661e+03,9.727114e+03
1.009554e+03,9.716522e+03
1.012447e+03,9.657862e+03
1.015339e+03,9.614780e+03
1.018232e+03,9.547733e+03
1.021125e+03,9.547454e+03
1.024017e+03,9.542146e+03
1.026910e+03,9.524577e+03
1.029803e+03,9.528437e+03
1.032696e+03,9.477443e+03
1.035588e+03,9.493713e+03
1.038481e+03,9.461960e+03
1.041374e+03,9.394322e+03
1.044266e+03,9.410475e+03
1.047159e+03,9.386437e+03
1.050052e+03,9.356654e+03
1.052944e+03,9.343591e+03
1.055837e+03,9.325544e+03
1.058730e+03,9.334123e+03
1.061623e+03,9.293645e+03
1.064515e+03,9.275092e+03
1.067408e+03,9.259183e+03
1.070301e+03,9.248118e+03
1.073193e+03,9.256190e+03
1.076086e+03,9.195456e+03
1.078979e+03,9.174736e+03
1.081871e+03,9.176832e+03
1.084764e+03,9.189967e+03
1.087657e+03,9.152721e+03
1.090550e+03,9.135611e+03
1.093442e+03,9.100850e+03
1.096335e+03,9.097549e+03
1.099228e+03,9.123256e+03
1.102120e+03,9.159021e+03
1.105013e+03,9.208142e+03
1.107906e+03,9.123527e+03
1.110798e+03,9.056859e+03
1.113691e+03,9.032656e+03
1.116584e+03,9.021240e+03
1.119477e+03,9.012160e+03
1.122369e+03,9.012334e+03
1.125262e+03,9.002266e+03
1.128155e+03,9.021368e+03
1.131047e+03,9.092818e+03
1.133940e+03,9.273619e+03
1.136833e+03,9.584520e+03
1.139725e+03,9.842225e+03
1.142618e+03,9.576229e+03
1.145511e+03,9.154932e+03
1.148404e+03,8.949896e+03
1.151296e+03,8.844169e+03
1.154189e+03,8.815770e+03
1.157082e+03,8.804043e+03
1.159974e+03,8.820313e+03
1.162867e+03,8.785563e+03
1.165760e+03,8.696760e+03
1.168652e+03,8.655902e+03
1.171545e+03,8.634767e+03
1.174438e+03,8.638942e+03
1.177331e+03,8.727813e+03
1.180223e+03,8.754637e+03
1.183116e+03,8.713786e+03
1.186009e+03,8.659954e+03
1.188901e+03,8.660083e+03
1.191794e+03,8.656074e+03
1.194687e+03,8.647098e+03
1.197579e+03,8.614151e+03
1.200472e+03,8.587812e+03
1.203365e+03,8.519301e+03
1.206258e+03,8.512889e+03
1.209150e+03,8.506645e+03
1.212043e+03,8.501759e+03
1.214936e+03,8.462562e+03
1.217828e+03,8.424104e+03
1.220721e+03,8.410171e+03
1.223614e+03,8.358722e+03
1.226506e+03,8.294171e+03
1.229399e+03,8.317552e+03
1.232292e+03,8.254812e+03
1.235185e+03,8.205858e+03
1.238077e+03,8.215259e+03
1.240970e+03,8.186509e+03
1.243863e+03,8.196458e+03
1.246755e+03,8.171509e+03
1.249648e+03,8.138792e+03
1.252541e+03,8.131236e+03
1.255433e+03,8.151648e+03
1.258326e+03,8.137775e+03
1.261219e+03,8.122758e+03
1.264112e+03,8.099871e+03
1.267004e+03,8.100492e+03
1.269897e+03,8.070846e+03
1.272790e+03,8.091401e+03
1.275682e+03,8.058975e+03
1.278575e+03,8.026871e+03
1.281468e+03,8.013821e+03
1.284360e+03,7.958160e+03
1.287253e+03,7.980959e+03
1.290146e+03,7.996862e+03
1.293039e+03,8.022594e+03
1.295931e+03,8.040464e+03
1.298824e+03,8.051542e+03
1.301717e+03,8.054578e+03
1.304609e+03,8.041133e+03
1.307502e+03,8.005450e+03
1.310395e+03,7.947294e+03
1.313287e+03,7.913205e+03
1.316180e+03,7.923712e+03
1.319073e+03,7.985623e+03
1.321966e+03,8.010362e+03
1.324858e+03,8.087289e+03
1.327751e+03,8.227257e+03
1.330644e+03,8.511348e+03
1.333536e+03,8.873416e+03
1.336429e+03,9.017299e+03
1.339322e+03,8.743578e+03
1.342214e+03,8.251628e+03
1.345107e+03,7.921093e+03
1.348000e+03,7.772961e+03
1.350893e+03,7.721355e+03
1.353785e+03,7.688549e+03
1.356678e+03,7.644838e+03
1.359571e+03,7.601352e+03
1.362463e+03,7.555169e+03
1.365356e+03,7.552749e+03
1.368249e+03,7.543828e+03
1.371141e+03,7.487896e+03
1.374034e+03,7.488705e+03
1.376927e+03,7.442852e+03
1.379820e+03,7.432710e+03
1.382712e+03,7.423492e+03
1.385605e+03,7.388192e+03
1.388498e+03,7.334044e+03
1.391390e+03,7.313006e+03
1.394283e+03,7.295499e+03
1.397176e+03,7.304643e+03
1.400068e+03,7.298275e+03
1.402961e+03,7.289075e+03
1.405854e+03,7.267276e+03
1.408747e+03,7.260880e+03
1.411639e+03,7.249642e+03
1.414532e+03,7.237853e+03
1.417425e+03,7.209132e+03
1.420317e+03,7.236556e+03
1.423210e+03,7.221750e+03
1.426103e+03,7.225904e+03
1.428995e+03,7.171974e+03
1.431888e+03,7.157549e+03
1.434781e+03,7.191539e+03
1.437674e+03,7.234569e+03
1.440566e+03,7.399475e+03
1.443459e+03,7.556910e+03
1.446352e+03,7.524070e+03
1.449244e+03,7.283142e+03
1.452137e+03,7.104044e+03
1.455030e+03,7.028543e+03
1.457922e+03,6.987359e+03
1.460815e+03,6.992227e+03
1.463708e+03,6.954581e+03
1.466601e+03,6.928756e+03
1.469493e+03,6.892142e+03
1.472386e+03,6.869167e+03
1.475279e+03,6.853411e+03
1.478171e+03,6.850673e+03
1.481064e+03,6.817551e+03
1.483957e+03,6.804852e+03
1.486849e+03,6.762007e+03
1.489742e+03,6.786593e+03
1.492635e+03,6.741346e+03
1.495528e+03,6.765623e+03
1.498420e+03,6.728229e+03
1.501313e+03,6.773554e+03
1.504206e+03,6.791511e+03
1.507098e+03,6.844822e+03
1.509991e+03,6.963873e+03
1.512884e+03,7.238451e+03
1.515776e+03,7.861546e+03
1.518669e+03,8.790752e+03
1.521562e+03,9.388085e+03
1.524455e+03,9.029596e+03
1.527347e+03,8.083521e+03
1.530240e+03,7.413972e+03
1.533133e+03,7.024904e+03
1.536025e+03,6.812885e+03
1.538918e+03,6.690528e+03
1.541811e+03,6.568514e+03
1.544703e+03,6.497167e+03
1.547596e+03,6.416583e+03
1.550489e+03,6.386294e+03
1.553382e+03,6.318000e+03
1.556274e+03,6.280181e+03
1.559167e+03,6.251289e+03
1.562060e+03,6.202277e+03
1.564952e+03,6.165656e+03
1.567845e+03,6.157635e+03
1.570738e+03,6.155216e+03
1.573630e+03,6.102947e+03
1.576523e+03,6.121334e+03
1.579416e+03,6.115606e+03
1.582309e+03,6.101470e+03
1.585201e+03,6.050011e+03
1.588094e+03,6.025047e+03
1.590987e+03,6.009393e+03
1.593879e+03,5.981401e+03
1.596772e+03,5.973064e+03
1.599665e+03,5.909526e+03
1.602557e+03,5.881740e+03
1.605450e+03,5.865107e+03
1.608343e+03,5.809915e+03
1.611236e+03,5.801106e+03
1.614128e+03,5.733690e+03
1.617021e+03,5.736908e+03
1.619914e+03,5.704618e+03
1.622806e+03,5.658108e+03
1.625699e+03,5.638080e+03
1.628592e+03,5.612208e+03
1.631484e+03,5.618423e+03
1.634377e+03,5.572966e+03
1.637270e+03,5.542070e+03
1.640163e+03,5.494068e+03
1.643055e+03,5.487235e+03
1.645948e+03,5.465690e+03
1.648841e+03,5.445540e+03
1.651733e+03,5.407955e+03
1.654626e+03,5.373822e+03
1.657519e+03,5.346914e+03
1.660411e+03,5.371541e+03
1.663304e+03,5.308186e+03
1.666197e+03,5.304455e+03
1.669090e+03,5.269748e+03
1.671982e+03,5.229112e+03
1.674875e+03,5.224074e+03
1.677768e+03,5.186683e+03
1.680660e+03,5.180302e+03
1.683553e+03,5.148690e+03
1.686446e+03,5.122461e+03
1.689339e+03,5.119385e+03
1.692231e+03,5.107929e+03
1.695124e+03,5.068602e+03
1.698017e+03,5.032319e+03
1.700909e+03,5.042794e+03
1.703802e+03,5.007944e+03
1.706695e+03,4.984958e+03
1.709587e+03,4.943633e+03
1.712480e+03,4.924269e+03
1.715373e+03,4.890804e+03
1.718266e+03,4.856135e+03
1.721158e+03,4.835493e+03
1.724051e+03,4.829002e+03
1.726944e+03,4.788103e+03
1.729836e+03,4.784897e+03
1.732729e+03,4.780195e+03
1.735622e+03,4.739986e+03
1.738514e+03,4.714172e+03
1.741407e+03,4.696145e+03
1.744300e+03,4.696177e+03
1.747193e+03,4.657932e+03
1.750085e+03,4.677071e+03
1.752978e+03,4.630472e+03
1.755871e+03,4.598696e+03
1.758763e+03,4.567811e+03
1.761656e+03,4.564761e+03
1.764549e+03,4.543362e+03
1.767441e+03,4.520485e+03
1.770334e+03,4.510846e+03
1.773227e+03,4.498070e+03
1.776120e+03,4.462193e+03
1.779012e+03,4.468209e+03
1.781905e+03,4.467171e+03
1.784798e+03,4.439890e+03
1.787690e+03,4.405181e+03
1.790583e+03,4.337775e+03
1.793476e+03,4.358959e+03
1.796368e+03,4.313182e+03
1.799261e+03,4.312186e+03
1.802154e+03,4.266322e+03
1.805047e+03,4.256794e+03
1.807939e+03,4.269332e+03
1.810832e+03,4.243877e+03
1.813725e+03,4.223339e+03
1.816617e+03,4.213904e+03
1.819510e+03,4.221220e+03
1.822403e+03,4.156730e+03
1.825295e+03,4.156526e+03
1.828188e+03,4.140570e+03
1.831081e+03,4.131253e+03
1.833974e+03,4.101894e+03
1.836866e+03,4.083030e+03
1.839759e+03,4.046033e+03
1.842652e+03,4.060995e+03
1.845544e+03,4.020948e+03
1.848437e+03,4.035730e+03
1.851330e+03,3.991167e+03
1.854222e+03,3.955515e+03
1.857115e+03,3.953480e+03
1.860008e+03,3.946898e+03
1.862901e+03,3.943953e+03
1.865793e+03,3.907246e+03
1.868686e+03,3.871166e+03
1.871579e+03,3.874893e+03
1.874471e+03,3.849405e+03
1.877364e+03,3.829481e+03
1.880257e+03,3.838539e+03
1.883149e+03,3.793472e+03
1.886042e+03,3.794383e+03
1.888935e+03,3.766661e+03
1.891828e+03,3.762604e+03
1.894720e+03,3.738986e+03
1.897613e+03,3.709831e+03
1.900506e+03,3.705424e+03
1.903398e+03,3.694295e+03
1.906291e+03,3.705247e+03
1.909184e+03,3.655312e+03
1.912076e+03,3.641547e+03
1.914969e+03,3.618724e+03
1.917862e+03,3.595729e+03
1.920755e+03,3.601512e+03
1.923647e+03,3.602055e+03
1.926540e+03,3.586233e+03
1.929433e+03,3.552735e+03
1.932325e+03,3.534917e+03
1.935218e+03,3.506010e+03
1.938111e+03,3.526651e+03
1.941003e+03,3.498692e+03
1.943896e+03,3.479986e+03
1.946789e+03,3.443238e+03
1.949682e+03,3.451899e+03
1.952574e+03,3.454562e+03
1.955467e+03,3.412570e+03
1.958360e+03,3.427657e+03
1.961252e+03,3.388788e+03
1.964145e+03,3.388361e+03
1.967038e+03,3.349942e+03
1.969930e+03,3.344680e+03
1.972823e+03,3.338889e+03
1.975716e+03,3.336926e+03
1.978609e+03,3.328522e+03
1.981501e+03,3.291747e+03
1.984394e+03,3.276064e+03
1.987287e+03,3.268574e+03
1.990179e+03,3.273529e+03
1.993072e+03,3.239065e+03
1.995965e+03,3.228606e+03
1.998857e+03,3.228641e+03
2.001750e+03,3.213229e+03
2.004643e+03,3.199114e+03
2.007536e+03,3.170881e+03
2.010428e+03,3.159027e+03
2.013321e+03,3.147532e+03
2.016214e+03,3.162064e+03
2.019106e+03,3.134198e+03
2.021999e+03,3.113428e+03
2.024892e+03,3.087583e+03
2.027784e+03,3.089756e+03
2.030677e+03,3.080872e+03
2.033570e+03,3.056522e+03
2.036463e+03,3.049814e+03
2.039355e+03,3.037606e+03
2.042248e+03,3.021469e+03
2.045141e+03,3.001521e+03
2.048033e+03,3.011776e+03
2.050926e+03,2.994477e+03
2.053819e+03,2.965522e+03
2.056711e+03,2.957250e+03
2.059604e+03,2.944340e+03
2.062497e+03,2.943936e+03
2.065390e+03,2.930428e+03
2.068282e+03,2.902637e+03
2.071175e+03,2.893368e+03
2.074068e+03,2.904577e+03
2.076960e+03,2.889906e+03
2.079853e+03,2.899647e+03
2.082746e+03,2.859216e+03
2.085638e+03,2.861663e+03
2.088531e+03,2.858428e+03
2.091424e+03,2.815895e+03
2.094316e+03,2.814697e+03
2.097209e+03,2.822152e+03
2.100102e+03,2.806732e+03
2.102995e+03,2.794595e+03
2.105887e+03,2.759481e+03
2.108780e+03,2.770840e+03
2.111673e+03,2.785089e+03
2.114565e+03,2.716963e+03
2.117458e+03,2.685185e+03
2.120351e+03,2.724364e+03
2.123244e+03,2.725448e+03
2.126136e+03,2.680320e+03
2.129029e+03,2.678001e+03
2.131922e+03,2.680875e+03
2.134814e+03,2.670625e+03
2.137707e+03,2.665378e+03
2.140600e+03,2.644508e+03
2.143492e+03,2.650417e+03
2.146385e+03,2.614844e+03
2.149278e+03,2.611089e+03
2.152170e+03,2.615511e+03
2.155063e+03,2.583570e+03
2.157956e+03,2.575863e+03
2.160849e+03,2.590122e+03
2.163741e+03,2.570470e+03
2.166634e+03,2.561992e+03
2.169527e+03,2.557570e+03
2.172419e+03,2.551172e+03
2.175312e+03,2.528489e+03
2.178205e+03,2.510019e+03
2.181098e+03,2.499382e+03
2.183990e+03,2.494574e+03
2.186883e+03,2.498877e+03
2.189776e+03,2.474122e+03
2.192668e+03,2.469068e+03
2.195561e+03,2.499143e+03
2.198454e+03,2.469444e+03
2.201346e+03,2.465613e+03
2.204239e+03,2.465476e+03
2.207132e+03,2.436880e+03
2.210024e+03,2.417783e+03
2.212917e+03,2.381406e+03
2.215810e+03,2.398125e+03
2.218703e+03,2.396374e+03
2.221595e+03,2.388227e+03
2.224488e+03,2.355037e+03
2.227381e+03,2.350367e+03
2.230273e+03,2.371274e+03
2.233166e+03,2.357152e+03
2.236059e+03,2.338152e+03
2.238952e+03,2.332508e+03
2.241844e+03,2.303537e+03
2.244737e+03,2.283617e+03
2.247630e+03,2.309646e+03
2.250522e+03,2.271108e+03
2.253415e+03,2.282290e+03
2.256308e+03,2.295251e+03
2.259200e+03,2.270789e+03
2.262093e+03,2.282112e+03
2.264986e+03,2.285216e+03
2.267879e+03,2.277156e+03
2.270771e+03,2.247732e+03
2.273664e+03,2.247850e+03
2.276557e+03,2.240942e+03
2.279449e+03,2.206065e+03
2.282342e+03,2.219731e+03
2.285235e+03,2.202272e+03
2.288127e+03,2.186582e+03
2.291020e+03,2.191491e+03
2.293913e+03,2.180582e+03
2.296805e+03,2.152512e+03
2.299698e+03,2.162089e+03
2.302591e+03,2.145823e+03
2.305484e+03,2.142601e+03
2.308376e+03,2.133530e+03
2.311269e+03,2.124218e+03
2.314162e+03,2.111374e+03
2.317054e+03,2.104550e+03
2.319947e+03,2.115927e+03
2.322840e+03,2.105011e+03
2.325733e+03,2.108731e+03
2.328625e+03,2.097107e+03
2.331518e+03,2.065634e+03
2.334411e+03,2.065643e+03
2.337303e+03,2.050628e+03
2.340196e+03,2.041788e+03
2.343089e+03,2.055263e+03
2.345981e+03,2.053395e+03
2.348874e+03,2.033808e+03
2.351767e+03,2.013529e+03
2.354659e+03,2.022876e+03
2.357552e+03,2.030720e+03
2.360445e+03,2.022150e+03
2.363338e+03,2.003133e+03
2.366230e+03,1.985222e+03
2.369123e+03,1.981748e+03
2.372016e+03,2.012958e+03
2.374908e+03,1.980454e+03
2.377801e+03,1.968100e+03
2.380694e+03,1.948339e+03
2.383587e+03,1.983326e+03
2.386479e+03,1.949252e+03
2.389372e+03,1.956866e+03
2.392265e+03,1.954990e+03
2.395157e+03,1.937489e+03
2.398050e+03,1.935044e+03
2.400943e+03,1.933386e+03
2.403835e+03,1.945049e+03
2.406728e+03,1.910698e+03
2.409621e+03,1.923286e+03
2.412513e+03,1.919936e+03
2.415406e+03,1.917413e+03
2.418299e+03,1.904571e+03
2.421192e+03,1.916500e+03
2.424084e+03,1.886441e+03
2.426977e+03,1.900821e+03
2.429870e+03,1.882813e+03
2.432762e+03,1.895095e+03
2.435655e+03,1.864486e+03
2.438548e+03,1.868073e+03
2.441441e+03,1.865934e+03
2.444333e+03,1.846937e+03
2.447226e+03,1.847072e+03
2.450119e+03,1.869182e+03
2.453011e+03,1.840514e+03
2.455904e+03,1.833307e+03
2.458797e+03,1.837807e+03
2.461689e+03,1.833826e+03
2.464582e+03,1.824197e+03
2.467475e+03,1.843427e+03
2.470367e+03,1.822401e+03
2.473260e+03,1.828257e+03
2.476153e+03,1.806998e+03
2.479046e+03,1.827558e+03
2.481938e+03,1.814222e+03
2.484831e+03,1.789957e+03
2.487724e+03,1.802152e+03
2.490616e+03,1.768510e+03
2.493509e+03,1.782720e+03
2.496402e+03,1.783713e+03
2.499295e+03,1.774403e+03
2.502187e+03,1.782933e+03
2.505080e+03,1.798876e+03
2.507973e+03,1.778536e+03
2.510865e+03,1.776232e+03
2.513758e+03,1.766222e+03
2.516651e+03,1.756801e+03
2.519543e+03,1.742436e+03
2.522436e+03,1.745930e+03
2.525329e+03,1.746693e+03
2.528221e+03,1.754870e+03
2.531114e+03,1.750979e+03
2.534007e+03,1.741555e+03
2.536900e+03,1.747680e+03
2.539792e+03,1.738299e+03
2.542685e+03,1.736294e+03
2.545578e+03,1.733457e+03
2.548470e+03,1.739024e+03
2.551363e+03,1.730019e+03
2.554256e+03,1.734874e+03
2.557149e+03,1.720243e+03
2.560041e+03,1.711804e+03
2.562934e+03,1.736079e+03
2.565827e+03,1.712869e+03
2.568719e+03,1.731792e+03
2.571612e+03,1.719649e+03
2.574505e+03,1.736311e+03
2.577397e+03,1.704989e+03
2.580290e+03,1.713244e+03
2.583183e+03,1.717494e+03
2.586075e+03,1.711331e+03
2.588968e+03,1.714831e+03
2.591861e+03,1.695832e+03
2.594754e+03,1.705481e+03
2.597646e+03,1.727749e+03
2.600539e+03,1.695704e+03
2.603432e+03,1.702394e+03
2.606324e+03,1.699486e+03
2.609217e+03,1.690551e+03
2.612110e+03,1.681971e+03
2.615003e+03,1.685094e+03
2.617895e+03,1.692478e+03
2.620788e+03,1.687556e+03
2.623681e+03,1.699612e+03
2.626573e+03,1.701713e+03
2.629466e+03,1.680236e+03
2.632359e+03,1.686843e+03
2.635251e+03,1.678289e+03
2.638144e+03,1.709041e+03
2.641037e+03,1.692358e+03
2.643929e+03,1.681175e+03
2.646822e+03,1.691281e+03
2.649715e+03,1.670578e+03
2.652608e+03,1.697084e+03
2.655500e+03,1.683900e+03
2.658393e+03,1.677941e+03
2.661286e+03,1.706008e+03
2.664178e+03,1.691422e+03
2.667071e+03,1.696032e+03
2.669964e+03,1.700550e+03
2.672857e+03,1.686733e+03
2.675749e+03,1.685565e+03
2.678642e+03,1.675279e+03
2.681535e+03,1.668684e+03
2.684427e+03,1.695672e+03
2.687320e+03,1.678070e+03
2.690213e+03,1.672538e+03
2.693105e+03,1.679681e+03
2.695998e+03,1.680347e+03
2.698891e+03,1.683636e+03
2.701783e+03,1.669818e+03
2.704676e+03,1.689933e+03
2.707569e+03,1.704666e+03
2.710462e+03,1.669233e+03
2.713354e+03,1.704205e+03
2.716247e+03,1.684608e+03
2.719140e+03,1.687563e+03
2.722032e+03,1.697889e+03
2.724925e+03,1.694698e+03
2.727818e+03,1.712542e+03
2.730711e+03,1.683677e+03
2.733603e+03,1.699172e+03
2.736496e+03,1.684447e+03
2.739389e+03,1.692688e+03
2.742281e+03,1.687494e+03
2.745174e+03,1.690052e+03
2.748067e+03,1.688193e+03
2.750959e+03,1.694031e+03
2.753852e+03,1.710725e+03
2.756745e+03,1.683515e+03
2.759637e+03,1.716609e+03
2.762530e+03,1.687712e+03
2.765423e+03,1.698857e+03
2.768316e+03,1.710347e+03
2.771208e+03,1.732971e+03
2.774101e+03,1.711670e+03
2.776994e+03,1.708146e+03
2.779886e+03,1.725023e+03
2.782779e+03,1.704957e+03
2.785672e+03,1.721759e+03
2.788565e+03,1.724497e+03
2.791457e+03,1.730986e+03
2.794350e+03,1.737341e+03
2.797243e+03,1.749407e+03
2.800135e+03,1.754248e+03
2.803028e+03,1.733579e+03
2.805921e+03,1.764063e+03
2.808813e+03,1.720511e+03
2.811706e+03,1.747728e+03
2.814599e+03,1.773711e+03
2.817491e+03,1.767983e+03
2.820384e+03,1.766022e+03
2.823277e+03,1.748311e+03
2.826170e+03,1.772345e+03
2.829062e+03,1.775132e+03
2.831955e+03,1.797064e+03
2.834848e+03,1.766989e+03
2.837740e+03,1.806467e+03
2.840633e+03,1.783366e+03
2.843526e+03,1.806273e+03
2.846419e+03,1.801143e+03
2.849311e+03,1.834800e+03
2.852204e+03,1.838453e+03
2.855097e+03,1.865198e+03
2.857990e+03,1.811229e+03
2.860882e+03,1.817171e+03
2.863775e+03,1.841836e+03
2.866667e+03,1.865906e+03
2.869560e+03,1.891657e+03
2.872453e+03,1.851940e+03
2.875345e+03,1.827349e+03
2.878238e+03,1.877904e+03
2.881131e+03,1.880431e+03
2.884024e+03,1.878462e+03
2.886916e+03,1.874327e+03
2.889809e+03,1.891720e+03
2.892702e+03,1.918848e+03
2.895594e+03,1.893434e+03
2.898487e+03,1.957496e+03
2.901380e+03,1.944767e+03
2.904273e+03,1.941832e+03
2.907165e+03,1.960272e+03
2.910058e+03,1.927982e+03
2.912951e+03,1.936101e+03
2.915844e+03,1.977533e+03
2.918736e+03,1.935538e+03
2.921629e+03,1.947334e+03
2.924521e+03,1.954076e+03
2.927414e+03,1.971459e+03
2.930307e+03,2.012760e+03
2.933199e+03,1.957881e+03
2.936092e+03,1.992332e+03
2.938985e+03,1.967988e+03
2.941878e+03,2.014412e+03
2.944770e+03,2.008085e+03
2.947663e+03,1.999156e+03
2.950556e+03,2.079854e+03
2.953448e+03,2.058019e+03
2.956341e+03,2.078588e+03
2.959234e+03,2.092568e+03
2.962127e+03,2.071156e+03
2.965019e+03,2.057749e+03
2.967912e+03,2.026620e+03
2.970805e+03,2.084370e+03
2.973698e+03,2.078357e+03
2.976590e+03,2.091865e+03
2.979483e+03,2.096260e+03
2.982375e+03,2.090906e+03
2.985268e+03,2.151001e+03
2.988161e+03,2.099811e+03
2.991053e+03,2.104128e+03
2.993946e+03,2.087701e+03
2.996839e+03,2.167468e+03
2.999732e+03,2.132946e+03
3.002624e+03,2.117216e+03
3.005517e+03,2.188294e+03
3.008410e+03,2.198208e+03
3.011302e+03,2.235128e+03
3.014195e+03,2.198530e+03
3.017088e+03,2.176233e+03
3.019981e+03,2.229891e+03
3.022873e+03,2.224198e+03
3.025766e+03,2.252361e+03
3.028659e+03,2.225742e+03
3.031552e+03,2.268072e+03
3.034444e+03,2.298890e+03
3.037337e+03,2.281621e+03
3.040229e+03,2.317505e+03
3.043122e+03,2.339661e+03
3.046015e+03,2.360900e+03
3.048907e+03,2.330608e+03
3.051800e+03,2.359213e+03
3.054693e+03,2.372093e+03
3.057586e+03,2.363837e+03
3.060478e+03,2.406697e+03
3.063371e+03,2.426396e+03
3.066264e+03,2.435408e+03
3.069156e+03,2.410819e+03
3.072049e+03,2.396794e+03
3.074942e+03,2.419386e+03
3.077835e+03,2.389303e+03
3.080727e+03,2.448885e+03
3.083620e+03,2.406674e+03
3.086513e+03,2.461609e+03
3.089406e+03,2.515875e+03
3.092298e+03,2.486487e+03
3.095191e+03,2.543218e+03
3.098083e+03,2.514171e+03
3.100976e+03,2.546890e+03
3.103869e+03,2.591893e+03
3.106761e+03,2.568613e+03
3.109654e+03,2.619645e+03
3.112547e+03,2.559142e+03
3.115440e+03,2.618294e+03
3.118332e+03,2.669297e+03
3.121225e+03,2.629505e+03
3.124118e+03,2.627704e+03
3.127010e+03,2.584821e+03
3.129903e+03,2.680343e+03
3.132796e+03,2.615868e+03
3.135689e+03,2.667237e+03
3.138581e+03,2.756637e+03
3.141474e+03,2.695516e+03
3.144367e+03,2.728597e+03
3.147260e+03,2.752448e+03
3.150152e+03,2.766812e+03
3.153045e+03,2.774900e+03
3.155938e+03,2.794457e+03
3.158830e+03,2.794112e+03
3.161723e+03,2.869103e+03
3.164615e+03,2.932095e+03
3.167508e+03,2.851515e+03
3.170401e+03,2.846257e+03
3.173294e+03,2.936610e+03
3.176186e+03,2.921045e+03
3.179079e+03,2.979709e+03
3.181972e+03,2.948996e+03
3.184865e+03,2.931057e+03
3.187757e+03,2.957292e+03
3.190650e+03,3.003942e+03
3.193543e+03,2.954866e+03
3.196435e+03,3.008016e+03
3.199328e+03,3.117261e+03
3.200292e+03,3.117535e+03