File: RAMAN_data/20012023_r1/blue fibre7.CSV
1.995979e+02,1.043386e+04
2.024906e+02,1.047326e+04
2.053833e+02,1.051707e+04
2.082760e+02,1.054320e+04
2.111687e+02,1.053123e+04
2.140614e+02,1.055425e+04
2.169541e+02,1.058395e+04
2.198468e+02,1.063145e+04
2.227395e+02,1.066529e+04
2.256322e+02,1.065598e+04
2.285249e+02,1.068911e+04
2.314176e+02,1.074361e+04
2.343103e+02,1.076695e+04
2.372030e+02,1.080378e+04
2.400957e+02,1.080504e+04
2.429884e+02,1.080659e+04
2.458811e+02,1.084219e+04
2.487738e+02,1.088613e+04
2.516665e+02,1.092895e+04
2.545592e+02,1.094333e+04
2.574519e+02,1.095028e+04
2.603446e+02,1.099734e+04
2.632373e+02,1.104929e+04
2.661300e+02,1.106478e+04
2.690227e+02,1.110325e+04
2.719154e+02,1.112262e+04
2.748081e+02,1.113420e+04
2.777008e+02,1.119599e+04
2.805935e+02,1.123412e+04
2.834862e+02,1.127516e+04
2.863789e+02,1.127955e+04
2.892716e+02,1.128733e+04
2.921643e+02,1.133089e+04
2.950570e+02,1.135869e+04
2.979497e+02,1.141134e+04
3.008424e+02,1.142012e+04
3.037351e+02,1.144367e+04
3.066278e+02,1.146180e+04
3.095205e+02,1.150567e+04
3.124132e+02,1.154492e+04
3.153059e+02,1.157088e+04
3.181986e+02,1.158497e+04
3.210913e+02,1.160498e+04
3.239840e+02,1.163893e+04
3.268767e+02,1.167330e+04
3.297694e+02,1.170238e+04
3.326621e+02,1.172892e+04
3.355548e+02,1.174965e+04
3.384475e+02,1.179620e+04
3.413402e+02,1.183780e+04
3.442329e+02,1.189000e+04
3.471256e+02,1.191926e+04
3.500183e+02,1.193012e+04
3.529110e+02,1.197154e+04
3.558037e+02,1.200560e+04
3.586964e+02,1.207646e+04
3.615891e+02,1.212057e+04
3.644818e+02,1.211364e+04
3.673745e+02,1.209801e+04
3.702672e+02,1.214874e+04
3.731599e+02,1.219222e+04
3.760526e+02,1.221609e+04
3.789453e+02,1.223564e+04
3.818380e+02,1.225146e+04
3.847307e+02,1.226698e+04
3.876234e+02,1.230299e+04
3.905161e+02,1.235036e+04
3.934088e+02,1.239339e+04
3.963015e+02,1.241408e+04
3.991942e+02,1.243206e+04
4.020869e+02,1.246427e+04
4.049796e+02,1.249614e+04
4.078723e+02,1.254557e+04
4.107650e+02,1.254845e+04
4.136577e+02,1.257500e+04
4.165504e+02,1.259707e+04
4.194431e+02,1.262975e+04
4.223358e+02,1.267513e+04
4.252285e+02,1.268850e+04
4.281212e+02,1.271391e+04
4.310139e+02,1.272285e+04
4.339066e+02,1.277581e+04
4.367993e+02,1.284344e+04
4.396920e+02,1.287369e+04
4.425847e+02,1.290046e+04
4.454774e+02,1.292040e+04
4.483701e+02,1.298705e+04
4.512628e+02,1.300529e+04
4.541555e+02,1.302769e+04
4.570482e+02,1.303765e+04
4.599409e+02,1.303780e+04
4.628336e+02,1.310128e+04
4.657263e+02,1.310252e+04
4.686190e+02,1.314947e+04
4.715117e+02,1.317917e+04
4.744044e+02,1.318372e+04
4.772971e+02,1.321430e+04
4.801898e+02,1.320363e+04
4.830825e+02,1.326104e+04
4.859752e+02,1.327534e+04
4.888679e+02,1.330578e+04
4.917606e+02,1.331650e+04
4.946533e+02,1.332733e+04
4.975460e+02,1.338153e+04
5.004387e+02,1.339110e+04
5.033314e+02,1.338537e+04
5.062241e+02,1.344112e+04
5.091168e+02,1.342532e+04
5.120095e+02,1.347131e+04
5.149022e+02,1.349958e+04
5.177949e+02,1.352112e+04
5.206876e+02,1.353634e+04
5.235803e+02,1.347950e+04
5.264730e+02,1.356160e+04
5.293657e+02,1.357796e+04
5.322584e+02,1.356448e+04
5.351511e+02,1.357433e+04
5.380438e+02,1.358931e+04
5.409365e+02,1.359555e+04
5.438292e+02,1.364300e+04
5.467219e+02,1.365755e+04
5.496146e+02,1.366852e+04
5.525073e+02,1.365641e+04
5.554000e+02,1.364567e+04
5.582927e+02,1.367788e+04
5.611854e+02,1.369356e+04
5.640781e+02,1.377930e+04
5.669708e+02,1.374781e+04
5.698635e+02,1.372771e+04
5.727562e+02,1.372172e+04
5.756489e+02,1.380042e+04
5.785416e+02,1.387939e+04
5.814343e+02,1.391985e+04
5.843270e+02,1.391844e+04
5.872197e+02,1.392547e+04
5.901124e+02,1.395827e+04
5.930051e+02,1.396119e+04
5.958978e+02,1.392881e+04
5.987905e+02,1.392879e+04
6.016832e+02,1.392076e+04
6.045759e+02,1.393827e+04
6.074686e+02,1.391770e+04
6.103613e+02,1.395204e+04
6.132540e+02,1.394828e+04
6.161467e+02,1.392383e+04
6.190394e+02,1.397724e+04
6.219321e+02,1.396090e+04
6.248248e+02,1.394938e+04
6.277175e+02,1.397449e+04
6.306102e+02,1.397489e+04
6.335029e+02,1.400343e+04
6.363956e+02,1.400649e+04
6.392883e+02,1.395609e+04
6.421810e+02,1.397922e+04
6.450737e+02,1.392790e+04
6.479664e+02,1.396619e+04
6.508591e+02,1.405136e+04
6.537518e+02,1.403910e+04
6.566445e+02,1.407171e+04
6.595372e+02,1.404813e+04
6.624299e+02,1.408662e+04
6.653226e+02,1.410359e+04
6.682153e+02,1.414837e+04
6.711080e+02,1.413568e+04
6.740007e+02,1.409161e+04
6.768934e+02,1.408160e+04
6.797861e+02,1.408720e+04
6.826788e+02,1.407267e+04
6.855715e+02,1.405450e+04
6.884642e+02,1.409568e+04
6.913569e+02,1.408916e+04
6.942496e+02,1.410844e+04
6.971423e+02,1.414884e+04
7.000350e+02,1.411704e+04
7.029277e+02,1.410608e+04
7.058204e+02,1.410664e+04
7.087131e+02,1.409815e+04
7.116058e+02,1.410422e+04
7.144985e+02,1.410136e+04
7.173912e+02,1.416265e+04
7.202839e+02,1.413572e+04
7.231766e+02,1.411640e+04
7.260693e+02,1.410553e+04
7.289620e+02,1.414752e+04
7.318547e+02,1.417126e+04
7.347474e+02,1.420692e+04
7.376401e+02,1.422516e+04
7.405328e+02,1.422573e+04
7.434255e+02,1.418444e+04
7.463182e+02,1.422525e+04
7.492109e+02,1.419227e+04
7.521036e+02,1.420307e+04
7.549963e+02,1.422645e+04
7.578890e+02,1.431770e+04
7.607817e+02,1.445139e+04
7.636744e+02,1.442690e+04
7.665671e+02,1.442905e+04
7.694598e+02,1.436601e+04
7.723525e+02,1.426114e+04
7.752452e+02,1.424382e+04
7.781379e+02,1.426564e+04
7.810306e+02,1.424049e+04
7.839233e+02,1.418707e+04
7.868160e+02,1.426068e+04
7.897087e+02,1.428498e+04
7.926014e+02,1.428598e+04
7.954941e+02,1.421434e+04
7.983868e+02,1.423115e+04
8.012795e+02,1.427566e+04
8.041722e+02,1.424780e+04
8.070649e+02,1.425019e+04
8.099576e+02,1.419851e+04
8.128503e+02,1.417394e+04
8.157430e+02,1.416440e+04
8.186357e+02,1.416497e+04
8.215284e+02,1.416487e+04
8.244211e+02,1.415254e+04
8.273138e+02,1.418440e+04
8.302065e+02,1.414798e+04
8.330992e+02,1.415048e+04
8.359919e+02,1.418300e+04
8.388846e+02,1.421029e+04
8.417773e+02,1.422771e+04
8.446700e+02,1.421914e+04
8.475627e+02,1.421480e+04
8.504554e+02,1.417963e+04
8.533481e+02,1.420937e+04
8.562408e+02,1.415613e+04
8.591335e+02,1.417897e+04
8.620262e+02,1.416704e+04
8.649189e+02,1.419609e+04
8.678116e+02,1.417710e+04
8.707043e+02,1.415117e+04
8.735970e+02,1.416449e+04
8.764897e+02,1.412686e+04
8.793824e+02,1.413601e+04
8.822751e+02,1.416844e+04
8.851678e+02,1.418018e+04
8.880605e+02,1.415658e+04
8.909532e+02,1.414118e+04
8.938459e+02,1.413859e+04
8.967386e+02,1.411504e+04
8.996313e+02,1.411104e+04
9.025240e+02,1.411286e+04
9.054167e+02,1.408370e+04
9.083094e+02,1.404210e+04
9.112021e+02,1.405326e+04
9.140948e+02,1.402261e+04
9.169875e+02,1.408060e+04
9.198802e+02,1.402465e+04
9.227729e+02,1.397820e+04
9.256656e+02,1.401719e+04
9.285583e+02,1.402159e+04
9.314510e+02,1.399425e+04
9.343438e+02,1.397790e+04
9.372365e+02,1.398703e+04
9.401292e+02,1.394186e+04
9.430219e+02,1.392832e+04
9.459146e+02,1.390846e+04
9.488073e+02,1.394267e+04
9.517000e+02,1.386363e+04
9.545927e+02,1.383460e+04
9.574854e+02,1.378255e+04
9.603781e+02,1.380535e+04
9.632708e+02,1.377769e+04
9.661635e+02,1.375397e+04
9.690562e+02,1.372166e+04
9.719489e+02,1.367203e+04
9.748416e+02,1.365170e+04
9.777343e+02,1.368968e+04
9.806270e+02,1.365480e+04
9.835197e+02,1.361337e+04
9.864124e+02,1.356603e+04
9.893051e+02,1.354487e+04
9.921978e+02,1.355130e+04
9.950905e+02,1.352577e+04
9.979832e+02,1.351232e+04
1.000876e+03,1.345284e+04
1.003769e+03,1.342215e+04
1.006661e+03,1.344177e+04
1.009554e+03,1.346429e+04
1.012447e+03,1.341858e+04
1.015339e+03,1.335662e+04
1.018232e+03,1.333636e+04
1.021125e+03,1.332367e+04
1.024017e+03,1.332957e+04
1.026910e+03,1.332949e+04
1.029803e+03,1.328668e+04
1.032696e+03,1.324836e+04
1.035588e+03,1.323211e+04
1.038481e+03,1.323248e+04
1.041374e+03,1.320768e+04
1.044266e+03,1.317883e+04
1.047159e+03,1.313241e+04
1.050052e+03,1.309618e+04
1.052944e+03,1.310096e+04
1.055837e+03,1.310048e+04
1.058730e+03,1.306401e+04
1.061623e+03,1.303081e+04
1.064515e+03,1.300896e+04
1.067408e+03,1.299428e+04
1.070301e+03,1.300772e+04
1.073193e+03,1.299277e+04
1.076086e+03,1.294577e+04
1.078979e+03,1.290034e+04
1.081871e+03,1.290441e+04
1.084764e+03,1.289094e+04
1.087657e+03,1.287397e+04
1.090550e+03,1.282595e+04
1.093442e+03,1.275942e+04
1.096335e+03,1.273574e+04
1.099228e+03,1.273254e+04
1.102120e+03,1.271967e+04
1.105013e+03,1.269134e+04
1.107906e+03,1.265762e+04
1.110798e+03,1.262938e+04
1.113691e+03,1.261279e+04
1.116584e+03,1.262312e+04
1.119477e+03,1.261465e+04
1.122369e+03,1.257191e+04
1.125262e+03,1.252245e+04
1.128155e+03,1.251135e+04
1.131047e+03,1.251886e+04
1.133940e+03,1.250538e+04
1.136833e+03,1.246081e+04
1.139725e+03,1.242496e+04
1.142618e+03,1.241501e+04
1.145511e+03,1.240400e+04
1.148404e+03,1.239220e+04
1.151296e+03,1.239692e+04
1.154189e+03,1.235424e+04
1.157082e+03,1.230447e+04
1.159974e+03,1.231113e+04
1.162867e+03,1.232622e+04
1.165760e+03,1.230042e+04
1.168652e+03,1.226258e+04
1.171545e+03,1.222835e+04
1.174438e+03,1.221942e+04
1.177331e+03,1.221896e+04
1.180223e+03,1.222434e+04
1.183116e+03,1.220226e+04
1.186009e+03,1.216541e+04
1.188901e+03,1.215480e+04
1.191794e+03,1.215878e+04
1.194687e+03,1.215199e+04
1.197579e+03,1.216367e+04
1.200472e+03,1.212476e+04
1.203365e+03,1.207488e+04
1.206258e+03,1.207408e+04
1.209150e+03,1.210635e+04
1.212043e+03,1.210827e+04
1.214936e+03,1.207852e+04
1.217828e+03,1.206533e+04
1.220721e+03,1.206292e+04
1.223614e+03,1.208614e+04
1.226506e+03,1.208992e+04
1.229399e+03,1.209398e+04
1.232292e+03,1.205400e+04
1.235185e+03,1.203624e+04
1.238077e+03,1.206109e+04
1.240970e+03,1.209601e+04
1.243863e+03,1.208701e+04
1.246755e+03,1.206604e+04
1.249648e+03,1.205246e+04
1.252541e+03,1.206874e+04
1.255433e+03,1.208109e+04
1.258326e+03,1.210036e+04
1.261219e+03,1.208576e+04
1.264112e+03,1.206358e+04
1.267004e+03,1.206713e+04
1.269897e+03,1.208969e+04
1.272790e+03,1.213244e+04
1.275682e+03,1.211832e+04
1.278575e+03,1.210388e+04
1.281468e+03,1.208050e+04
1.284360e+03,1.211078e+04
1.287253e+03,1.213897e+04
1.290146e+03,1.213952e+04
1.293039e+03,1.213763e+04
1.295931e+03,1.212777e+04
1.298824e+03,1.214152e+04
1.301717e+03,1.217306e+04
1.304609e+03,1.220968e+04
1.307502e+03,1.219931e+04
1.310395e+03,1.220083e+04
1.313287e+03,1.220867e+04
1.316180e+03,1.222983e+04
1.319073e+03,1.227336e+04
1.321966e+03,1.226999e+04
1.324858e+03,1.225254e+04
1.327751e+03,1.227167e+04
1.330644e+03,1.230208e+04
1.333536e+03,1.233858e+04
1.336429e+03,1.235397e+04
1.339322e+03,1.236213e+04
1.342214e+03,1.236083e+04
1.345107e+03,1.237413e+04
1.348000e+03,1.240926e+04
1.350893e+03,1.242690e+04
1.353785e+03,1.245105e+04
1.356678e+03,1.244352e+04
1.359571e+03,1.245997e+04
1.362463e+03,1.247704e+04
1.365356e+03,1.252379e+04
1.368249e+03,1.253638e+04
1.371141e+03,1.254276e+04
1.374034e+03,1.253410e+04
1.376927e+03,1.253844e+04
1.379820e+03,1.258623e+04
1.382712e+03,1.260456e+04
1.385605e+03,1.262800e+04
1.388498e+03,1.262957e+04
1.391390e+03,1.263105e+04
1.394283e+03,1.268651e+04
1.397176e+03,1.270380e+04
1.400068e+03,1.275313e+04
1.402961e+03,1.272648e+04
1.405854e+03,1.274443e+04
1.408747e+03,1.275718e+04
1.411639e+03,1.281412e+04
1.414532e+03,1.281150e+04
1.417425e+03,1.282272e+04
1.420317e+03,1.281833e+04
1.423210e+03,1.280162e+04
1.426103e+03,1.284082e+04
1.428995e+03,1.282004e+04
1.431888e+03,1.280326e+04
1.434781e+03,1.281430e+04
1.437674e+03,1.277113e+04
1.440566e+03,1.277756e+04
1.443459e+03,1.280411e+04
1.446352e+03,1.281482e+04
1.449244e+03,1.278851e+04
1.452137e+03,1.270702e+04
1.455030e+03,1.273269e+04
1.457922e+03,1.272870e+04
1.460815e+03,1.274311e+04
1.463708e+03,1.273121e+04
1.466601e+03,1.269090e+04
1.469493e+03,1.271165e+04
1.472386e+03,1.268601e+04
1.475279e+03,1.269939e+04
1.478171e+03,1.269327e+04
1.481064e+03,1.262647e+04
1.483957e+03,1.261746e+04
1.486849e+03,1.261097e+04
1.489742e+03,1.263317e+04
1.492635e+03,1.261386e+04
1.495528e+03,1.259340e+04
1.498420e+03,1.261792e+04
1.501313e+03,1.257345e+04
1.504206e+03,1.258501e+04
1.507098e+03,1.261503e+04
1.509991e+03,1.261067e+04
1.512884e+03,1.259556e+04
1.515776e+03,1.261715e+04
1.518669e+03,1.260570e+04
1.521562e+03,1.267686e+04
1.524455e+03,1.267374e+04
1.527347e+03,1.262734e+04
1.530240e+03,1.257678e+04
1.533133e+03,1.255004e+04
1.536025e+03,1.248948e+04
1.538918e+03,1.244942e+04
1.541811e+03,1.241234e+04
1.544703e+03,1.240593e+04
1.547596e+03,1.234267e+04
1.550489e+03,1.236294e+04
1.553382e+03,1.233900e+04
1.556274e+03,1.238903e+04
1.559167e+03,1.228576e+04
1.562060e+03,1.229282e+04
1.564952e+03,1.224487e+04
1.567845e+03,1.231148e+04
1.570738e+03,1.223873e+04
1.573630e+03,1.226257e+04
1.576523e+03,1.226093e+04
1.579416e+03,1.223194e+04
1.582309e+03,1.225052e+04
1.585201e+03,1.225321e+04
1.588094e+03,1.226403e+04
1.590987e+03,1.226677e+04
1.593879e+03,1.219421e+04
1.596772e+03,1.222670e+04
1.599665e+03,1.217881e+04
1.602557e+03,1.214244e+04
1.605450e+03,1.210742e+04
1.608343e+03,1.206165e+04
1.611236e+03,1.205057e+04
1.614128e+03,1.206918e+04
1.617021e+03,1.208279e+04
1.619914e+03,1.203747e+04
1.622806e+03,1.204740e+04
1.625699e+03,1.205825e+04
1.628592e+03,1.212542e+04
1.631484e+03,1.210277e+04
1.634377e+03,1.202026e+04
1.637270e+03,1.194204e+04
1.640163e+03,1.189082e+04
1.643055e+03,1.186390e+04
1.645948e+03,1.182474e+04
1.648841e+03,1.186222e+04
1.651733e+03,1.181013e+04
1.654626e+03,1.178302e+04
1.657519e+03,1.178219e+04
1.660411e+03,1.176489e+04
1.663304e+03,1.171399e+04
1.666197e+03,1.171822e+04
1.669090e+03,1.167805e+04
1.671982e+03,1.170734e+04
1.674875e+03,1.170017e+04
1.677768e+03,1.173287e+04
1.680660e+03,1.169816e+04
1.683553e+03,1.171217e+04
1.686446e+03,1.174229e+04
1.689339e+03,1.167782e+04
1.692231e+03,1.171171e+04
1.695124e+03,1.161311e+04
1.698017e+03,1.156445e+04
1.700909e+03,1.154109e+04
1.703802e+03,1.153938e+04
1.706695e+03,1.155148e+04
1.709587e+03,1.153357e+04
1.712480e+03,1.147758e+04
1.715373e+03,1.144341e+04
1.718266e+03,1.144727e+04
1.721158e+03,1.143463e+04
1.724051e+03,1.140949e+04
1.726944e+03,1.137526e+04
1.729836e+03,1.134963e+04
1.732729e+03,1.137662e+04
1.735622e+03,1.134239e+04
1.738514e+03,1.130858e+04
1.741407e+03,1.131379e+04
1.744300e+03,1.131710e+04
1.747193e+03,1.121603e+04
1.750085e+03,1.124268e+04
1.752978e+03,1.125950e+04
1.755871e+03,1.126848e+04
1.758763e+03,1.119765e+04
1.761656e+03,1.112209e+04
1.764549e+03,1.113219e+04
1.767441e+03,1.111990e+04
1.770334e+03,1.114847e+04
1.773227e+03,1.111562e+04
1.776120e+03,1.110208e+04
1.779012e+03,1.103120e+04
1.781905e+03,1.104769e+04
1.784798e+03,1.103214e+04
1.787690e+03,1.101108e+04
1.790583e+03,1.092864e+04
1.793476e+03,1.093372e+04
1.796368e+03,1.092909e+04
1.799261e+03,1.098171e+04
1.802154e+03,1.090484e+04
1.805047e+03,1.085765e+04
1.807939e+03,1.089959e+04
1.810832e+03,1.087194e+04
1.813725e+03,1.088961e+04
1.816617e+03,1.087106e+04
1.819510e+03,1.082962e+04
1.822403e+03,1.082082e+04
1.825295e+03,1.078789e+04
1.828188e+03,1.079426e+04
1.831081e+03,1.082698e+04
1.833974e+03,1.074629e+04
1.836866e+03,1.075649e+04
1.839759e+03,1.074946e+04
1.842652e+03,1.072369e+04
1.845544e+03,1.070416e+04
1.848437e+03,1.071386e+04
1.851330e+03,1.063251e+04
1.854222e+03,1.062949e+04
1.857115e+03,1.059880e+04
1.860008e+03,1.058645e+04
1.862901e+03,1.062364e+04
1.865793e+03,1.058917e+04
1.868686e+03,1.051532e+04
1.871579e+03,1.053605e+04
1.874471e+03,1.054041e+04
1.877364e+03,1.053026e+04
1.880257e+03,1.047673e+04
1.883149e+03,1.040556e+04
1.886042e+03,1.038936e+04
1.888935e+03,1.043283e+04
1.891828e+03,1.041471e+04
1.894720e+03,1.035564e+04
1.897613e+03,1.038542e+04
1.900506e+03,1.036716e+04
1.903398e+03,1.035667e+04
1.906291e+03,1.029097e+04
1.909184e+03,1.026406e+04
1.912076e+03,1.027467e+04
1.914969e+03,1.024021e+04
1.917862e+03,1.016671e+04
1.920755e+03,1.021032e+04
1.923647e+03,1.020318e+04
1.926540e+03,1.021188e+04
1.929433e+03,1.018438e+04
1.932325e+03,1.012728e+04
1.935218e+03,1.008035e+04
1.938111e+03,1.008895e+04
1.941003e+03,1.008632e+04
1.943896e+03,1.008459e+04
1.946789e+03,1.006298e+04
1.949682e+03,9.983404e+03
1.952574e+03,1.001562e+04
1.955467e+03,1.001105e+04
1.958360e+03,1.000030e+04
1.961252e+03,9.945650e+03
1.964145e+03,9.909476e+03
1.967038e+03,9.887182e+03
1.969930e+03,9.924675e+03
1.972823e+03,9.862435e+03
1.975716e+03,9.879303e+03
1.978609e+03,9.868542e+03
1.981501e+03,9.812779e+03
1.984394e+03,9.813222e+03
1.987287e+03,9.818926e+03
1.990179e+03,9.798238e+03
1.993072e+03,9.737281e+03
1.995965e+03,9.729129e+03
1.998857e+03,9.746778e+03
2.001750e+03,9.687168e+03
2.004643e+03,9.626531e+03
2.007536e+03,9.699619e+03
2.010428e+03,9.641879e+03
2.013321e+03,9.613676e+03
2.016214e+03,9.592097e+03
2.019106e+03,9.586017e+03
2.021999e+03,9.550019e+03
2.024892e+03,9.512075e+03
2.027784e+03,9.516832e+03
2.030677e+03,9.508506e+03
2.033570e+03,9.486653e+03
2.036463e+03,9.493101e+03
2.039355e+03,9.458613e+03
2.042248e+03,9.425171e+03
2.045141e+03,9.412521e+03
2.048033e+03,9.422996e+03
2.050926e+03,9.390638e+03
2.053819e+03,9.350290e+03
2.056711e+03,9.305611e+03
2.059604e+03,9.350389e+03
2.062497e+03,9.288780e+03
2.065390e+03,9.280768e+03
2.068282e+03,9.225516e+03
2.071175e+03,9.255835e+03
2.074068e+03,9.223941e+03
2.076960e+03,9.221149e+03
2.079853e+03,9.207720e+03
2.082746e+03,9.171097e+03
2.085638e+03,9.139639e+03
2.088531e+03,9.150173e+03
2.091424e+03,9.132564e+03
2.094316e+03,9.133073e+03
2.097209e+03,9.091329e+03
2.100102e+03,9.085504e+03
2.102995e+03,9.030796e+03
2.105887e+03,9.005984e+03
2.108780e+03,9.056229e+03
2.111673e+03,8.999678e+03
2.114565e+03,8.928368e+03
2.117458e+03,8.880165e+03
2.120351e+03,8.988734e+03
2.123244e+03,8.992486e+03
2.126136e+03,8.876143e+03
2.129029e+03,8.849998e+03
2.131922e+03,8.854326e+03
2.134814e+03,8.819293e+03
2.137707e+03,8.803893e+03
2.140600e+03,8.775561e+03
2.143492e+03,8.734608e+03
2.146385e+03,8.701947e+03
2.149278e+03,8.710501e+03
2.152170e+03,8.774256e+03
2.155063e+03,8.725725e+03
2.157956e+03,8.694763e+03
2.160849e+03,8.642272e+03
2.163741e+03,8.664813e+03
2.166634e+03,8.615765e+03
2.169527e+03,8.640524e+03
2.172419e+03,8.597974e+03
2.175312e+03,8.630904e+03
2.178205e+03,8.560910e+03
2.181098e+03,8.526295e+03
2.183990e+03,8.530804e+03
2.186883e+03,8.537928e+03
2.189776e+03,8.554050e+03
2.192668e+03,8.498686e+03
2.195561e+03,8.463133e+03
2.198454e+03,8.465811e+03
2.201346e+03,8.444369e+03
2.204239e+03,8.433896e+03
2.207132e+03,8.441125e+03
2.210024e+03,8.322825e+03
2.212917e+03,8.313929e+03
2.215810e+03,8.353143e+03
2.218703e+03,8.338205e+03
2.221595e+03,8.297111e+03
2.224488e+03,8.258633e+03
2.227381e+03,8.242117e+03
2.230273e+03,8.243853e+03
2.233166e+03,8.280791e+03
2.236059e+03,8.184071e+03
2.238952e+03,8.140741e+03
2.241844e+03,8.150912e+03
2.244737e+03,8.131739e+03
2.247630e+03,8.127845e+03
2.250522e+03,8.116161e+03
2.253415e+03,8.106115e+03
2.256308e+03,8.060875e+03
2.259200e+03,8.004862e+03
2.262093e+03,8.031234e+03
2.264986e+03,7.982948e+03
2.267879e+03,8.004434e+03
2.270771e+03,7.945378e+03
2.273664e+03,7.952825e+03
2.276557e+03,7.953215e+03
2.279449e+03,7.919257e+03
2.282342e+03,7.941778e+03
2.285235e+03,7.866904e+03
2.288127e+03,7.842070e+03
2.291020e+03,7.835110e+03
2.293913e+03,7.851696e+03
2.296805e+03,7.824713e+03
2.299698e+03,7.855428e+03
2.302591e+03,7.762177e+03
2.305484e+03,7.726967e+03
2.308376e+03,7.738919e+03
2.311269e+03,7.731106e+03
2.314162e+03,7.730478e+03
2.317054e+03,7.743853e+03
2.319947e+03,7.722870e+03
2.322840e+03,7.675092e+03
2.325733e+03,7.628152e+03
2.328625e+03,7.657247e+03
2.331518e+03,7.615404e+03
2.334411e+03,7.570235e+03
2.337303e+03,7.571368e+03
2.340196e+03,7.537991e+03
2.343089e+03,7.563852e+03
2.345981e+03,7.545331e+03
2.348874e+03,7.540804e+03
2.351767e+03,7.492315e+03
2.354659e+03,7.507260e+03
2.357552e+03,7.503439e+03
2.360445e+03,7.502405e+03
2.363338e+03,7.459919e+03
2.366230e+03,7.421823e+03
2.369123e+03,7.418854e+03
2.372016e+03,7.393560e+03
2.374908e+03,7.348612e+03
2.377801e+03,7.355524e+03
2.380694e+03,7.337257e+03
2.383587e+03,7.366320e+03
2.386479e+03,7.341606e+03
2.389372e+03,7.290702e+03
2.392265e+03,7.312889e+03
2.395157e+03,7.261366e+03
2.398050e+03,7.231980e+03
2.400943e+03,7.202018e+03
2.403835e+03,7.238071e+03
2.406728e+03,7.227864e+03
2.409621e+03,7.179001e+03
2.412513e+03,7.149713e+03
2.415406e+03,7.146313e+03
2.418299e+03,7.140108e+03
2.421192e+03,7.128240e+03
2.424084e+03,7.112368e+03
2.426977e+03,7.100259e+03
2.429870e+03,7.119807e+03
2.432762e+03,7.067094e+03
2.435655e+03,7.059060e+03
2.438548e+03,7.023278e+03
2.441441e+03,7.019311e+03
2.444333e+03,6.974244e+03
2.447226e+03,6.976404e+03
2.450119e+03,6.989433e+03
2.453011e+03,6.974102e+03
2.455904e+03,6.951857e+03
2.458797e+03,6.906193e+03
2.461689e+03,6.856916e+03
2.464582e+03,6.872406e+03
2.467475e+03,6.848333e+03
2.470367e+03,6.871335e+03
2.473260e+03,6.825347e+03
2.476153e+03,6.791860e+03
2.479046e+03,6.840115e+03
2.481938e+03,6.826662e+03
2.484831e+03,6.834833e+03
2.487724e+03,6.785515e+03
2.490616e+03,6.781713e+03
2.493509e+03,6.739406e+03
2.496402e+03,6.697916e+03
2.499295e+03,6.750338e+03
2.502187e+03,6.672969e+03
2.505080e+03,6.665624e+03
2.507973e+03,6.677375e+03
2.510865e+03,6.665906e+03
2.513758e+03,6.632944e+03
2.516651e+03,6.598647e+03
2.519543e+03,6.601023e+03
2.522436e+03,6.613646e+03
2.525329e+03,6.580477e+03
2.528221e+03,6.566620e+03
2.531114e+03,6.584708e+03
2.534007e+03,6.553196e+03
2.536900e+03,6.485576e+03
2.539792e+03,6.496654e+03
2.542685e+03,6.499847e+03
2.545578e+03,6.505450e+03
2.548470e+03,6.476393e+03
2.551363e+03,6.431120e+03
2.554256e+03,6.448890e+03
2.557149e+03,6.411675e+03
2.560041e+03,6.445093e+03
2.562934e+03,6.391697e+03
2.565827e+03,6.374792e+03
2.568719e+03,6.387040e+03
2.571612e+03,6.326458e+03
2.574505e+03,6.392812e+03
2.577397e+03,6.316420e+03
2.580290e+03,6.317593e+03
2.583183e+03,6.298772e+03
2.586075e+03,6.282554e+03
2.588968e+03,6.244263e+03
2.591861e+03,6.266228e+03
2.594754e+03,6.259253e+03
2.597646e+03,6.225088e+03
2.600539e+03,6.180837e+03
2.603432e+03,6.212037e+03
2.606324e+03,6.204172e+03
2.609217e+03,6.167529e+03
2.612110e+03,6.173583e+03
2.615003e+03,6.173909e+03
2.617895e+03,6.078639e+03
2.620788e+03,6.162333e+03
2.623681e+03,6.088966e+03
2.626573e+03,6.137592e+03
2.629466e+03,6.094826e+03
2.632359e+03,6.074586e+03
2.635251e+03,6.085746e+03
2.638144e+03,6.024449e+03
2.641037e+03,6.021919e+03
2.643929e+03,6.043054e+03
2.646822e+03,6.025212e+03
2.649715e+03,6.041469e+03
2.652608e+03,5.967197e+03
2.655500e+03,5.966888e+03
2.658393e+03,5.954539e+03
2.661286e+03,5.953022e+03
2.664178e+03,5.921757e+03
2.667071e+03,5.885342e+03
2.669964e+03,5.925837e+03
2.672857e+03,5.929346e+03
2.675749e+03,5.823372e+03
2.678642e+03,5.908244e+03
2.681535e+03,5.849679e+03
2.684427e+03,5.849401e+03
2.687320e+03,5.849020e+03
2.690213e+03,5.795107e+03
2.693105e+03,5.817611e+03
2.695998e+03,5.822866e+03
2.698891e+03,5.810026e+03
2.701783e+03,5.778074e+03
2.704676e+03,5.778384e+03
2.707569e+03,5.750549e+03
2.710462e+03,5.749602e+03
2.713354e+03,5.699479e+03
2.716247e+03,5.687495e+03
2.719140e+03,5.698330e+03
2.722032e+03,5.664039e+03
2.724925e+03,5.634457e+03
2.727818e+03,5.642439e+03
2.730711e+03,5.662443e+03
2.733603e+03,5.632018e+03
2.736496e+03,5.607536e+03
2.739389e+03,5.574523e+03
2.742281e+03,5.598906e+03
2.745174e+03,5.571959e+03
2.748067e+03,5.582328e+03
2.750959e+03,5.520988e+03
2.753852e+03,5.521907e+03
2.756745e+03,5.551764e+03
2.759637e+03,5.527977e+03
2.762530e+03,5.539483e+03
2.765423e+03,5.516609e+03
2.768316e+03,5.476758e+03
2.771208e+03,5.500518e+03
2.774101e+03,5.476126e+03
2.776994e+03,5.496992e+03
2.779886e+03,5.437981e+03
2.782779e+03,5.466352e+03
2.785672e+03,5.448029e+03
2.788565e+03,5.373829e+03
2.791457e+03,5.407541e+03
2.794350e+03,5.395977e+03
2.797243e+03,5.440771e+03
2.800135e+03,5.374513e+03
2.803028e+03,5.326033e+03
2.805921e+03,5.323047e+03
2.808813e+03,5.314307e+03
2.811706e+03,5.309293e+03
2.814599e+03,5.304240e+03
2.817491e+03,5.302720e+03
2.820384e+03,5.264727e+03
2.823277e+03,5.273328e+03
2.826170e+03,5.257211e+03
2.829062e+03,5.260610e+03
2.831955e+03,5.260523e+03
2.834848e+03,5.255052e+03
2.837740e+03,5.216917e+03
2.840633e+03,5.210167e+03
2.843526e+03,5.248803e+03
2.846419e+03,5.187611e+03
2.849311e+03,5.202760e+03
2.852204e+03,5.215397e+03
2.855097e+03,5.169573e+03
2.857990e+03,5.155537e+03
2.860882e+03,5.096063e+03
2.863775e+03,5.119273e+03
2.866667e+03,5.161269e+03
2.869560e+03,5.119239e+03
2.872453e+03,5.116606e+03
2.875345e+03,5.110007e+03
2.878238e+03,5.113559e+03
2.881131e+03,5.039462e+03
2.884024e+03,5.104667e+03
2.886916e+03,5.095618e+03
2.889809e+03,5.133647e+03
2.892702e+03,5.068550e+03
2.895594e+03,5.089648e+03
2.898487e+03,5.043423e+03
2.901380e+03,5.016371e+03
2.904273e+03,5.040361e+03
2.907165e+03,4.996795e+03
2.910058e+03,4.958581e+03
2.912951e+03,4.963171e+03
2.915844e+03,4.948785e+03
2.918736e+03,4.944197e+03
2.921629e+03,4.936068e+03
2.924521e+03,4.935727e+03
2.927414e+03,4.904564e+03
2.930307e+03,4.977321e+03
2.933199e+03,4.932657e+03
2.936092e+03,4.910030e+03
2.938985e+03,4.819486e+03
2.941878e+03,4.814943e+03
2.944770e+03,4.863266e+03
2.947663e+03,4.841521e+03
2.950556e+03,4.835923e+03
2.953448e+03,4.841799e+03
2.956341e+03,4.866375e+03
2.959234e+03,4.851029e+03
2.962127e+03,4.763744e+03
2.965019e+03,4.834290e+03
2.967912e+03,4.796240e+03
2.970805e+03,4.807308e+03
2.973698e+03,4.733357e+03
2.976590e+03,4.752955e+03
2.979483e+03,4.758741e+03
2.982375e+03,4.696815e+03
2.985268e+03,4.705412e+03
2.988161e+03,4.720899e+03
2.991053e+03,4.702620e+03
2.993946e+03,4.706604e+03
2.996839e+03,4.702555e+03
2.999732e+03,4.677396e+03
3.002624e+03,4.657001e+03
3.005517e+03,4.651063e+03
3.008410e+03,4.628188e+03
3.011302e+03,4.680009e+03
3.014195e+03,4.653860e+03
3.017088e+03,4.614038e+03
3.019981e+03,4.651687e+03
3.022873e+03,4.629375e+03
3.025766e+03,4.629630e+03
3.028659e+03,4.633888e+03
3.031552e+03,4.604013e+03
3.034444e+03,4.596310e+03
3.037337e+03,4.536493e+03
3.040229e+03,4.588588e+03
3.043122e+03,4.605133e+03
3.046015e+03,4.573216e+03
3.048907e+03,4.498047e+03
3.051800e+03,4.525862e+03
3.054693e+03,4.517266e+03
3.057586e+03,4.524412e+03
3.060478e+03,4.490673e+03
3.063371e+03,4.535258e+03
3.066264e+03,4.533759e+03
3.069156e+03,4.497464e+03
3.072049e+03,4.455393e+03
3.074942e+03,4.422677e+03
3.077835e+03,4.517655e+03
3.080727e+03,4.452267e+03
3.083620e+03,4.470284e+03
3.086513e+03,4.464736e+03
3.089406e+03,4.430114e+03
3.092298e+03,4.488582e+03
3.095191e+03,4.429875e+03
3.098083e+03,4.425201e+03
3.100976e+03,4.409398e+03
3.103869e+03,4.417865e+03
3.106761e+03,4.395204e+03
3.109654e+03,4.421202e+03
3.112547e+03,4.370389e+03
3.115440e+03,4.363084e+03
3.118332e+03,4.396661e+03
3.121225e+03,4.365910e+03
3.124118e+03,4.318172e+03
3.127010e+03,4.376035e+03
3.129903e+03,4.351807e+03
3.132796e+03,4.344183e+03
3.135689e+03,4.346202e+03
3.138581e+03,4.406969e+03
3.141474e+03,4.346828e+03
3.144367e+03,4.307034e+03
3.147260e+03,4.300547e+03
3.150152e+03,4.309541e+03
3.153045e+03,4.334951e+03
3.155938e+03,4.323006e+03
3.158830e+03,4.251757e+03
3.161723e+03,4.374461e+03
3.164615e+03,4.355254e+03
3.167508e+03,4.364904e+03
3.170401e+03,4.327506e+03
3.173294e+03,4.286251e+03
3.176186e+03,4.362719e+03
3.179079e+03,4.229450e+03
3.181972e+03,4.356988e+03
3.184865e+03,4.304687e+03
3.187757e+03,4.233755e+03
3.190650e+03,4.341679e+03
3.193543e+03,4.267530e+03
3.196435e+03,4.353411e+03
3.199328e+03,4.292348e+03
3.200292e+03,4.300832e+03