File: RAMAN_data/20012023_r1/blue fibre12.CSV
1.995979e+02,2.236085e+03
2.024906e+02,2.238747e+03
2.053833e+02,2.244935e+03
2.082760e+02,2.245307e+03
2.111687e+02,2.224618e+03
2.140614e+02,2.216501e+03
2.169541e+02,2.242759e+03
2.198468e+02,2.250454e+03
2.227395e+02,2.251584e+03
2.256322e+02,2.237038e+03
2.285249e+02,2.241320e+03
2.314176e+02,2.247546e+03
2.343103e+02,2.237577e+03
2.372030e+02,2.248125e+03
2.400957e+02,2.243543e+03
2.429884e+02,2.248744e+03
2.458811e+02,2.248629e+03
2.487738e+02,2.250249e+03
2.516665e+02,2.237536e+03
2.545592e+02,2.251753e+03
2.574519e+02,2.255921e+03
2.603446e+02,2.238450e+03
2.632373e+02,2.247159e+03
2.661300e+02,2.244417e+03
2.690227e+02,2.254358e+03
2.719154e+02,2.254060e+03
2.748081e+02,2.253720e+03
2.777008e+02,2.261396e+03
2.805935e+02,2.255138e+03
2.834862e+02,2.261251e+03
2.863789e+02,2.273842e+03
2.892716e+02,2.268634e+03
2.921643e+02,2.260090e+03
2.950570e+02,2.253279e+03
2.979497e+02,2.255224e+03
3.008424e+02,2.262711e+03
3.037351e+02,2.259014e+03
3.066278e+02,2.243140e+03
3.095205e+02,2.257316e+03
3.124132e+02,2.260419e+03
3.153059e+02,2.259972e+03
3.181986e+02,2.262283e+03
3.210913e+02,2.254822e+03
3.239840e+02,2.259469e+03
3.268767e+02,2.260380e+03
3.297694e+02,2.262750e+03
3.326621e+02,2.264659e+03
3.355548e+02,2.256506e+03
3.384475e+02,2.257310e+03
3.413402e+02,2.269812e+03
3.442329e+02,2.268926e+03
3.471256e+02,2.256876e+03
3.500183e+02,2.261978e+03
3.529110e+02,2.264601e+03
3.558037e+02,2.263911e+03
3.586964e+02,2.276298e+03
3.615891e+02,2.269897e+03
3.644818e+02,2.243332e+03
3.673745e+02,2.247519e+03
3.702672e+02,2.267561e+03
3.731599e+02,2.271141e+03
3.760526e+02,2.282199e+03
3.789453e+02,2.283556e+03
3.818380e+02,2.259064e+03
3.847307e+02,2.250635e+03
3.876234e+02,2.245517e+03
3.905161e+02,2.240449e+03
3.934088e+02,2.239153e+03
3.963015e+02,2.247978e+03
3.991942e+02,2.237479e+03
4.020869e+02,2.249430e+03
4.049796e+02,2.241512e+03
4.078723e+02,2.248760e+03
4.107650e+02,2.224054e+03
4.136577e+02,2.227655e+03
4.165504e+02,2.244089e+03
4.194431e+02,2.241423e+03
4.223358e+02,2.229640e+03
4.252285e+02,2.221336e+03
4.281212e+02,2.221688e+03
4.310139e+02,2.236623e+03
4.339066e+02,2.224692e+03
4.367993e+02,2.224784e+03
4.396920e+02,2.223221e+03
4.425847e+02,2.218329e+03
4.454774e+02,2.217165e+03
4.483701e+02,2.217816e+03
4.512628e+02,2.214200e+03
4.541555e+02,2.222120e+03
4.570482e+02,2.196194e+03
4.599409e+02,2.202218e+03
4.628336e+02,2.198663e+03
4.657263e+02,2.191252e+03
4.686190e+02,2.196525e+03
4.715117e+02,2.182128e+03
4.744044e+02,2.193636e+03
4.772971e+02,2.192307e+03
4.801898e+02,2.190843e+03
4.830825e+02,2.174966e+03
4.859752e+02,2.160628e+03
4.888679e+02,2.180074e+03
4.917606e+02,2.189630e+03
4.946533e+02,2.161855e+03
4.975460e+02,2.187172e+03
5.004387e+02,2.173150e+03
5.033314e+02,2.165566e+03
5.062241e+02,2.171748e+03
5.091168e+02,2.155456e+03
5.120095e+02,2.162483e+03
5.149022e+02,2.173513e+03
5.177949e+02,2.172292e+03
5.206876e+02,2.171561e+03
5.235803e+02,2.152956e+03
5.264730e+02,2.154605e+03
5.293657e+02,2.144882e+03
5.322584e+02,2.134777e+03
5.351511e+02,2.136603e+03
5.380438e+02,2.130347e+03
5.409365e+02,2.132975e+03
5.438292e+02,2.134071e+03
5.467219e+02,2.130372e+03
5.496146e+02,2.125243e+03
5.525073e+02,2.117937e+03
5.554000e+02,2.114078e+03
5.582927e+02,2.121174e+03
5.611854e+02,2.115294e+03
5.640781e+02,2.106409e+03
5.669708e+02,2.095544e+03
5.698635e+02,2.102030e+03
5.727562e+02,2.101049e+03
5.756489e+02,2.117342e+03
5.785416e+02,2.105885e+03
5.814343e+02,2.103401e+03
5.843270e+02,2.089569e+03
5.872197e+02,2.094386e+03
5.901124e+02,2.094363e+03
5.930051e+02,2.102217e+03
5.958978e+02,2.088401e+03
5.987905e+02,2.072250e+03
6.016832e+02,2.068639e+03
6.045759e+02,2.072598e+03
6.074686e+02,2.075459e+03
6.103613e+02,2.085243e+03
6.132540e+02,2.073739e+03
6.161467e+02,2.057358e+03
6.190394e+02,2.059852e+03
6.219321e+02,2.062064e+03
6.248248e+02,2.052885e+03
6.277175e+02,2.060652e+03
6.306102e+02,2.057046e+03
6.335029e+02,2.052932e+03
6.363956e+02,2.050473e+03
6.392883e+02,2.033657e+03
6.421810e+02,2.036410e+03
6.450737e+02,2.042081e+03
6.479664e+02,2.015121e+03
6.508591e+02,2.035964e+03
6.537518e+02,2.022650e+03
6.566445e+02,2.017808e+03
6.595372e+02,2.014689e+03
6.624299e+02,2.016427e+03
6.653226e+02,2.007125e+03
6.682153e+02,2.009534e+03
6.711080e+02,2.029203e+03
6.740007e+02,2.012885e+03
6.768934e+02,2.006284e+03
6.797861e+02,1.990899e+03
6.826788e+02,1.999945e+03
6.855715e+02,1.997360e+03
6.884642e+02,1.988505e+03
6.913569e+02,1.971517e+03
6.942496e+02,1.979966e+03
6.971423e+02,1.974346e+03
7.000350e+02,1.973340e+03
7.029277e+02,1.978609e+03
7.058204e+02,1.972949e+03
7.087131e+02,1.971371e+03
7.116058e+02,1.969856e+03
7.144985e+02,1.957110e+03
7.173912e+02,1.967732e+03
7.202839e+02,1.954197e+03
7.231766e+02,1.942948e+03
7.260693e+02,1.945151e+03
7.289620e+02,1.940432e+03
7.318547e+02,1.928909e+03
7.347474e+02,1.922105e+03
7.376401e+02,1.913784e+03
7.405328e+02,1.920781e+03
7.434255e+02,1.911846e+03
7.463182e+02,1.924490e+03
7.492109e+02,1.914098e+03
7.521036e+02,1.912924e+03
7.549963e+02,1.905108e+03
7.578890e+02,1.920271e+03
7.607817e+02,1.902830e+03
7.636744e+02,1.908344e+03
7.665671e+02,1.888577e+03
7.694598e+02,1.881487e+03
7.723525e+02,1.883385e+03
7.752452e+02,1.873899e+03
7.781379e+02,1.873514e+03
7.810306e+02,1.871102e+03
7.839233e+02,1.876218e+03
7.868160e+02,1.876579e+03
7.897087e+02,1.869795e+03
7.926014e+02,1.852608e+03
7.954941e+02,1.860587e+03
7.983868e+02,1.865568e+03
8.012795e+02,1.851644e+03
8.041722e+02,1.840835e+03
8.070649e+02,1.846565e+03
8.099576e+02,1.847349e+03
8.128503e+02,1.847501e+03
8.157430e+02,1.839271e+03
8.186357e+02,1.837479e+03
8.215284e+02,1.836370e+03
8.244211e+02,1.833197e+03
8.273138e+02,1.819381e+03
8.302065e+02,1.821939e+03
8.330992e+02,1.816009e+03
8.359919e+02,1.815602e+03
8.388846e+02,1.818033e+03
8.417773e+02,1.811111e+03
8.446700e+02,1.791044e+03
8.475627e+02,1.803997e+03
8.504554e+02,1.784624e+03
8.533481e+02,1.794946e+03
8.562408e+02,1.789628e+03
8.591335e+02,1.791995e+03
8.620262e+02,1.786838e+03
8.649189e+02,1.784264e+03
8.678116e+02,1.771897e+03
8.707043e+02,1.785432e+03
8.735970e+02,1.783276e+03
8.764897e+02,1.782835e+03
8.793824e+02,1.766252e+03
8.822751e+02,1.764008e+03
8.851678e+02,1.770419e+03
8.880605e+02,1.755370e+03
8.909532e+02,1.751329e+03
8.938459e+02,1.758432e+03
8.967386e+02,1.732071e+03
8.996313e+02,1.749042e+03
9.025240e+02,1.738088e+03
9.054167e+02,1.732579e+03
9.083094e+02,1.745998e+03
9.112021e+02,1.738934e+03
9.140948e+02,1.722572e+03
9.169875e+02,1.718644e+03
9.198802e+02,1.717059e+03
9.227729e+02,1.717836e+03
9.256656e+02,1.711094e+03
9.285583e+02,1.705801e+03
9.314510e+02,1.714126e+03
9.343438e+02,1.695684e+03
9.372365e+02,1.710631e+03
9.401292e+02,1.687550e+03
9.430219e+02,1.676820e+03
9.459146e+02,1.677512e+03
9.488073e+02,1.683669e+03
9.517000e+02,1.683902e+03
9.545927e+02,1.661563e+03
9.574854e+02,1.659901e+03
9.603781e+02,1.674028e+03
9.632708e+02,1.677569e+03
9.661635e+02,1.672946e+03
9.690562e+02,1.648810e+03
9.719489e+02,1.654679e+03
9.748416e+02,1.644241e+03
9.777343e+02,1.655008e+03
9.806270e+02,1.642255e+03
9.835197e+02,1.632830e+03
9.864124e+02,1.636185e+03
9.893051e+02,1.632943e+03
9.921978e+02,1.625645e+03
9.950905e+02,1.636133e+03
9.979832e+02,1.629320e+03
1.000876e+03,1.621879e+03
1.003769e+03,1.614716e+03
1.006661e+03,1.617422e+03
1.009554e+03,1.619379e+03
1.012447e+03,1.610062e+03
1.015339e+03,1.594066e+03
1.018232e+03,1.595858e+03
1.021125e+03,1.606484e+03
1.024017e+03,1.594418e+03
1.026910e+03,1.592337e+03
1.029803e+03,1.595341e+03
1.032696e+03,1.589980e+03
1.035588e+03,1.589042e+03
1.038481e+03,1.596992e+03
1.041374e+03,1.578085e+03
1.044266e+03,1.580507e+03
1.047159e+03,1.584835e+03
1.050052e+03,1.568762e+03
1.052944e+03,1.582141e+03
1.055837e+03,1.573899e+03
1.058730e+03,1.566634e+03
1.061623e+03,1.556201e+03
1.064515e+03,1.555657e+03
1.067408e+03,1.555443e+03
1.070301e+03,1.565566e+03
1.073193e+03,1.561634e+03
1.076086e+03,1.553763e+03
1.078979e+03,1.553325e+03
1.081871e+03,1.545750e+03
1.084764e+03,1.559547e+03
1.087657e+03,1.569932e+03
1.090550e+03,1.580990e+03
1.093442e+03,1.587868e+03
1.096335e+03,1.559645e+03
1.099228e+03,1.546877e+03
1.102120e+03,1.539514e+03
1.105013e+03,1.537571e+03
1.107906e+03,1.534452e+03
1.110798e+03,1.530246e+03
1.113691e+03,1.526717e+03
1.116584e+03,1.526124e+03
1.119477e+03,1.535312e+03
1.122369e+03,1.530042e+03
1.125262e+03,1.508938e+03
1.128155e+03,1.504385e+03
1.131047e+03,1.488944e+03
1.133940e+03,1.499424e+03
1.136833e+03,1.487873e+03
1.139725e+03,1.490463e+03
1.142618e+03,1.477474e+03
1.145511e+03,1.488072e+03
1.148404e+03,1.485842e+03
1.151296e+03,1.467789e+03
1.154189e+03,1.471062e+03
1.157082e+03,1.468655e+03
1.159974e+03,1.462338e+03
1.162867e+03,1.453947e+03
1.165760e+03,1.452794e+03
1.168652e+03,1.441088e+03
1.171545e+03,1.445238e+03
1.174438e+03,1.443817e+03
1.177331e+03,1.437355e+03
1.180223e+03,1.443693e+03
1.183116e+03,1.437439e+03
1.186009e+03,1.432647e+03
1.188901e+03,1.420432e+03
1.191794e+03,1.422798e+03
1.194687e+03,1.426170e+03
1.197579e+03,1.421413e+03
1.200472e+03,1.421379e+03
1.203365e+03,1.407077e+03
1.206258e+03,1.406761e+03
1.209150e+03,1.419235e+03
1.212043e+03,1.411518e+03
1.214936e+03,1.400260e+03
1.217828e+03,1.393708e+03
1.220721e+03,1.398103e+03
1.223614e+03,1.408927e+03
1.226506e+03,1.402451e+03
1.229399e+03,1.402940e+03
1.232292e+03,1.393373e+03
1.235185e+03,1.383470e+03
1.238077e+03,1.397369e+03
1.240970e+03,1.397539e+03
1.243863e+03,1.389345e+03
1.246755e+03,1.382998e+03
1.249648e+03,1.386920e+03
1.252541e+03,1.378091e+03
1.255433e+03,1.383188e+03
1.258326e+03,1.384066e+03
1.261219e+03,1.372879e+03
1.264112e+03,1.372466e+03
1.267004e+03,1.375285e+03
1.269897e+03,1.382000e+03
1.272790e+03,1.371257e+03
1.275682e+03,1.369400e+03
1.278575e+03,1.363806e+03
1.281468e+03,1.349647e+03
1.284360e+03,1.358247e+03
1.287253e+03,1.350462e+03
1.290146e+03,1.359943e+03
1.293039e+03,1.351152e+03
1.295931e+03,1.340007e+03
1.298824e+03,1.347431e+03
1.301717e+03,1.338326e+03
1.304609e+03,1.333065e+03
1.307502e+03,1.333436e+03
1.310395e+03,1.328496e+03
1.313287e+03,1.328692e+03
1.316180e+03,1.325518e+03
1.319073e+03,1.333327e+03
1.321966e+03,1.337050e+03
1.324858e+03,1.322163e+03
1.327751e+03,1.325787e+03
1.330644e+03,1.330697e+03
1.333536e+03,1.325704e+03
1.336429e+03,1.334467e+03
1.339322e+03,1.314947e+03
1.342214e+03,1.314880e+03
1.345107e+03,1.316954e+03
1.348000e+03,1.308065e+03
1.350893e+03,1.304344e+03
1.353785e+03,1.305311e+03
1.356678e+03,1.292100e+03
1.359571e+03,1.302863e+03
1.362463e+03,1.307943e+03
1.365356e+03,1.301515e+03
1.368249e+03,1.303432e+03
1.371141e+03,1.304905e+03
1.374034e+03,1.293820e+03
1.376927e+03,1.291979e+03
1.379820e+03,1.294823e+03
1.382712e+03,1.291339e+03
1.385605e+03,1.286736e+03
1.388498e+03,1.275382e+03
1.391390e+03,1.271619e+03
1.394283e+03,1.269207e+03
1.397176e+03,1.269180e+03
1.400068e+03,1.262602e+03
1.402961e+03,1.266868e+03
1.405854e+03,1.262944e+03
1.408747e+03,1.253191e+03
1.411639e+03,1.261152e+03
1.414532e+03,1.249107e+03
1.417425e+03,1.258050e+03
1.420317e+03,1.250685e+03
1.423210e+03,1.238632e+03
1.426103e+03,1.231525e+03
1.428995e+03,1.228250e+03
1.431888e+03,1.238857e+03
1.434781e+03,1.236191e+03
1.437674e+03,1.225648e+03
1.440566e+03,1.229489e+03
1.443459e+03,1.221914e+03
1.446352e+03,1.229378e+03
1.449244e+03,1.218447e+03
1.452137e+03,1.223642e+03
1.455030e+03,1.223988e+03
1.457922e+03,1.218996e+03
1.460815e+03,1.216073e+03
1.463708e+03,1.212560e+03
1.466601e+03,1.204422e+03
1.469493e+03,1.205725e+03
1.472386e+03,1.203178e+03
1.475279e+03,1.205932e+03
1.478171e+03,1.202022e+03
1.481064e+03,1.194922e+03
1.483957e+03,1.187678e+03
1.486849e+03,1.195911e+03
1.489742e+03,1.194219e+03
1.492635e+03,1.174300e+03
1.495528e+03,1.176594e+03
1.498420e+03,1.172191e+03
1.501313e+03,1.176653e+03
1.504206e+03,1.173652e+03
1.507098e+03,1.171304e+03
1.509991e+03,1.160033e+03
1.512884e+03,1.165547e+03
1.515776e+03,1.153570e+03
1.518669e+03,1.149637e+03
1.521562e+03,1.167211e+03
1.524455e+03,1.159224e+03
1.527347e+03,1.153731e+03
1.530240e+03,1.150357e+03
1.533133e+03,1.145995e+03
1.536025e+03,1.150831e+03
1.538918e+03,1.146488e+03
1.541811e+03,1.140850e+03
1.544703e+03,1.136814e+03
1.547596e+03,1.138712e+03
1.550489e+03,1.135572e+03
1.553382e+03,1.134342e+03
1.556274e+03,1.130121e+03
1.559167e+03,1.130495e+03
1.562060e+03,1.126392e+03
1.564952e+03,1.123360e+03
1.567845e+03,1.119081e+03
1.570738e+03,1.117609e+03
1.573630e+03,1.107141e+03
1.576523e+03,1.116404e+03
1.579416e+03,1.112572e+03
1.582309e+03,1.110829e+03
1.585201e+03,1.105769e+03
1.588094e+03,1.103050e+03
1.590987e+03,1.106059e+03
1.593879e+03,1.103203e+03
1.596772e+03,1.093364e+03
1.599665e+03,1.097513e+03
1.602557e+03,1.104252e+03
1.605450e+03,1.076965e+03
1.608343e+03,1.078580e+03
1.611236e+03,1.080826e+03
1.614128e+03,1.091353e+03
1.617021e+03,1.089042e+03
1.619914e+03,1.076385e+03
1.622806e+03,1.085542e+03
1.625699e+03,1.072555e+03
1.628592e+03,1.075188e+03
1.631484e+03,1.069087e+03
1.634377e+03,1.070443e+03
1.637270e+03,1.077759e+03
1.640163e+03,1.062842e+03
1.643055e+03,1.063712e+03
1.645948e+03,1.063763e+03
1.648841e+03,1.051678e+03
1.651733e+03,1.045723e+03
1.654626e+03,1.042117e+03
1.657519e+03,1.051658e+03
1.660411e+03,1.047762e+03
1.663304e+03,1.032523e+03
1.666197e+03,1.035325e+03
1.669090e+03,1.038060e+03
1.671982e+03,1.030844e+03
1.674875e+03,1.033853e+03
1.677768e+03,1.028370e+03
1.680660e+03,1.017985e+03
1.683553e+03,1.022466e+03
1.686446e+03,1.017785e+03
1.689339e+03,1.011537e+03
1.692231e+03,1.025310e+03
1.695124e+03,1.015413e+03
1.698017e+03,1.018957e+03
1.700909e+03,1.022972e+03
1.703802e+03,1.007888e+03
1.706695e+03,1.004541e+03
1.709587e+03,9.870843e+02
1.712480e+03,1.011728e+03
1.715373e+03,9.899822e+02
1.718266e+03,9.923273e+02
1.721158e+03,1.000484e+03
1.724051e+03,9.919025e+02
1.726944e+03,9.919821e+02
1.729836e+03,9.816876e+02
1.732729e+03,9.781528e+02
1.735622e+03,9.763011e+02
1.738514e+03,9.782053e+02
1.741407e+03,9.768328e+02
1.744300e+03,9.729280e+02
1.747193e+03,9.731984e+02
1.750085e+03,9.639667e+02
1.752978e+03,9.711496e+02
1.755871e+03,9.632187e+02
1.758763e+03,9.605780e+02
1.761656e+03,9.515170e+02
1.764549e+03,9.619871e+02
1.767441e+03,9.548746e+02
1.770334e+03,9.582550e+02
1.773227e+03,9.535912e+02
1.776120e+03,9.469065e+02
1.779012e+03,9.458460e+02
1.781905e+03,9.368142e+02
1.784798e+03,9.515748e+02
1.787690e+03,9.423087e+02
1.790583e+03,9.370341e+02
1.793476e+03,9.150729e+02
1.796368e+03,9.386413e+02
1.799261e+03,9.270832e+02
1.802154e+03,9.187951e+02
1.805047e+03,9.247725e+02
1.807939e+03,9.229802e+02
1.810832e+03,9.095789e+02
1.813725e+03,9.042109e+02
1.816617e+03,9.183970e+02
1.819510e+03,9.118486e+02
1.822403e+03,9.133611e+02
1.825295e+03,9.059031e+02
1.828188e+03,8.998470e+02
1.831081e+03,8.995739e+02
1.833974e+03,8.883610e+02
1.836866e+03,9.029728e+02
1.839759e+03,8.855339e+02
1.842652e+03,8.966829e+02
1.845544e+03,9.015720e+02
1.848437e+03,8.862734e+02
1.851330e+03,8.750369e+02
1.854222e+03,8.783977e+02
1.857115e+03,8.871638e+02
1.860008e+03,8.800391e+02
1.862901e+03,8.833763e+02
1.865793e+03,8.638818e+02
1.868686e+03,8.748889e+02
1.871579e+03,8.689061e+02
1.874471e+03,8.736193e+02
1.877364e+03,8.731363e+02
1.880257e+03,8.611700e+02
1.883149e+03,8.569556e+02
1.886042e+03,8.485687e+02
1.888935e+03,8.505239e+02
1.891828e+03,8.593801e+02
1.894720e+03,8.500949e+02
1.897613e+03,8.492609e+02
1.900506e+03,8.509642e+02
1.903398e+03,8.374855e+02
1.906291e+03,8.464360e+02
1.909184e+03,8.289776e+02
1.912076e+03,8.316384e+02
1.914969e+03,8.290518e+02
1.917862e+03,8.248631e+02
1.920755e+03,8.147672e+02
1.923647e+03,8.187559e+02
1.926540e+03,8.298881e+02
1.929433e+03,8.171760e+02
1.932325e+03,8.052003e+02
1.935218e+03,8.226488e+02
1.938111e+03,8.145026e+02
1.941003e+03,7.933200e+02
1.943896e+03,8.146647e+02
1.946789e+03,8.068193e+02
1.949682e+03,8.110413e+02
1.952574e+03,8.051005e+02
1.955467e+03,8.038658e+02
1.958360e+03,7.926852e+02
1.961252e+03,7.918945e+02
1.964145e+03,7.917411e+02
1.967038e+03,7.898983e+02
1.969930e+03,7.899144e+02
1.972823e+03,7.743083e+02
1.975716e+03,7.821385e+02
1.978609e+03,7.800969e+02
1.981501e+03,7.861536e+02
1.984394e+03,7.651252e+02
1.987287e+03,7.820768e+02
1.990179e+03,7.604966e+02
1.993072e+03,7.847772e+02
1.995965e+03,7.649827e+02
1.998857e+03,7.586744e+02
2.001750e+03,7.613860e+02
2.004643e+03,7.615350e+02
2.007536e+03,7.629127e+02
2.010428e+03,7.519482e+02
2.013321e+03,7.462820e+02
2.016214e+03,7.427979e+02
2.019106e+03,7.406729e+02
2.021999e+03,7.401282e+02
2.024892e+03,7.400514e+02
2.027784e+03,7.314333e+02
2.030677e+03,7.426132e+02
2.033570e+03,7.289304e+02
2.036463e+03,7.264707e+02
2.039355e+03,7.331296e+02
2.042248e+03,7.234969e+02
2.045141e+03,7.234843e+02
2.048033e+03,7.238535e+02
2.050926e+03,7.256765e+02
2.053819e+03,7.244903e+02
2.056711e+03,7.039855e+02
2.059604e+03,7.124315e+02
2.062497e+03,7.197388e+02
2.065390e+03,7.105167e+02
2.068282e+03,7.104349e+02
2.071175e+03,7.180134e+02
2.074068e+03,6.997605e+02
2.076960e+03,6.847394e+02
2.079853e+03,7.011098e+02
2.082746e+03,6.930332e+02
2.085638e+03,6.884285e+02
2.088531e+03,6.870434e+02
2.091424e+03,6.876569e+02
2.094316e+03,6.729313e+02
2.097209e+03,6.864752e+02
2.100102e+03,6.870143e+02
2.102995e+03,6.736569e+02
2.105887e+03,6.804244e+02
2.108780e+03,6.857873e+02
2.111673e+03,6.777479e+02
2.114565e+03,6.719805e+02
2.117458e+03,6.558611e+02
2.120351e+03,6.690031e+02
2.123244e+03,6.590424e+02
2.126136e+03,6.609330e+02
2.129029e+03,6.539393e+02
2.131922e+03,6.571418e+02
2.134814e+03,6.597506e+02
2.137707e+03,6.540547e+02
2.140600e+03,6.520359e+02
2.143492e+03,6.506539e+02
2.146385e+03,6.481754e+02
2.149278e+03,6.388879e+02
2.152170e+03,6.431490e+02
2.155063e+03,6.264302e+02
2.157956e+03,6.237610e+02
2.160849e+03,6.388854e+02
2.163741e+03,6.370720e+02
2.166634e+03,6.462870e+02
2.169527e+03,6.312687e+02
2.172419e+03,6.298926e+02
2.175312e+03,6.262998e+02
2.178205e+03,6.246233e+02
2.181098e+03,6.098234e+02
2.183990e+03,6.206938e+02
2.186883e+03,6.096365e+02
2.189776e+03,6.210328e+02
2.192668e+03,6.074977e+02
2.195561e+03,6.047023e+02
2.198454e+03,6.050253e+02
2.201346e+03,5.992808e+02
2.204239e+03,6.048611e+02
2.207132e+03,6.072394e+02
2.210024e+03,6.037271e+02
2.212917e+03,6.010637e+02
2.215810e+03,6.030967e+02
2.218703e+03,6.032463e+02
2.221595e+03,5.963557e+02
2.224488e+03,5.897186e+02
2.227381e+03,5.803307e+02
2.230273e+03,5.818793e+02
2.233166e+03,5.892745e+02
2.236059e+03,5.915285e+02
2.238952e+03,5.731363e+02
2.241844e+03,5.736552e+02
2.244737e+03,5.762942e+02
2.247630e+03,5.788281e+02
2.250522e+03,5.787500e+02
2.253415e+03,5.622428e+02
2.256308e+03,5.678198e+02
2.259200e+03,5.648832e+02
2.262093e+03,5.617230e+02
2.264986e+03,5.570232e+02
2.267879e+03,5.543608e+02
2.270771e+03,5.594598e+02
2.273664e+03,5.569666e+02
2.276557e+03,5.536038e+02
2.279449e+03,5.522445e+02
2.282342e+03,5.556411e+02
2.285235e+03,5.439935e+02
2.288127e+03,5.532495e+02
2.291020e+03,5.519681e+02
2.293913e+03,5.360988e+02
2.296805e+03,5.306868e+02
2.299698e+03,5.410930e+02
2.302591e+03,5.387385e+02
2.305484e+03,5.300630e+02
2.308376e+03,5.365627e+02
2.311269e+03,5.349485e+02
2.314162e+03,5.383250e+02
2.317054e+03,5.323267e+02
2.319947e+03,5.282687e+02
2.322840e+03,5.254992e+02
2.325733e+03,5.285140e+02
2.328625e+03,5.317435e+02
2.331518e+03,5.213817e+02
2.334411e+03,5.171011e+02
2.337303e+03,5.164591e+02
2.340196e+03,5.147610e+02
2.343089e+03,5.163008e+02
2.345981e+03,5.182079e+02
2.348874e+03,5.057224e+02
2.351767e+03,5.105523e+02
2.354659e+03,5.179487e+02
2.357552e+03,5.125538e+02
2.360445e+03,5.025145e+02
2.363338e+03,5.014943e+02
2.366230e+03,5.087326e+02
2.369123e+03,5.063200e+02
2.372016e+03,4.968236e+02
2.374908e+03,4.977592e+02
2.377801e+03,4.978068e+02
2.380694e+03,4.978631e+02
2.383587e+03,4.915277e+02
2.386479e+03,4.955705e+02
2.389372e+03,4.920207e+02
2.392265e+03,4.899922e+02
2.395157e+03,4.899134e+02
2.398050e+03,4.873403e+02
2.400943e+03,4.777891e+02
2.403835e+03,4.789117e+02
2.406728e+03,4.875701e+02
2.409621e+03,4.813822e+02
2.412513e+03,4.873247e+02
2.415406e+03,4.735778e+02
2.418299e+03,4.642776e+02
2.421192e+03,4.794718e+02
2.424084e+03,4.800497e+02
2.426977e+03,4.728051e+02
2.429870e+03,4.675308e+02
2.432762e+03,4.766602e+02
2.435655e+03,4.756947e+02
2.438548e+03,4.692552e+02
2.441441e+03,4.554171e+02
2.444333e+03,4.529533e+02
2.447226e+03,4.726543e+02
2.450119e+03,4.587944e+02
2.453011e+03,4.657572e+02
2.455904e+03,4.545315e+02
2.458797e+03,4.537635e+02
2.461689e+03,4.522630e+02
2.464582e+03,4.558043e+02
2.467475e+03,4.573411e+02
2.470367e+03,4.545624e+02
2.473260e+03,4.471123e+02
2.476153e+03,4.515531e+02
2.479046e+03,4.480588e+02
2.481938e+03,4.459979e+02
2.484831e+03,4.407611e+02
2.487724e+03,4.440111e+02
2.490616e+03,4.508329e+02
2.493509e+03,4.334381e+02
2.496402e+03,4.401016e+02
2.499295e+03,4.418740e+02
2.502187e+03,4.326866e+02
2.505080e+03,4.396043e+02
2.507973e+03,4.352333e+02
2.510865e+03,4.525017e+02
2.513758e+03,4.373082e+02
2.516651e+03,4.360997e+02
2.519543e+03,4.210007e+02
2.522436e+03,4.284056e+02
2.525329e+03,4.187248e+02
2.528221e+03,4.252182e+02
2.531114e+03,4.238755e+02
2.534007e+03,4.289169e+02
2.536900e+03,4.247439e+02
2.539792e+03,4.191341e+02
2.542685e+03,4.153693e+02
2.545578e+03,4.295536e+02
2.548470e+03,4.201233e+02
2.551363e+03,4.327176e+02
2.554256e+03,4.288662e+02
2.557149e+03,4.219893e+02
2.560041e+03,4.291751e+02
2.562934e+03,4.247245e+02
2.565827e+03,4.094467e+02
2.568719e+03,4.212175e+02
2.571612e+03,4.211756e+02
2.574505e+03,4.294967e+02
2.577397e+03,4.120636e+02
2.580290e+03,4.078199e+02
2.583183e+03,4.070062e+02
2.586075e+03,3.983720e+02
2.588968e+03,4.211942e+02
2.591861e+03,4.020664e+02
2.594754e+03,3.960274e+02
2.597646e+03,3.933451e+02
2.600539e+03,3.945495e+02
2.603432e+03,4.009798e+02
2.606324e+03,3.945346e+02
2.609217e+03,3.973620e+02
2.612110e+03,3.905263e+02
2.615003e+03,3.918685e+02
2.617895e+03,3.870197e+02
2.620788e+03,3.981185e+02
2.623681e+03,3.844522e+02
2.626573e+03,3.889460e+02
2.629466e+03,3.855918e+02
2.632359e+03,3.873483e+02
2.635251e+03,3.791022e+02
2.638144e+03,3.902684e+02
2.641037e+03,3.807235e+02
2.643929e+03,3.848341e+02
2.646822e+03,3.745044e+02
2.649715e+03,3.803443e+02
2.652608e+03,3.800349e+02
2.655500e+03,3.799849e+02
2.658393e+03,3.797932e+02
2.661286e+03,3.717613e+02
2.664178e+03,3.761906e+02
2.667071e+03,3.794999e+02
2.669964e+03,3.863194e+02
2.672857e+03,3.769187e+02
2.675749e+03,3.771529e+02
2.678642e+03,3.719818e+02
2.681535e+03,3.717192e+02
2.684427e+03,3.703374e+02
2.687320e+03,3.683709e+02
2.690213e+03,3.717794e+02
2.693105e+03,3.717756e+02
2.695998e+03,3.564901e+02
2.698891e+03,3.655097e+02
2.701783e+03,3.557728e+02
2.704676e+03,3.729959e+02
2.707569e+03,3.721275e+02
2.710462e+03,3.626671e+02
2.713354e+03,3.760892e+02
2.716247e+03,3.611020e+02
2.719140e+03,3.746394e+02
2.722032e+03,3.526598e+02
2.724925e+03,3.790803e+02
2.727818e+03,3.475544e+02
2.730711e+03,3.578798e+02
2.733603e+03,3.675363e+02
2.736496e+03,3.585194e+02
2.739389e+03,3.663537e+02
2.742281e+03,3.609011e+02
2.745174e+03,3.697822e+02
2.748067e+03,3.483972e+02
2.750959e+03,3.540052e+02
2.753852e+03,3.647976e+02
2.756745e+03,3.390363e+02
2.759637e+03,3.575768e+02
2.762530e+03,3.459826e+02
2.765423e+03,3.497299e+02
2.768316e+03,3.564453e+02
2.771208e+03,3.305564e+02
2.774101e+03,3.467311e+02
2.776994e+03,3.461619e+02
2.779886e+03,3.381885e+02
2.782779e+03,3.381985e+02
2.785672e+03,3.454125e+02
2.788565e+03,3.544703e+02
2.791457e+03,3.449464e+02
2.794350e+03,3.427771e+02
2.797243e+03,3.464963e+02
2.800135e+03,3.489792e+02
2.803028e+03,3.372084e+02
2.805921e+03,3.502955e+02
2.808813e+03,3.446419e+02
2.811706e+03,3.455444e+02
2.814599e+03,3.325612e+02
2.817491e+03,3.530503e+02
2.820384e+03,3.316826e+02
2.823277e+03,3.446680e+02
2.826170e+03,3.287194e+02
2.829062e+03,3.436907e+02
2.831955e+03,3.456961e+02
2.834848e+03,3.482282e+02
2.837740e+03,3.493001e+02
2.840633e+03,3.355560e+02
2.843526e+03,3.408117e+02
2.846419e+03,3.373711e+02
2.849311e+03,3.457852e+02
2.852204e+03,3.550360e+02
2.855097e+03,3.459838e+02
2.857990e+03,3.499351e+02
2.860882e+03,3.431185e+02
2.863775e+03,3.599575e+02
2.866667e+03,3.549610e+02
2.869560e+03,3.715623e+02
2.872453e+03,3.549255e+02
2.875345e+03,3.521836e+02
2.878238e+03,3.546955e+02
2.881131e+03,3.601390e+02
2.884024e+03,3.610522e+02
2.886916e+03,3.515517e+02
2.889809e+03,3.672090e+02
2.892702e+03,3.518146e+02
2.895594e+03,3.751637e+02
2.898487e+03,3.867362e+02
2.901380e+03,3.586754e+02
2.904273e+03,3.640552e+02
2.907165e+03,3.717119e+02
2.910058e+03,3.610931e+02
2.912951e+03,3.603944e+02
2.915844e+03,3.557187e+02
2.918736e+03,3.478809e+02
2.921629e+03,3.488654e+02
2.924521e+03,3.350118e+02
2.927414e+03,3.349447e+02
2.930307e+03,3.385826e+02
2.933199e+03,3.445287e+02
2.936092e+03,3.386364e+02
2.938985e+03,3.248071e+02
2.941878e+03,3.387079e+02
2.944770e+03,3.262053e+02
2.947663e+03,3.416568e+02
2.950556e+03,3.287387e+02
2.953448e+03,3.323374e+02
2.956341e+03,3.624840e+02
2.959234e+03,3.446757e+02
2.962127e+03,3.293462e+02
2.965019e+03,3.254331e+02
2.967912e+03,3.276812e+02
2.970805e+03,3.077170e+02
2.973698e+03,3.237677e+02
2.976590e+03,3.251652e+02
2.979483e+03,3.249572e+02
2.982375e+03,2.954772e+02
2.985268e+03,3.115822e+02
2.988161e+03,3.135835e+02
2.991053e+03,3.279757e+02
2.993946e+03,2.993888e+02
2.996839e+03,3.255108e+02
2.999732e+03,2.864053e+02
3.002624e+03,2.955240e+02
3.005517e+03,2.990754e+02
3.008410e+03,2.858735e+02
3.011302e+03,3.134646e+02
3.014195e+03,2.929548e+02
3.017088e+03,3.072982e+02
3.019981e+03,3.063104e+02
3.022873e+03,2.925400e+02
3.025766e+03,2.974192e+02
3.028659e+03,3.060111e+02
3.031552e+03,2.920531e+02
3.034444e+03,3.059326e+02
3.037337e+03,3.103960e+02
3.040229e+03,2.919180e+02
3.043122e+03,2.940352e+02
3.046015e+03,2.990434e+02
3.048907e+03,2.793749e+02
3.051800e+03,3.015629e+02
3.054693e+03,2.978424e+02
3.057586e+03,2.997442e+02
3.060478e+03,2.940473e+02
3.063371e+03,3.041800e+02
3.066264e+03,2.832014e+02
3.069156e+03,3.071158e+02
3.072049e+03,3.069954e+02
3.074942e+03,2.924391e+02
3.077835e+03,2.900205e+02
3.080727e+03,3.059951e+02
3.083620e+03,2.869274e+02
3.086513e+03,3.108194e+02
3.089406e+03,2.855240e+02
3.092298e+03,2.984725e+02
3.095191e+03,3.184221e+02
3.098083e+03,2.888747e+02
3.100976e+03,3.292162e+02
3.103869e+03,2.866995e+02
3.106761e+03,2.842093e+02
3.109654e+03,2.885663e+02
3.112547e+03,2.878786e+02
3.115440e+03,2.750606e+02
3.118332e+03,3.064480e+02
3.121225e+03,3.134493e+02
3.124118e+03,3.069696e+02
3.127010e+03,2.921421e+02
3.129903e+03,3.178524e+02
3.132796e+03,2.980695e+02
3.135689e+03,2.782417e+02
3.138581e+03,3.284161e+02
3.141474e+03,3.425030e+02
3.144367e+03,2.921378e+02
3.147260e+03,2.976036e+02
3.150152e+03,3.309392e+02
3.153045e+03,2.752162e+02
3.155938e+03,2.792130e+02
3.158830e+03,3.170912e+02
3.161723e+03,3.204846e+02
3.164615e+03,2.946288e+02
3.167508e+03,2.864908e+02
3.170401e+03,2.934483e+02
3.173294e+03,3.308738e+02
3.176186e+03,3.066438e+02
3.179079e+03,3.171979e+02
3.181972e+03,3.550475e+02
3.184865e+03,2.919092e+02
3.187757e+03,3.158490e+02
3.190650e+03,2.805568e+02
3.193543e+03,2.785619e+02
3.196435e+03,3.223325e+02
3.199328e+03,3.267900e+02
3.200292e+03,3.358374e+02