File: RAMAN_data/20012023_r1/blue fibre11.CSV
1.995979e+02,2.366311e+03
2.024906e+02,2.370888e+03
2.053833e+02,2.366243e+03
2.082760e+02,2.361766e+03
2.111687e+02,2.360806e+03
2.140614e+02,2.360132e+03
2.169541e+02,2.361649e+03
2.198468e+02,2.369652e+03
2.227395e+02,2.368854e+03
2.256322e+02,2.369221e+03
2.285249e+02,2.362418e+03
2.314176e+02,2.376292e+03
2.343103e+02,2.379125e+03
2.372030e+02,2.385592e+03
2.400957e+02,2.380944e+03
2.429884e+02,2.390839e+03
2.458811e+02,2.381288e+03
2.487738e+02,2.382508e+03
2.516665e+02,2.382771e+03
2.545592e+02,2.384684e+03
2.574519e+02,2.371697e+03
2.603446e+02,2.383537e+03
2.632373e+02,2.395538e+03
2.661300e+02,2.388034e+03
2.690227e+02,2.404710e+03
2.719154e+02,2.379058e+03
2.748081e+02,2.380666e+03
2.777008e+02,2.399184e+03
2.805935e+02,2.400448e+03
2.834862e+02,2.398589e+03
2.863789e+02,2.403571e+03
2.892716e+02,2.404641e+03
2.921643e+02,2.382031e+03
2.950570e+02,2.385792e+03
2.979497e+02,2.388174e+03
3.008424e+02,2.394758e+03
3.037351e+02,2.389004e+03
3.066278e+02,2.395262e+03
3.095205e+02,2.388845e+03
3.124132e+02,2.395235e+03
3.153059e+02,2.406905e+03
3.181986e+02,2.394080e+03
3.210913e+02,2.401686e+03
3.239840e+02,2.396391e+03
3.268767e+02,2.412269e+03
3.297694e+02,2.407670e+03
3.326621e+02,2.400901e+03
3.355548e+02,2.391820e+03
3.384475e+02,2.388423e+03
3.413402e+02,2.405781e+03
3.442329e+02,2.408523e+03
3.471256e+02,2.403735e+03
3.500183e+02,2.394496e+03
3.529110e+02,2.401888e+03
3.558037e+02,2.392425e+03
3.586964e+02,2.398865e+03
3.615891e+02,2.410381e+03
3.644818e+02,2.404356e+03
3.673745e+02,2.389325e+03
3.702672e+02,2.389928e+03
3.731599e+02,2.423400e+03
3.760526e+02,2.425942e+03
3.789453e+02,2.432416e+03
3.818380e+02,2.404117e+03
3.847307e+02,2.391594e+03
3.876234e+02,2.372709e+03
3.905161e+02,2.383944e+03
3.934088e+02,2.379913e+03
3.963015e+02,2.375675e+03
3.991942e+02,2.374494e+03
4.020869e+02,2.383771e+03
4.049796e+02,2.377207e+03
4.078723e+02,2.385542e+03
4.107650e+02,2.383886e+03
4.136577e+02,2.373094e+03
4.165504e+02,2.368885e+03
4.194431e+02,2.372117e+03
4.223358e+02,2.368998e+03
4.252285e+02,2.369597e+03
4.281212e+02,2.370012e+03
4.310139e+02,2.376044e+03
4.339066e+02,2.364190e+03
4.367993e+02,2.368642e+03
4.396920e+02,2.361259e+03
4.425847e+02,2.368050e+03
4.454774e+02,2.366337e+03
4.483701e+02,2.363560e+03
4.512628e+02,2.364931e+03
4.541555e+02,2.357116e+03
4.570482e+02,2.349167e+03
4.599409e+02,2.354814e+03
4.628336e+02,2.352296e+03
4.657263e+02,2.337144e+03
4.686190e+02,2.341980e+03
4.715117e+02,2.343691e+03
4.744044e+02,2.335642e+03
4.772971e+02,2.334665e+03
4.801898e+02,2.318541e+03
4.830825e+02,2.315799e+03
4.859752e+02,2.318267e+03
4.888679e+02,2.325520e+03
4.917606e+02,2.321541e+03
4.946533e+02,2.321140e+03
4.975460e+02,2.320463e+03
5.004387e+02,2.312571e+03
5.033314e+02,2.332192e+03
5.062241e+02,2.316265e+03
5.091168e+02,2.311132e+03
5.120095e+02,2.312408e+03
5.149022e+02,2.317773e+03
5.177949e+02,2.306894e+03
5.206876e+02,2.307890e+03
5.235803e+02,2.301489e+03
5.264730e+02,2.299379e+03
5.293657e+02,2.297505e+03
5.322584e+02,2.285372e+03
5.351511e+02,2.280642e+03
5.380438e+02,2.265296e+03
5.409365e+02,2.262600e+03
5.438292e+02,2.275640e+03
5.467219e+02,2.292430e+03
5.496146e+02,2.277094e+03
5.525073e+02,2.271729e+03
5.554000e+02,2.259604e+03
5.582927e+02,2.258997e+03
5.611854e+02,2.275930e+03
5.640781e+02,2.270208e+03
5.669708e+02,2.247830e+03
5.698635e+02,2.256749e+03
5.727562e+02,2.247702e+03
5.756489e+02,2.252819e+03
5.785416e+02,2.255363e+03
5.814343e+02,2.248768e+03
5.843270e+02,2.244516e+03
5.872197e+02,2.244575e+03
5.901124e+02,2.243567e+03
5.930051e+02,2.237103e+03
5.958978e+02,2.245625e+03
5.987905e+02,2.231985e+03
6.016832e+02,2.217245e+03
6.045759e+02,2.209656e+03
6.074686e+02,2.223471e+03
6.103613e+02,2.216831e+03
6.132540e+02,2.206039e+03
6.161467e+02,2.207564e+03
6.190394e+02,2.205898e+03
6.219321e+02,2.210837e+03
6.248248e+02,2.216198e+03
6.277175e+02,2.196802e+03
6.306102e+02,2.205160e+03
6.335029e+02,2.191622e+03
6.363956e+02,2.190964e+03
6.392883e+02,2.197873e+03
6.421810e+02,2.185497e+03
6.450737e+02,2.191961e+03
6.479664e+02,2.196540e+03
6.508591e+02,2.174362e+03
6.537518e+02,2.175609e+03
6.566445e+02,2.167452e+03
6.595372e+02,2.156128e+03
6.624299e+02,2.167803e+03
6.653226e+02,2.147561e+03
6.682153e+02,2.163182e+03
6.711080e+02,2.169767e+03
6.740007e+02,2.163953e+03
6.768934e+02,2.147068e+03
6.797861e+02,2.138260e+03
6.826788e+02,2.137350e+03
6.855715e+02,2.133763e+03
6.884642e+02,2.128327e+03
6.913569e+02,2.125901e+03
6.942496e+02,2.106029e+03
6.971423e+02,2.125141e+03
7.000350e+02,2.137909e+03
7.029277e+02,2.100306e+03
7.058204e+02,2.119436e+03
7.087131e+02,2.112025e+03
7.116058e+02,2.108009e+03
7.144985e+02,2.106860e+03
7.173912e+02,2.118767e+03
7.202839e+02,2.101991e+03
7.231766e+02,2.093216e+03
7.260693e+02,2.092741e+03
7.289620e+02,2.096853e+03
7.318547e+02,2.095446e+03
7.347474e+02,2.080689e+03
7.376401e+02,2.080817e+03
7.405328e+02,2.072003e+03
7.434255e+02,2.073106e+03
7.463182e+02,2.062095e+03
7.492109e+02,2.065336e+03
7.521036e+02,2.055466e+03
7.549963e+02,2.066110e+03
7.578890e+02,2.049798e+03
7.607817e+02,2.040821e+03
7.636744e+02,2.042734e+03
7.665671e+02,2.044253e+03
7.694598e+02,2.028272e+03
7.723525e+02,2.039289e+03
7.752452e+02,2.039586e+03
7.781379e+02,2.031824e+03
7.810306e+02,2.032190e+03
7.839233e+02,2.023580e+03
7.868160e+02,2.025070e+03
7.897087e+02,2.013122e+03
7.926014e+02,2.007191e+03
7.954941e+02,2.025357e+03
7.983868e+02,2.016194e+03
8.012795e+02,1.981694e+03
8.041722e+02,2.000531e+03
8.070649e+02,2.007694e+03
8.099576e+02,2.003928e+03
8.128503e+02,1.984746e+03
8.157430e+02,1.985909e+03
8.186357e+02,1.977201e+03
8.215284e+02,1.977838e+03
8.244211e+02,1.982919e+03
8.273138e+02,1.963367e+03
8.302065e+02,1.959142e+03
8.330992e+02,1.960529e+03
8.359919e+02,1.961063e+03
8.388846e+02,1.964819e+03
8.417773e+02,1.953930e+03
8.446700e+02,1.954287e+03
8.475627e+02,1.955429e+03
8.504554e+02,1.955991e+03
8.533481e+02,1.945165e+03
8.562408e+02,1.929271e+03
8.591335e+02,1.942828e+03
8.620262e+02,1.919341e+03
8.649189e+02,1.913963e+03
8.678116e+02,1.926706e+03
8.707043e+02,1.935763e+03
8.735970e+02,1.931613e+03
8.764897e+02,1.923514e+03
8.793824e+02,1.918878e+03
8.822751e+02,1.919701e+03
8.851678e+02,1.909984e+03
8.880605e+02,1.918633e+03
8.909532e+02,1.910500e+03
8.938459e+02,1.906403e+03
8.967386e+02,1.882112e+03
8.996313e+02,1.885226e+03
9.025240e+02,1.894470e+03
9.054167e+02,1.883220e+03
9.083094e+02,1.872451e+03
9.112021e+02,1.872496e+03
9.140948e+02,1.866839e+03
9.169875e+02,1.868848e+03
9.198802e+02,1.839964e+03
9.227729e+02,1.844291e+03
9.256656e+02,1.835157e+03
9.285583e+02,1.839680e+03
9.314510e+02,1.844532e+03
9.343438e+02,1.835194e+03
9.372365e+02,1.845437e+03
9.401292e+02,1.822023e+03
9.430219e+02,1.824377e+03
9.459146e+02,1.831740e+03
9.488073e+02,1.827805e+03
9.517000e+02,1.818922e+03
9.545927e+02,1.825056e+03
9.574854e+02,1.806539e+03
9.603781e+02,1.816744e+03
9.632708e+02,1.822704e+03
9.661635e+02,1.800192e+03
9.690562e+02,1.791215e+03
9.719489e+02,1.781436e+03
9.748416e+02,1.794156e+03
9.777343e+02,1.794859e+03
9.806270e+02,1.784536e+03
9.835197e+02,1.781850e+03
9.864124e+02,1.785369e+03
9.893051e+02,1.772170e+03
9.921978e+02,1.780832e+03
9.950905e+02,1.776254e+03
9.979832e+02,1.774089e+03
1.000876e+03,1.764990e+03
1.003769e+03,1.759978e+03
1.006661e+03,1.755758e+03
1.009554e+03,1.759749e+03
1.012447e+03,1.744927e+03
1.015339e+03,1.744156e+03
1.018232e+03,1.754198e+03
1.021125e+03,1.747011e+03
1.024017e+03,1.745446e+03
1.026910e+03,1.740206e+03
1.029803e+03,1.734451e+03
1.032696e+03,1.740854e+03
1.035588e+03,1.731857e+03
1.038481e+03,1.729019e+03
1.041374e+03,1.724842e+03
1.044266e+03,1.721864e+03
1.047159e+03,1.716177e+03
1.050052e+03,1.703241e+03
1.052944e+03,1.724004e+03
1.055837e+03,1.714463e+03
1.058730e+03,1.703802e+03
1.061623e+03,1.700152e+03
1.064515e+03,1.694281e+03
1.067408e+03,1.700193e+03
1.070301e+03,1.690862e+03
1.073193e+03,1.706373e+03
1.076086e+03,1.690897e+03
1.078979e+03,1.683076e+03
1.081871e+03,1.688273e+03
1.084764e+03,1.697403e+03
1.087657e+03,1.704493e+03
1.090550e+03,1.711591e+03
1.093442e+03,1.727056e+03
1.096335e+03,1.701010e+03
1.099228e+03,1.679613e+03
1.102120e+03,1.690072e+03
1.105013e+03,1.678123e+03
1.107906e+03,1.664365e+03
1.110798e+03,1.670926e+03
1.113691e+03,1.676196e+03
1.116584e+03,1.674122e+03
1.119477e+03,1.667292e+03
1.122369e+03,1.658545e+03
1.125262e+03,1.644891e+03
1.128155e+03,1.645422e+03
1.131047e+03,1.627780e+03
1.133940e+03,1.621745e+03
1.136833e+03,1.618308e+03
1.139725e+03,1.609511e+03
1.142618e+03,1.630719e+03
1.145511e+03,1.629555e+03
1.148404e+03,1.618638e+03
1.151296e+03,1.610844e+03
1.154189e+03,1.607514e+03
1.157082e+03,1.590245e+03
1.159974e+03,1.597561e+03
1.162867e+03,1.588885e+03
1.165760e+03,1.593246e+03
1.168652e+03,1.582516e+03
1.171545e+03,1.588131e+03
1.174438e+03,1.567244e+03
1.177331e+03,1.572373e+03
1.180223e+03,1.573354e+03
1.183116e+03,1.568802e+03
1.186009e+03,1.567335e+03
1.188901e+03,1.566068e+03
1.191794e+03,1.556140e+03
1.194687e+03,1.558751e+03
1.197579e+03,1.557202e+03
1.200472e+03,1.554843e+03
1.203365e+03,1.536929e+03
1.206258e+03,1.547926e+03
1.209150e+03,1.541707e+03
1.212043e+03,1.542822e+03
1.214936e+03,1.532345e+03
1.217828e+03,1.527351e+03
1.220721e+03,1.520996e+03
1.223614e+03,1.529628e+03
1.226506e+03,1.533409e+03
1.229399e+03,1.529445e+03
1.232292e+03,1.523214e+03
1.235185e+03,1.517911e+03
1.238077e+03,1.526687e+03
1.240970e+03,1.514707e+03
1.243863e+03,1.521905e+03
1.246755e+03,1.518337e+03
1.249648e+03,1.512103e+03
1.252541e+03,1.497822e+03
1.255433e+03,1.509699e+03
1.258326e+03,1.501203e+03
1.261219e+03,1.490541e+03
1.264112e+03,1.500241e+03
1.267004e+03,1.501500e+03
1.269897e+03,1.495742e+03
1.272790e+03,1.512233e+03
1.275682e+03,1.492518e+03
1.278575e+03,1.491355e+03
1.281468e+03,1.479368e+03
1.284360e+03,1.485553e+03
1.287253e+03,1.473935e+03
1.290146e+03,1.483290e+03
1.293039e+03,1.475032e+03
1.295931e+03,1.474718e+03
1.298824e+03,1.460753e+03
1.301717e+03,1.449854e+03
1.304609e+03,1.464442e+03
1.307502e+03,1.456128e+03
1.310395e+03,1.451416e+03
1.313287e+03,1.453130e+03
1.316180e+03,1.463613e+03
1.319073e+03,1.463087e+03
1.321966e+03,1.455753e+03
1.324858e+03,1.463754e+03
1.327751e+03,1.449164e+03
1.330644e+03,1.452982e+03
1.333536e+03,1.454121e+03
1.336429e+03,1.439652e+03
1.339322e+03,1.440254e+03
1.342214e+03,1.436231e+03
1.345107e+03,1.426536e+03
1.348000e+03,1.436926e+03
1.350893e+03,1.427168e+03
1.353785e+03,1.417348e+03
1.356678e+03,1.417621e+03
1.359571e+03,1.414838e+03
1.362463e+03,1.416712e+03
1.365356e+03,1.424614e+03
1.368249e+03,1.420537e+03
1.371141e+03,1.410348e+03
1.374034e+03,1.406507e+03
1.376927e+03,1.416951e+03
1.379820e+03,1.405802e+03
1.382712e+03,1.415964e+03
1.385605e+03,1.389961e+03
1.388498e+03,1.398341e+03
1.391390e+03,1.391215e+03
1.394283e+03,1.389885e+03
1.397176e+03,1.390440e+03
1.400068e+03,1.379009e+03
1.402961e+03,1.383819e+03
1.405854e+03,1.380572e+03
1.408747e+03,1.374334e+03
1.411639e+03,1.371886e+03
1.414532e+03,1.364800e+03
1.417425e+03,1.375294e+03
1.420317e+03,1.363710e+03
1.423210e+03,1.357198e+03
1.426103e+03,1.361585e+03
1.428995e+03,1.356920e+03
1.431888e+03,1.350745e+03
1.434781e+03,1.346028e+03
1.437674e+03,1.339938e+03
1.440566e+03,1.344892e+03
1.443459e+03,1.336065e+03
1.446352e+03,1.336135e+03
1.449244e+03,1.322096e+03
1.452137e+03,1.328750e+03
1.455030e+03,1.328228e+03
1.457922e+03,1.327750e+03
1.460815e+03,1.331781e+03
1.463708e+03,1.325708e+03
1.466601e+03,1.321994e+03
1.469493e+03,1.305006e+03
1.472386e+03,1.311404e+03
1.475279e+03,1.315951e+03
1.478171e+03,1.319991e+03
1.481064e+03,1.308339e+03
1.483957e+03,1.284767e+03
1.486849e+03,1.301585e+03
1.489742e+03,1.285659e+03
1.492635e+03,1.282351e+03
1.495528e+03,1.281130e+03
1.498420e+03,1.283617e+03
1.501313e+03,1.292690e+03
1.504206e+03,1.278099e+03
1.507098e+03,1.282024e+03
1.509991e+03,1.271998e+03
1.512884e+03,1.257326e+03
1.515776e+03,1.272320e+03
1.518669e+03,1.272480e+03
1.521562e+03,1.274932e+03
1.524455e+03,1.260393e+03
1.527347e+03,1.247102e+03
1.530240e+03,1.256840e+03
1.533133e+03,1.259665e+03
1.536025e+03,1.272718e+03
1.538918e+03,1.247288e+03
1.541811e+03,1.247279e+03
1.544703e+03,1.246270e+03
1.547596e+03,1.242898e+03
1.550489e+03,1.242028e+03
1.553382e+03,1.243581e+03
1.556274e+03,1.244338e+03
1.559167e+03,1.243212e+03
1.562060e+03,1.230177e+03
1.564952e+03,1.232133e+03
1.567845e+03,1.230680e+03
1.570738e+03,1.232506e+03
1.573630e+03,1.226846e+03
1.576523e+03,1.227182e+03
1.579416e+03,1.217585e+03
1.582309e+03,1.215766e+03
1.585201e+03,1.215526e+03
1.588094e+03,1.214665e+03
1.590987e+03,1.209566e+03
1.593879e+03,1.213638e+03
1.596772e+03,1.220997e+03
1.599665e+03,1.193293e+03
1.602557e+03,1.208574e+03
1.605450e+03,1.205952e+03
1.608343e+03,1.196875e+03
1.611236e+03,1.203331e+03
1.614128e+03,1.190113e+03
1.617021e+03,1.188958e+03
1.619914e+03,1.187752e+03
1.622806e+03,1.186837e+03
1.625699e+03,1.175142e+03
1.628592e+03,1.192671e+03
1.631484e+03,1.178303e+03
1.634377e+03,1.181403e+03
1.637270e+03,1.178161e+03
1.640163e+03,1.174259e+03
1.643055e+03,1.168416e+03
1.645948e+03,1.157371e+03
1.648841e+03,1.158788e+03
1.651733e+03,1.166177e+03
1.654626e+03,1.153576e+03
1.657519e+03,1.155842e+03
1.660411e+03,1.152265e+03
1.663304e+03,1.152464e+03
1.666197e+03,1.149249e+03
1.669090e+03,1.145328e+03
1.671982e+03,1.133268e+03
1.674875e+03,1.140612e+03
1.677768e+03,1.144344e+03
1.680660e+03,1.125638e+03
1.683553e+03,1.128843e+03
1.686446e+03,1.131626e+03
1.689339e+03,1.125063e+03
1.692231e+03,1.119224e+03
1.695124e+03,1.118584e+03
1.698017e+03,1.115749e+03
1.700909e+03,1.115275e+03
1.703802e+03,1.127535e+03
1.706695e+03,1.124245e+03
1.709587e+03,1.113365e+03
1.712480e+03,1.106144e+03
1.715373e+03,1.095574e+03
1.718266e+03,1.104863e+03
1.721158e+03,1.114625e+03
1.724051e+03,1.090714e+03
1.726944e+03,1.088453e+03
1.729836e+03,1.087542e+03
1.732729e+03,1.087939e+03
1.735622e+03,1.092650e+03
1.738514e+03,1.084059e+03
1.741407e+03,1.081205e+03
1.744300e+03,1.093509e+03
1.747193e+03,1.076968e+03
1.750085e+03,1.076009e+03
1.752978e+03,1.079109e+03
1.755871e+03,1.060627e+03
1.758763e+03,1.063596e+03
1.761656e+03,1.072957e+03
1.764549e+03,1.061351e+03
1.767441e+03,1.063916e+03
1.770334e+03,1.055255e+03
1.773227e+03,1.052203e+03
1.776120e+03,1.048768e+03
1.779012e+03,1.042378e+03
1.781905e+03,1.037013e+03
1.784798e+03,1.051328e+03
1.787690e+03,1.033549e+03
1.790583e+03,1.037614e+03
1.793476e+03,1.034677e+03
1.796368e+03,1.046981e+03
1.799261e+03,1.030339e+03
1.802154e+03,1.037565e+03
1.805047e+03,1.021245e+03
1.807939e+03,1.024693e+03
1.810832e+03,1.027609e+03
1.813725e+03,1.018158e+03
1.816617e+03,1.008906e+03
1.819510e+03,1.005426e+03
1.822403e+03,1.007813e+03
1.825295e+03,1.020077e+03
1.828188e+03,9.957396e+02
1.831081e+03,1.009841e+03
1.833974e+03,9.910949e+02
1.836866e+03,1.002495e+03
1.839759e+03,1.001902e+03
1.842652e+03,1.003877e+03
1.845544e+03,9.971659e+02
1.848437e+03,9.942504e+02
1.851330e+03,9.921996e+02
1.854222e+03,9.883405e+02
1.857115e+03,9.881331e+02
1.860008e+03,9.717257e+02
1.862901e+03,9.856007e+02
1.865793e+03,9.660258e+02
1.868686e+03,9.736301e+02
1.871579e+03,9.632990e+02
1.874471e+03,9.727602e+02
1.877364e+03,9.663552e+02
1.880257e+03,9.638660e+02
1.883149e+03,9.552504e+02
1.886042e+03,9.519366e+02
1.888935e+03,9.413028e+02
1.891828e+03,9.568986e+02
1.894720e+03,9.465296e+02
1.897613e+03,9.450709e+02
1.900506e+03,9.492261e+02
1.903398e+03,9.437027e+02
1.906291e+03,9.380619e+02
1.909184e+03,9.440751e+02
1.912076e+03,9.154279e+02
1.914969e+03,9.320458e+02
1.917862e+03,9.324142e+02
1.920755e+03,9.280204e+02
1.923647e+03,9.237541e+02
1.926540e+03,9.102110e+02
1.929433e+03,9.225002e+02
1.932325e+03,9.179059e+02
1.935218e+03,9.129422e+02
1.938111e+03,9.090580e+02
1.941003e+03,9.128411e+02
1.943896e+03,8.953873e+02
1.946789e+03,9.091541e+02
1.949682e+03,9.000948e+02
1.952574e+03,9.076625e+02
1.955467e+03,8.988566e+02
1.958360e+03,8.886536e+02
1.961252e+03,8.899379e+02
1.964145e+03,8.776809e+02
1.967038e+03,8.831403e+02
1.969930e+03,8.848094e+02
1.972823e+03,8.799477e+02
1.975716e+03,8.788798e+02
1.978609e+03,8.781953e+02
1.981501e+03,8.696208e+02
1.984394e+03,8.604153e+02
1.987287e+03,8.798754e+02
1.990179e+03,8.588229e+02
1.993072e+03,8.760383e+02
1.995965e+03,8.493483e+02
1.998857e+03,8.651620e+02
2.001750e+03,8.527834e+02
2.004643e+03,8.494891e+02
2.007536e+03,8.392657e+02
2.010428e+03,8.560875e+02
2.013321e+03,8.404648e+02
2.016214e+03,8.511554e+02
2.019106e+03,8.455243e+02
2.021999e+03,8.427206e+02
2.024892e+03,8.434352e+02
2.027784e+03,8.339741e+02
2.030677e+03,8.284010e+02
2.033570e+03,8.297833e+02
2.036463e+03,8.282123e+02
2.039355e+03,8.161172e+02
2.042248e+03,8.251045e+02
2.045141e+03,8.229649e+02
2.048033e+03,8.217907e+02
2.050926e+03,8.082308e+02
2.053819e+03,8.092942e+02
2.056711e+03,8.030876e+02
2.059604e+03,8.106121e+02
2.062497e+03,8.043786e+02
2.065390e+03,8.034564e+02
2.068282e+03,7.950945e+02
2.071175e+03,7.908362e+02
2.074068e+03,7.915487e+02
2.076960e+03,8.008801e+02
2.079853e+03,7.997249e+02
2.082746e+03,7.866776e+02
2.085638e+03,7.816490e+02
2.088531e+03,7.805233e+02
2.091424e+03,7.830839e+02
2.094316e+03,7.681510e+02
2.097209e+03,7.862992e+02
2.100102e+03,7.733656e+02
2.102995e+03,7.598126e+02
2.105887e+03,7.702277e+02
2.108780e+03,7.687500e+02
2.111673e+03,7.679562e+02
2.114565e+03,7.614354e+02
2.117458e+03,7.480938e+02
2.120351e+03,7.648987e+02
2.123244e+03,7.607570e+02
2.126136e+03,7.479695e+02
2.129029e+03,7.383923e+02
2.131922e+03,7.535416e+02
2.134814e+03,7.494431e+02
2.137707e+03,7.445801e+02
2.140600e+03,7.488899e+02
2.143492e+03,7.401691e+02
2.146385e+03,7.348292e+02
2.149278e+03,7.251392e+02
2.152170e+03,7.356044e+02
2.155063e+03,7.289886e+02
2.157956e+03,7.224736e+02
2.160849e+03,7.192413e+02
2.163741e+03,7.243156e+02
2.166634e+03,7.159907e+02
2.169527e+03,7.075416e+02
2.172419e+03,7.052138e+02
2.175312e+03,7.185111e+02
2.178205e+03,7.066357e+02
2.181098e+03,7.092463e+02
2.183990e+03,7.085134e+02
2.186883e+03,7.015694e+02
2.189776e+03,7.084383e+02
2.192668e+03,6.963320e+02
2.195561e+03,7.023331e+02
2.198454e+03,6.957162e+02
2.201346e+03,6.963701e+02
2.204239e+03,6.937123e+02
2.207132e+03,6.906655e+02
2.210024e+03,6.764154e+02
2.212917e+03,6.762886e+02
2.215810e+03,6.954832e+02
2.218703e+03,6.732896e+02
2.221595e+03,6.787720e+02
2.224488e+03,6.802962e+02
2.227381e+03,6.696998e+02
2.230273e+03,6.724547e+02
2.233166e+03,6.659359e+02
2.236059e+03,6.642359e+02
2.238952e+03,6.602597e+02
2.241844e+03,6.585222e+02
2.244737e+03,6.546371e+02
2.247630e+03,6.677076e+02
2.250522e+03,6.548834e+02
2.253415e+03,6.646683e+02
2.256308e+03,6.536378e+02
2.259200e+03,6.550813e+02
2.262093e+03,6.429674e+02
2.264986e+03,6.409230e+02
2.267879e+03,6.434700e+02
2.270771e+03,6.346698e+02
2.273664e+03,6.367706e+02
2.276557e+03,6.402492e+02
2.279449e+03,6.419290e+02
2.282342e+03,6.317225e+02
2.285235e+03,6.317139e+02
2.288127e+03,6.247015e+02
2.291020e+03,6.156436e+02
2.293913e+03,6.218223e+02
2.296805e+03,6.257061e+02
2.299698e+03,6.280559e+02
2.302591e+03,6.178572e+02
2.305484e+03,6.217070e+02
2.308376e+03,6.181679e+02
2.311269e+03,6.118378e+02
2.314162e+03,6.123328e+02
2.317054e+03,6.124901e+02
2.319947e+03,5.992162e+02
2.322840e+03,6.136892e+02
2.325733e+03,6.000037e+02
2.328625e+03,6.055609e+02
2.331518e+03,5.989720e+02
2.334411e+03,5.919944e+02
2.337303e+03,5.972997e+02
2.340196e+03,5.908262e+02
2.343089e+03,5.924075e+02
2.345981e+03,5.949135e+02
2.348874e+03,5.898478e+02
2.351767e+03,5.854843e+02
2.354659e+03,5.827206e+02
2.357552e+03,5.863105e+02
2.360445e+03,5.874533e+02
2.363338e+03,5.891757e+02
2.366230e+03,5.778105e+02
2.369123e+03,5.655642e+02
2.372016e+03,5.747316e+02
2.374908e+03,5.772732e+02
2.377801e+03,5.717062e+02
2.380694e+03,5.686186e+02
2.383587e+03,5.657076e+02
2.386479e+03,5.550993e+02
2.389372e+03,5.631551e+02
2.392265e+03,5.625418e+02
2.395157e+03,5.584471e+02
2.398050e+03,5.573356e+02
2.400943e+03,5.502665e+02
2.403835e+03,5.471399e+02
2.406728e+03,5.680588e+02
2.409621e+03,5.415571e+02
2.412513e+03,5.495551e+02
2.415406e+03,5.457216e+02
2.418299e+03,5.484086e+02
2.421192e+03,5.387889e+02
2.424084e+03,5.435257e+02
2.426977e+03,5.415798e+02
2.429870e+03,5.419097e+02
2.432762e+03,5.337349e+02
2.435655e+03,5.388961e+02
2.438548e+03,5.361837e+02
2.441441e+03,5.262294e+02
2.444333e+03,5.247917e+02
2.447226e+03,5.386791e+02
2.450119e+03,5.268779e+02
2.453011e+03,5.430507e+02
2.455904e+03,5.168709e+02
2.458797e+03,5.207859e+02
2.461689e+03,5.162026e+02
2.464582e+03,5.138005e+02
2.467475e+03,5.118786e+02
2.470367e+03,5.159072e+02
2.473260e+03,5.151302e+02
2.476153e+03,5.106986e+02
2.479046e+03,5.107845e+02
2.481938e+03,5.142919e+02
2.484831e+03,5.103062e+02
2.487724e+03,4.997948e+02
2.490616e+03,5.094987e+02
2.493509e+03,5.030428e+02
2.496402e+03,5.032180e+02
2.499295e+03,5.083862e+02
2.502187e+03,4.868967e+02
2.505080e+03,4.996434e+02
2.507973e+03,4.845046e+02
2.510865e+03,4.934474e+02
2.513758e+03,5.033418e+02
2.516651e+03,4.890807e+02
2.519543e+03,4.886166e+02
2.522436e+03,4.818406e+02
2.525329e+03,4.880287e+02
2.528221e+03,4.926035e+02
2.531114e+03,4.798344e+02
2.534007e+03,4.834758e+02
2.536900e+03,4.860627e+02
2.539792e+03,4.854583e+02
2.542685e+03,4.896859e+02
2.545578e+03,4.791181e+02
2.548470e+03,4.831150e+02
2.551363e+03,4.905479e+02
2.554256e+03,4.875782e+02
2.557149e+03,4.887008e+02
2.560041e+03,4.861235e+02
2.562934e+03,4.796960e+02
2.565827e+03,4.781233e+02
2.568719e+03,4.722555e+02
2.571612e+03,4.810971e+02
2.574505e+03,4.774189e+02
2.577397e+03,4.723519e+02
2.580290e+03,4.689648e+02
2.583183e+03,4.614979e+02
2.586075e+03,4.584246e+02
2.588968e+03,4.666476e+02
2.591861e+03,4.715430e+02
2.594754e+03,4.527778e+02
2.597646e+03,4.728178e+02
2.600539e+03,4.574426e+02
2.603432e+03,4.606525e+02
2.606324e+03,4.461377e+02
2.609217e+03,4.594266e+02
2.612110e+03,4.494391e+02
2.615003e+03,4.405941e+02
2.617895e+03,4.536508e+02
2.620788e+03,4.420995e+02
2.623681e+03,4.483385e+02
2.626573e+03,4.506105e+02
2.629466e+03,4.483844e+02
2.632359e+03,4.314532e+02
2.635251e+03,4.473721e+02
2.638144e+03,4.443452e+02
2.641037e+03,4.345504e+02
2.643929e+03,4.471751e+02
2.646822e+03,4.393700e+02
2.649715e+03,4.332630e+02
2.652608e+03,4.344789e+02
2.655500e+03,4.383339e+02
2.658393e+03,4.399650e+02
2.661286e+03,4.403742e+02
2.664178e+03,4.203238e+02
2.667071e+03,4.331230e+02
2.669964e+03,4.356555e+02
2.672857e+03,4.384766e+02
2.675749e+03,4.307698e+02
2.678642e+03,4.309295e+02
2.681535e+03,4.207503e+02
2.684427e+03,4.355780e+02
2.687320e+03,4.292989e+02
2.690213e+03,4.184369e+02
2.693105e+03,4.224261e+02
2.695998e+03,4.180046e+02
2.698891e+03,4.371669e+02
2.701783e+03,4.219906e+02
2.704676e+03,4.150793e+02
2.707569e+03,4.276879e+02
2.710462e+03,4.179444e+02
2.713354e+03,4.221520e+02
2.716247e+03,4.138733e+02
2.719140e+03,4.278372e+02
2.722032e+03,4.112251e+02
2.724925e+03,4.191813e+02
2.727818e+03,4.231266e+02
2.730711e+03,4.111505e+02
2.733603e+03,4.184277e+02
2.736496e+03,4.141071e+02
2.739389e+03,4.089532e+02
2.742281e+03,4.197905e+02
2.745174e+03,4.201559e+02
2.748067e+03,4.056064e+02
2.750959e+03,4.154287e+02
2.753852e+03,4.067215e+02
2.756745e+03,4.072736e+02
2.759637e+03,3.974971e+02
2.762530e+03,4.193558e+02
2.765423e+03,3.871253e+02
2.768316e+03,4.096685e+02
2.771208e+03,3.904432e+02
2.774101e+03,4.082654e+02
2.776994e+03,4.028319e+02
2.779886e+03,3.939538e+02
2.782779e+03,3.969959e+02
2.785672e+03,3.948662e+02
2.788565e+03,3.914629e+02
2.791457e+03,4.010839e+02
2.794350e+03,3.961711e+02
2.797243e+03,3.994634e+02
2.800135e+03,3.930465e+02
2.803028e+03,4.076788e+02
2.805921e+03,3.926859e+02
2.808813e+03,3.911977e+02
2.811706e+03,3.923816e+02
2.814599e+03,3.877105e+02
2.817491e+03,4.051395e+02
2.820384e+03,3.751432e+02
2.823277e+03,3.983193e+02
2.826170e+03,3.984681e+02
2.829062e+03,3.913867e+02
2.831955e+03,3.821546e+02
2.834848e+03,4.003055e+02
2.837740e+03,4.048084e+02
2.840633e+03,3.793809e+02
2.843526e+03,3.964785e+02
2.846419e+03,3.894255e+02
2.849311e+03,4.002672e+02
2.852204e+03,3.933910e+02
2.855097e+03,4.037660e+02
2.857990e+03,3.990073e+02
2.860882e+03,4.078474e+02
2.863775e+03,4.054104e+02
2.866667e+03,3.909994e+02
2.869560e+03,4.026721e+02
2.872453e+03,4.033185e+02
2.875345e+03,4.095633e+02
2.878238e+03,4.027198e+02
2.881131e+03,4.118236e+02
2.884024e+03,4.113257e+02
2.886916e+03,4.136512e+02
2.889809e+03,4.251859e+02
2.892702e+03,4.190182e+02
2.895594e+03,4.106050e+02
2.898487e+03,4.200600e+02
2.901380e+03,4.122279e+02
2.904273e+03,4.247647e+02
2.907165e+03,4.176733e+02
2.910058e+03,4.011465e+02
2.912951e+03,3.921000e+02
2.915844e+03,4.060735e+02
2.918736e+03,3.832079e+02
2.921629e+03,4.000717e+02
2.924521e+03,3.818034e+02
2.927414e+03,3.892428e+02
2.930307e+03,3.773438e+02
2.933199e+03,3.831023e+02
2.936092e+03,3.751435e+02
2.938985e+03,3.810693e+02
2.941878e+03,3.824913e+02
2.944770e+03,3.757189e+02
2.947663e+03,3.890214e+02
2.950556e+03,3.829424e+02
2.953448e+03,3.943751e+02
2.956341e+03,4.003242e+02
2.959234e+03,4.021504e+02
2.962127e+03,3.681151e+02
2.965019e+03,3.734600e+02
2.967912e+03,3.689422e+02
2.970805e+03,3.500027e+02
2.973698e+03,3.608332e+02
2.976590e+03,3.573075e+02
2.979483e+03,3.554229e+02
2.982375e+03,3.406964e+02
2.985268e+03,3.544525e+02
2.988161e+03,3.678091e+02
2.991053e+03,3.654923e+02
2.993946e+03,3.547255e+02
2.996839e+03,3.554778e+02
2.999732e+03,3.362252e+02
3.002624e+03,3.403387e+02
3.005517e+03,3.376701e+02
3.008410e+03,3.505620e+02
3.011302e+03,3.429824e+02
3.014195e+03,3.494475e+02
3.017088e+03,3.469312e+02
3.019981e+03,3.484930e+02
3.022873e+03,3.397515e+02
3.025766e+03,3.318624e+02
3.028659e+03,3.600890e+02
3.031552e+03,3.274555e+02
3.034444e+03,3.573114e+02
3.037337e+03,3.412143e+02
3.040229e+03,3.547281e+02
3.043122e+03,3.434373e+02
3.046015e+03,3.373867e+02
3.048907e+03,3.342926e+02
3.051800e+03,3.443387e+02
3.054693e+03,3.462610e+02
3.057586e+03,3.408052e+02
3.060478e+03,3.321745e+02
3.063371e+03,3.453674e+02
3.066264e+03,3.379134e+02
3.069156e+03,3.427803e+02
3.072049e+03,3.497427e+02
3.074942e+03,3.302281e+02
3.077835e+03,3.474667e+02
3.080727e+03,3.287051e+02
3.083620e+03,3.420323e+02
3.086513e+03,3.620734e+02
3.089406e+03,3.512046e+02
3.092298e+03,3.418074e+02
3.095191e+03,3.522980e+02
3.098083e+03,3.324599e+02
3.100976e+03,3.545997e+02
3.103869e+03,3.415074e+02
3.106761e+03,3.206536e+02
3.109654e+03,3.420173e+02
3.112547e+03,3.473340e+02
3.115440e+03,3.641143e+02
3.118332e+03,3.341659e+02
3.121225e+03,3.538295e+02
3.124118e+03,3.648241e+02
3.127010e+03,3.443313e+02
3.129903e+03,3.376163e+02
3.132796e+03,3.225196e+02
3.135689e+03,3.734373e+02
3.138581e+03,3.733609e+02
3.141474e+03,3.474291e+02
3.144367e+03,3.156740e+02
3.147260e+03,3.514307e+02
3.150152e+03,3.787259e+02
3.153045e+03,3.375443e+02
3.155938e+03,3.371475e+02
3.158830e+03,3.395792e+02
3.161723e+03,3.552725e+02
3.164615e+03,3.532072e+02
3.167508e+03,3.714723e+02
3.170401e+03,3.350563e+02
3.173294e+03,3.583430e+02
3.176186e+03,3.577151e+02
3.179079e+03,3.312937e+02
3.181972e+03,3.401356e+02
3.184865e+03,3.417941e+02
3.187757e+03,3.740912e+02
3.190650e+03,3.285254e+02
3.193543e+03,3.313678e+02
3.196435e+03,3.576957e+02
3.199328e+03,3.459821e+02
3.200292e+03,3.444290e+02