File: RAMAN_data/20012023_r1/blue fibre5.CSV
1.995979e+02,4.498320e+03
2.024906e+02,4.510847e+03
2.053833e+02,4.523824e+03
2.082760e+02,4.529948e+03
2.111687e+02,4.525276e+03
2.140614e+02,4.542599e+03
2.169541e+02,4.550333e+03
2.198468e+02,4.556581e+03
2.227395e+02,4.580843e+03
2.256322e+02,4.568337e+03
2.285249e+02,4.555617e+03
2.314176e+02,4.563913e+03
2.343103e+02,4.569429e+03
2.372030e+02,4.586604e+03
2.400957e+02,4.574788e+03
2.429884e+02,4.594911e+03
2.458811e+02,4.587784e+03
2.487738e+02,4.582170e+03
2.516665e+02,4.607008e+03
2.545592e+02,4.610421e+03
2.574519e+02,4.606363e+03
2.603446e+02,4.619687e+03
2.632373e+02,4.601405e+03
2.661300e+02,4.616658e+03
2.690227e+02,4.657469e+03
2.719154e+02,4.642314e+03
2.748081e+02,4.620790e+03
2.777008e+02,4.632348e+03
2.805935e+02,4.650893e+03
2.834862e+02,4.661126e+03
2.863789e+02,4.637797e+03
2.892716e+02,4.634904e+03
2.921643e+02,4.648514e+03
2.950570e+02,4.656593e+03
2.979497e+02,4.668987e+03
3.008424e+02,4.665335e+03
3.037351e+02,4.665435e+03
3.066278e+02,4.659984e+03
3.095205e+02,4.667678e+03
3.124132e+02,4.663617e+03
3.153059e+02,4.680242e+03
3.181986e+02,4.673530e+03
3.210913e+02,4.677866e+03
3.239840e+02,4.669061e+03
3.268767e+02,4.685314e+03
3.297694e+02,4.676175e+03
3.326621e+02,4.670923e+03
3.355548e+02,4.677522e+03
3.384475e+02,4.680690e+03
3.413402e+02,4.712350e+03
3.442329e+02,4.697677e+03
3.471256e+02,4.697846e+03
3.500183e+02,4.685000e+03
3.529110e+02,4.690837e+03
3.558037e+02,4.688094e+03
3.586964e+02,4.695209e+03
3.615891e+02,4.703589e+03
3.644818e+02,4.706836e+03
3.673745e+02,4.668944e+03
3.702672e+02,4.692239e+03
3.731599e+02,4.721309e+03
3.760526e+02,4.733676e+03
3.789453e+02,4.704122e+03
3.818380e+02,4.700501e+03
3.847307e+02,4.678927e+03
3.876234e+02,4.663762e+03
3.905161e+02,4.685431e+03
3.934088e+02,4.678677e+03
3.963015e+02,4.686260e+03
3.991942e+02,4.652042e+03
4.020869e+02,4.668580e+03
4.049796e+02,4.680591e+03
4.078723e+02,4.650530e+03
4.107650e+02,4.694016e+03
4.136577e+02,4.684181e+03
4.165504e+02,4.672776e+03
4.194431e+02,4.671552e+03
4.223358e+02,4.673551e+03
4.252285e+02,4.669106e+03
4.281212e+02,4.647084e+03
4.310139e+02,4.665204e+03
4.339066e+02,4.668321e+03
4.367993e+02,4.643737e+03
4.396920e+02,4.646717e+03
4.425847e+02,4.659403e+03
4.454774e+02,4.668204e+03
4.483701e+02,4.660702e+03
4.512628e+02,4.651868e+03
4.541555e+02,4.656198e+03
4.570482e+02,4.639459e+03
4.599409e+02,4.638448e+03
4.628336e+02,4.638024e+03
4.657263e+02,4.623737e+03
4.686190e+02,4.618370e+03
4.715117e+02,4.611809e+03
4.744044e+02,4.607501e+03
4.772971e+02,4.622946e+03
4.801898e+02,4.626388e+03
4.830825e+02,4.649976e+03
4.859752e+02,4.625507e+03
4.888679e+02,4.613999e+03
4.917606e+02,4.613901e+03
4.946533e+02,4.600329e+03
4.975460e+02,4.599915e+03
5.004387e+02,4.595976e+03
5.033314e+02,4.564400e+03
5.062241e+02,4.584692e+03
5.091168e+02,4.576922e+03
5.120095e+02,4.583386e+03
5.149022e+02,4.581826e+03
5.177949e+02,4.592162e+03
5.206876e+02,4.553589e+03
5.235803e+02,4.554134e+03
5.264730e+02,4.549821e+03
5.293657e+02,4.560712e+03
5.322584e+02,4.545895e+03
5.351511e+02,4.535453e+03
5.380438e+02,4.518180e+03
5.409365e+02,4.521983e+03
5.438292e+02,4.518460e+03
5.467219e+02,4.553760e+03
5.496146e+02,4.515251e+03
5.525073e+02,4.505330e+03
5.554000e+02,4.493297e+03
5.582927e+02,4.520127e+03
5.611854e+02,4.521990e+03
5.640781e+02,4.502702e+03
5.669708e+02,4.492864e+03
5.698635e+02,4.475929e+03
5.727562e+02,4.478154e+03
5.756489e+02,4.493650e+03
5.785416e+02,4.480340e+03
5.814343e+02,4.464587e+03
5.843270e+02,4.462715e+03
5.872197e+02,4.459924e+03
5.901124e+02,4.454495e+03
5.930051e+02,4.454041e+03
5.958978e+02,4.444001e+03
5.987905e+02,4.445519e+03
6.016832e+02,4.444960e+03
6.045759e+02,4.462818e+03
6.074686e+02,4.447450e+03
6.103613e+02,4.424056e+03
6.132540e+02,4.426410e+03
6.161467e+02,4.414030e+03
6.190394e+02,4.412482e+03
6.219321e+02,4.407674e+03
6.248248e+02,4.404621e+03
6.277175e+02,4.396644e+03
6.306102e+02,4.365725e+03
6.335029e+02,4.399376e+03
6.363956e+02,4.384790e+03
6.392883e+02,4.376333e+03
6.421810e+02,4.363788e+03
6.450737e+02,4.363055e+03
6.479664e+02,4.332255e+03
6.508591e+02,4.360971e+03
6.537518e+02,4.355874e+03
6.566445e+02,4.329427e+03
6.595372e+02,4.320565e+03
6.624299e+02,4.327214e+03
6.653226e+02,4.325640e+03
6.682153e+02,4.307146e+03
6.711080e+02,4.323882e+03
6.740007e+02,4.298284e+03
6.768934e+02,4.284210e+03
6.797861e+02,4.273489e+03
6.826788e+02,4.292080e+03
6.855715e+02,4.285491e+03
6.884642e+02,4.284039e+03
6.913569e+02,4.257459e+03
6.942496e+02,4.260600e+03
6.971423e+02,4.275491e+03
7.000350e+02,4.249963e+03
7.029277e+02,4.243680e+03
7.058204e+02,4.224642e+03
7.087131e+02,4.225620e+03
7.116058e+02,4.231933e+03
7.144985e+02,4.212509e+03
7.173912e+02,4.217763e+03
7.202839e+02,4.200187e+03
7.231766e+02,4.203314e+03
7.260693e+02,4.184710e+03
7.289620e+02,4.161934e+03
7.318547e+02,4.168796e+03
7.347474e+02,4.172896e+03
7.376401e+02,4.167324e+03
7.405328e+02,4.147479e+03
7.434255e+02,4.140203e+03
7.463182e+02,4.141849e+03
7.492109e+02,4.135175e+03
7.521036e+02,4.132146e+03
7.549963e+02,4.115286e+03
7.578890e+02,4.105477e+03
7.607817e+02,4.114961e+03
7.636744e+02,4.090157e+03
7.665671e+02,4.101526e+03
7.694598e+02,4.089674e+03
7.723525e+02,4.082869e+03
7.752452e+02,4.067184e+03
7.781379e+02,4.081559e+03
7.810306e+02,4.079046e+03
7.839233e+02,4.054400e+03
7.868160e+02,4.044490e+03
7.897087e+02,4.049331e+03
7.926014e+02,4.044754e+03
7.954941e+02,4.019397e+03
7.983868e+02,4.019211e+03
8.012795e+02,4.012207e+03
8.041722e+02,4.010167e+03
8.070649e+02,4.001573e+03
8.099576e+02,3.996214e+03
8.128503e+02,4.018395e+03
8.157430e+02,3.973811e+03
8.186357e+02,3.989382e+03
8.215284e+02,3.972435e+03
8.244211e+02,3.964718e+03
8.273138e+02,3.986408e+03
8.302065e+02,3.959323e+03
8.330992e+02,3.957005e+03
8.359919e+02,3.942514e+03
8.388846e+02,3.937424e+03
8.417773e+02,3.933356e+03
8.446700e+02,3.920668e+03
8.475627e+02,3.928527e+03
8.504554e+02,3.901626e+03
8.533481e+02,3.903542e+03
8.562408e+02,3.902492e+03
8.591335e+02,3.881910e+03
8.620262e+02,3.881948e+03
8.649189e+02,3.851066e+03
8.678116e+02,3.861373e+03
8.707043e+02,3.867613e+03
8.735970e+02,3.860434e+03
8.764897e+02,3.859197e+03
8.793824e+02,3.838108e+03
8.822751e+02,3.841367e+03
8.851678e+02,3.830531e+03
8.880605e+02,3.839725e+03
8.909532e+02,3.831696e+03
8.938459e+02,3.820376e+03
8.967386e+02,3.809819e+03
8.996313e+02,3.795399e+03
9.025240e+02,3.809350e+03
9.054167e+02,3.770287e+03
9.083094e+02,3.778261e+03
9.112021e+02,3.765405e+03
9.140948e+02,3.760224e+03
9.169875e+02,3.754714e+03
9.198802e+02,3.746425e+03
9.227729e+02,3.728546e+03
9.256656e+02,3.732552e+03
9.285583e+02,3.733043e+03
9.314510e+02,3.713353e+03
9.343438e+02,3.714625e+03
9.372365e+02,3.717457e+03
9.401292e+02,3.713000e+03
9.430219e+02,3.694916e+03
9.459146e+02,3.682395e+03
9.488073e+02,3.692409e+03
9.517000e+02,3.665881e+03
9.545927e+02,3.664421e+03
9.574854e+02,3.644547e+03
9.603781e+02,3.658263e+03
9.632708e+02,3.652982e+03
9.661635e+02,3.642243e+03
9.690562e+02,3.629480e+03
9.719489e+02,3.609707e+03
9.748416e+02,3.611136e+03
9.777343e+02,3.622813e+03
9.806270e+02,3.609254e+03
9.835197e+02,3.592296e+03
9.864124e+02,3.573215e+03
9.893051e+02,3.578158e+03
9.921978e+02,3.596805e+03
9.950905e+02,3.580789e+03
9.979832e+02,3.564199e+03
1.000876e+03,3.554010e+03
1.003769e+03,3.545339e+03
1.006661e+03,3.555210e+03
1.009554e+03,3.549507e+03
1.012447e+03,3.530522e+03
1.015339e+03,3.517213e+03
1.018232e+03,3.515410e+03
1.021125e+03,3.513868e+03
1.024017e+03,3.502364e+03
1.026910e+03,3.529409e+03
1.029803e+03,3.485221e+03
1.032696e+03,3.489875e+03
1.035588e+03,3.490714e+03
1.038481e+03,3.487173e+03
1.041374e+03,3.479413e+03
1.044266e+03,3.476154e+03
1.047159e+03,3.454902e+03
1.050052e+03,3.438688e+03
1.052944e+03,3.459495e+03
1.055837e+03,3.443850e+03
1.058730e+03,3.447919e+03
1.061623e+03,3.441668e+03
1.064515e+03,3.431069e+03
1.067408e+03,3.439141e+03
1.070301e+03,3.451372e+03
1.073193e+03,3.441134e+03
1.076086e+03,3.419496e+03
1.078979e+03,3.406742e+03
1.081871e+03,3.416349e+03
1.084764e+03,3.412598e+03
1.087657e+03,3.424748e+03
1.090550e+03,3.420775e+03
1.093442e+03,3.415436e+03
1.096335e+03,3.403815e+03
1.099228e+03,3.398526e+03
1.102120e+03,3.394395e+03
1.105013e+03,3.377036e+03
1.107906e+03,3.390682e+03
1.110798e+03,3.372450e+03
1.113691e+03,3.367296e+03
1.116584e+03,3.378130e+03
1.119477e+03,3.397003e+03
1.122369e+03,3.374681e+03
1.125262e+03,3.366090e+03
1.128155e+03,3.347280e+03
1.131047e+03,3.341326e+03
1.133940e+03,3.331031e+03
1.136833e+03,3.323097e+03
1.139725e+03,3.310508e+03
1.142618e+03,3.318954e+03
1.145511e+03,3.316508e+03
1.148404e+03,3.297900e+03
1.151296e+03,3.305438e+03
1.154189e+03,3.301612e+03
1.157082e+03,3.281715e+03
1.159974e+03,3.286496e+03
1.162867e+03,3.260401e+03
1.165760e+03,3.249809e+03
1.168652e+03,3.253652e+03
1.171545e+03,3.243850e+03
1.174438e+03,3.228967e+03
1.177331e+03,3.248453e+03
1.180223e+03,3.231025e+03
1.183116e+03,3.222783e+03
1.186009e+03,3.233132e+03
1.188901e+03,3.212545e+03
1.191794e+03,3.216093e+03
1.194687e+03,3.205614e+03
1.197579e+03,3.208087e+03
1.200472e+03,3.198942e+03
1.203365e+03,3.176418e+03
1.206258e+03,3.179740e+03
1.209150e+03,3.183870e+03
1.212043e+03,3.193200e+03
1.214936e+03,3.178067e+03
1.217828e+03,3.161754e+03
1.220721e+03,3.163338e+03
1.223614e+03,3.153230e+03
1.226506e+03,3.161642e+03
1.229399e+03,3.158838e+03
1.232292e+03,3.134612e+03
1.235185e+03,3.130390e+03
1.238077e+03,3.145445e+03
1.240970e+03,3.130151e+03
1.243863e+03,3.130240e+03
1.246755e+03,3.116888e+03
1.249648e+03,3.096920e+03
1.252541e+03,3.099503e+03
1.255433e+03,3.107418e+03
1.258326e+03,3.097967e+03
1.261219e+03,3.087518e+03
1.264112e+03,3.090708e+03
1.267004e+03,3.087262e+03
1.269897e+03,3.092196e+03
1.272790e+03,3.107398e+03
1.275682e+03,3.096733e+03
1.278575e+03,3.072784e+03
1.281468e+03,3.088881e+03
1.284360e+03,3.079280e+03
1.287253e+03,3.076825e+03
1.290146e+03,3.076455e+03
1.293039e+03,3.049958e+03
1.295931e+03,3.044507e+03
1.298824e+03,3.030313e+03
1.301717e+03,3.038923e+03
1.304609e+03,3.034706e+03
1.307502e+03,3.036085e+03
1.310395e+03,3.013162e+03
1.313287e+03,3.012989e+03
1.316180e+03,2.994696e+03
1.319073e+03,3.007481e+03
1.321966e+03,3.016724e+03
1.324858e+03,2.999513e+03
1.327751e+03,2.996621e+03
1.330644e+03,2.996133e+03
1.333536e+03,3.011691e+03
1.336429e+03,3.004958e+03
1.339322e+03,2.998899e+03
1.342214e+03,2.974215e+03
1.345107e+03,2.973737e+03
1.348000e+03,2.975535e+03
1.350893e+03,2.979479e+03
1.353785e+03,2.954156e+03
1.356678e+03,2.965466e+03
1.359571e+03,2.952744e+03
1.362463e+03,2.968445e+03
1.365356e+03,2.959403e+03
1.368249e+03,2.942037e+03
1.371141e+03,2.932922e+03
1.374034e+03,2.931915e+03
1.376927e+03,2.929559e+03
1.379820e+03,2.918941e+03
1.382712e+03,2.914974e+03
1.385605e+03,2.902071e+03
1.388498e+03,2.898277e+03
1.391390e+03,2.882468e+03
1.394283e+03,2.881448e+03
1.397176e+03,2.881866e+03
1.400068e+03,2.874447e+03
1.402961e+03,2.876973e+03
1.405854e+03,2.868130e+03
1.408747e+03,2.876572e+03
1.411639e+03,2.877111e+03
1.414532e+03,2.850870e+03
1.417425e+03,2.860534e+03
1.420317e+03,2.838947e+03
1.423210e+03,2.850151e+03
1.426103e+03,2.831172e+03
1.428995e+03,2.830183e+03
1.431888e+03,2.826991e+03
1.434781e+03,2.815513e+03
1.437674e+03,2.807885e+03
1.440566e+03,2.803025e+03
1.443459e+03,2.805266e+03
1.446352e+03,2.806533e+03
1.449244e+03,2.784963e+03
1.452137e+03,2.778898e+03
1.455030e+03,2.785116e+03
1.457922e+03,2.787153e+03
1.460815e+03,2.785342e+03
1.463708e+03,2.766938e+03
1.466601e+03,2.767396e+03
1.469493e+03,2.749943e+03
1.472386e+03,2.768595e+03
1.475279e+03,2.752659e+03
1.478171e+03,2.750634e+03
1.481064e+03,2.748769e+03
1.483957e+03,2.737707e+03
1.486849e+03,2.743211e+03
1.489742e+03,2.750308e+03
1.492635e+03,2.718474e+03
1.495528e+03,2.730984e+03
1.498420e+03,2.710300e+03
1.501313e+03,2.702358e+03
1.504206e+03,2.709911e+03
1.507098e+03,2.704819e+03
1.509991e+03,2.687846e+03
1.512884e+03,2.698200e+03
1.515776e+03,2.684892e+03
1.518669e+03,2.686545e+03
1.521562e+03,2.686842e+03
1.524455e+03,2.674374e+03
1.527347e+03,2.672318e+03
1.530240e+03,2.637636e+03
1.533133e+03,2.661621e+03
1.536025e+03,2.652316e+03
1.538918e+03,2.663368e+03
1.541811e+03,2.650583e+03
1.544703e+03,2.635303e+03
1.547596e+03,2.641035e+03
1.550489e+03,2.640387e+03
1.553382e+03,2.629173e+03
1.556274e+03,2.628833e+03
1.559167e+03,2.629446e+03
1.562060e+03,2.622911e+03
1.564952e+03,2.631026e+03
1.567845e+03,2.623444e+03
1.570738e+03,2.628740e+03
1.573630e+03,2.621753e+03
1.576523e+03,2.607796e+03
1.579416e+03,2.614367e+03
1.582309e+03,2.623300e+03
1.585201e+03,2.601062e+03
1.588094e+03,2.602310e+03
1.590987e+03,2.596241e+03
1.593879e+03,2.575064e+03
1.596772e+03,2.570468e+03
1.599665e+03,2.557382e+03
1.602557e+03,2.561945e+03
1.605450e+03,2.548020e+03
1.608343e+03,2.537201e+03
1.611236e+03,2.549911e+03
1.614128e+03,2.557782e+03
1.617021e+03,2.549846e+03
1.619914e+03,2.534226e+03
1.622806e+03,2.509360e+03
1.625699e+03,2.528385e+03
1.628592e+03,2.508702e+03
1.631484e+03,2.512834e+03
1.634377e+03,2.501219e+03
1.637270e+03,2.492841e+03
1.640163e+03,2.488187e+03
1.643055e+03,2.490391e+03
1.645948e+03,2.477898e+03
1.648841e+03,2.467293e+03
1.651733e+03,2.476131e+03
1.654626e+03,2.466636e+03
1.657519e+03,2.465630e+03
1.660411e+03,2.459507e+03
1.663304e+03,2.444881e+03
1.666197e+03,2.448278e+03
1.669090e+03,2.444640e+03
1.671982e+03,2.429162e+03
1.674875e+03,2.437148e+03
1.677768e+03,2.439385e+03
1.680660e+03,2.408112e+03
1.683553e+03,2.417871e+03
1.686446e+03,2.401955e+03
1.689339e+03,2.410168e+03
1.692231e+03,2.389547e+03
1.695124e+03,2.387658e+03
1.698017e+03,2.390529e+03
1.700909e+03,2.378491e+03
1.703802e+03,2.391134e+03
1.706695e+03,2.371977e+03
1.709587e+03,2.379705e+03
1.712480e+03,2.357082e+03
1.715373e+03,2.370270e+03
1.718266e+03,2.359745e+03
1.721158e+03,2.346298e+03
1.724051e+03,2.361059e+03
1.726944e+03,2.330834e+03
1.729836e+03,2.334033e+03
1.732729e+03,2.329772e+03
1.735622e+03,2.312156e+03
1.738514e+03,2.332904e+03
1.741407e+03,2.312707e+03
1.744300e+03,2.315454e+03
1.747193e+03,2.320733e+03
1.750085e+03,2.293933e+03
1.752978e+03,2.296803e+03
1.755871e+03,2.296018e+03
1.758763e+03,2.288977e+03
1.761656e+03,2.282474e+03
1.764549e+03,2.262716e+03
1.767441e+03,2.286062e+03
1.770334e+03,2.268545e+03
1.773227e+03,2.272411e+03
1.776120e+03,2.253870e+03
1.779012e+03,2.258993e+03
1.781905e+03,2.255166e+03
1.784798e+03,2.230146e+03
1.787690e+03,2.247625e+03
1.790583e+03,2.223256e+03
1.793476e+03,2.222977e+03
1.796368e+03,2.224924e+03
1.799261e+03,2.203964e+03
1.802154e+03,2.205515e+03
1.805047e+03,2.207949e+03
1.807939e+03,2.201711e+03
1.810832e+03,2.205433e+03
1.813725e+03,2.192758e+03
1.816617e+03,2.193847e+03
1.819510e+03,2.179989e+03
1.822403e+03,2.180113e+03
1.825295e+03,2.167277e+03
1.828188e+03,2.159683e+03
1.831081e+03,2.153231e+03
1.833974e+03,2.158859e+03
1.836866e+03,2.136600e+03
1.839759e+03,2.148475e+03
1.842652e+03,2.170799e+03
1.845544e+03,2.133567e+03
1.848437e+03,2.141290e+03
1.851330e+03,2.126116e+03
1.854222e+03,2.117334e+03
1.857115e+03,2.130505e+03
1.860008e+03,2.110086e+03
1.862901e+03,2.122693e+03
1.865793e+03,2.085381e+03
1.868686e+03,2.095595e+03
1.871579e+03,2.087231e+03
1.874471e+03,2.091511e+03
1.877364e+03,2.093235e+03
1.880257e+03,2.080614e+03
1.883149e+03,2.057173e+03
1.886042e+03,2.069359e+03
1.888935e+03,2.051903e+03
1.891828e+03,2.063005e+03
1.894720e+03,2.039079e+03
1.897613e+03,2.041597e+03
1.900506e+03,2.053468e+03
1.903398e+03,2.039119e+03
1.906291e+03,2.041186e+03
1.909184e+03,2.031497e+03
1.912076e+03,2.016859e+03
1.914969e+03,1.993927e+03
1.917862e+03,2.006800e+03
1.920755e+03,2.007894e+03
1.923647e+03,2.008826e+03
1.926540e+03,1.992558e+03
1.929433e+03,1.983793e+03
1.932325e+03,1.980282e+03
1.935218e+03,1.966220e+03
1.938111e+03,1.945708e+03
1.941003e+03,1.980535e+03
1.943896e+03,1.960800e+03
1.946789e+03,1.970701e+03
1.949682e+03,1.953799e+03
1.952574e+03,1.938212e+03
1.955467e+03,1.930307e+03
1.958360e+03,1.943188e+03
1.961252e+03,1.937444e+03
1.964145e+03,1.912334e+03
1.967038e+03,1.926360e+03
1.969930e+03,1.909844e+03
1.972823e+03,1.899743e+03
1.975716e+03,1.904315e+03
1.978609e+03,1.889212e+03
1.981501e+03,1.904123e+03
1.984394e+03,1.899367e+03
1.987287e+03,1.879330e+03
1.990179e+03,1.877275e+03
1.993072e+03,1.854219e+03
1.995965e+03,1.869145e+03
1.998857e+03,1.889906e+03
2.001750e+03,1.838253e+03
2.004643e+03,1.864277e+03
2.007536e+03,1.867854e+03
2.010428e+03,1.840765e+03
2.013321e+03,1.831303e+03
2.016214e+03,1.827844e+03
2.019106e+03,1.823258e+03
2.021999e+03,1.825425e+03
2.024892e+03,1.826377e+03
2.027784e+03,1.806443e+03
2.030677e+03,1.804584e+03
2.033570e+03,1.791814e+03
2.036463e+03,1.795189e+03
2.039355e+03,1.783009e+03
2.042248e+03,1.785863e+03
2.045141e+03,1.782325e+03
2.048033e+03,1.770377e+03
2.050926e+03,1.792549e+03
2.053819e+03,1.763390e+03
2.056711e+03,1.753005e+03
2.059604e+03,1.746295e+03
2.062497e+03,1.764984e+03
2.065390e+03,1.750391e+03
2.068282e+03,1.749518e+03
2.071175e+03,1.730402e+03
2.074068e+03,1.727249e+03
2.076960e+03,1.733997e+03
2.079853e+03,1.720576e+03
2.082746e+03,1.723875e+03
2.085638e+03,1.688025e+03
2.088531e+03,1.716413e+03
2.091424e+03,1.703088e+03
2.094316e+03,1.698486e+03
2.097209e+03,1.708647e+03
2.100102e+03,1.702647e+03
2.102995e+03,1.675055e+03
2.105887e+03,1.690851e+03
2.108780e+03,1.685211e+03
2.111673e+03,1.660417e+03
2.114565e+03,1.661857e+03
2.117458e+03,1.652918e+03
2.120351e+03,1.662844e+03
2.123244e+03,1.662649e+03
2.126136e+03,1.650491e+03
2.129029e+03,1.633450e+03
2.131922e+03,1.622832e+03
2.134814e+03,1.639569e+03
2.137707e+03,1.633510e+03
2.140600e+03,1.608778e+03
2.143492e+03,1.620351e+03
2.146385e+03,1.589037e+03
2.149278e+03,1.599781e+03
2.152170e+03,1.598089e+03
2.155063e+03,1.607938e+03
2.157956e+03,1.587126e+03
2.160849e+03,1.575870e+03
2.163741e+03,1.579489e+03
2.166634e+03,1.583525e+03
2.169527e+03,1.558385e+03
2.172419e+03,1.570755e+03
2.175312e+03,1.555070e+03
2.178205e+03,1.552762e+03
2.181098e+03,1.539378e+03
2.183990e+03,1.561812e+03
2.186883e+03,1.535702e+03
2.189776e+03,1.524708e+03
2.192668e+03,1.508930e+03
2.195561e+03,1.543564e+03
2.198454e+03,1.509897e+03
2.201346e+03,1.483699e+03
2.204239e+03,1.530523e+03
2.207132e+03,1.517995e+03
2.210024e+03,1.491265e+03
2.212917e+03,1.497463e+03
2.215810e+03,1.484462e+03
2.218703e+03,1.486725e+03
2.221595e+03,1.505870e+03
2.224488e+03,1.474014e+03
2.227381e+03,1.454390e+03
2.230273e+03,1.487448e+03
2.233166e+03,1.456843e+03
2.236059e+03,1.464572e+03
2.238952e+03,1.458421e+03
2.241844e+03,1.458229e+03
2.244737e+03,1.431867e+03
2.247630e+03,1.448547e+03
2.250522e+03,1.424753e+03
2.253415e+03,1.445935e+03
2.256308e+03,1.420304e+03
2.259200e+03,1.430359e+03
2.262093e+03,1.419825e+03
2.264986e+03,1.406926e+03
2.267879e+03,1.417535e+03
2.270771e+03,1.396601e+03
2.273664e+03,1.397871e+03
2.276557e+03,1.402594e+03
2.279449e+03,1.394062e+03
2.282342e+03,1.382411e+03
2.285235e+03,1.375677e+03
2.288127e+03,1.368297e+03
2.291020e+03,1.375966e+03
2.293913e+03,1.366892e+03
2.296805e+03,1.360369e+03
2.299698e+03,1.359873e+03
2.302591e+03,1.360489e+03
2.305484e+03,1.349504e+03
2.308376e+03,1.332141e+03
2.311269e+03,1.345768e+03
2.314162e+03,1.348199e+03
2.317054e+03,1.335248e+03
2.319947e+03,1.322948e+03
2.322840e+03,1.327951e+03
2.325733e+03,1.317934e+03
2.328625e+03,1.329806e+03
2.331518e+03,1.287366e+03
2.334411e+03,1.297767e+03
2.337303e+03,1.312443e+03
2.340196e+03,1.285039e+03
2.343089e+03,1.304104e+03
2.345981e+03,1.300897e+03
2.348874e+03,1.289206e+03
2.351767e+03,1.270304e+03
2.354659e+03,1.280689e+03
2.357552e+03,1.288322e+03
2.360445e+03,1.272109e+03
2.363338e+03,1.273595e+03
2.366230e+03,1.249165e+03
2.369123e+03,1.270206e+03
2.372016e+03,1.253124e+03
2.374908e+03,1.243406e+03
2.377801e+03,1.244895e+03
2.380694e+03,1.241640e+03
2.383587e+03,1.245280e+03
2.386479e+03,1.226937e+03
2.389372e+03,1.226726e+03
2.392265e+03,1.216846e+03
2.395157e+03,1.220495e+03
2.398050e+03,1.217770e+03
2.400943e+03,1.214049e+03
2.403835e+03,1.207136e+03
2.406728e+03,1.215793e+03
2.409621e+03,1.220981e+03
2.412513e+03,1.207398e+03
2.415406e+03,1.205525e+03
2.418299e+03,1.194943e+03
2.421192e+03,1.194080e+03
2.424084e+03,1.198411e+03
2.426977e+03,1.180536e+03
2.429870e+03,1.187175e+03
2.432762e+03,1.184920e+03
2.435655e+03,1.174128e+03
2.438548e+03,1.174053e+03
2.441441e+03,1.178137e+03
2.444333e+03,1.171459e+03
2.447226e+03,1.164391e+03
2.450119e+03,1.152152e+03
2.453011e+03,1.152920e+03
2.455904e+03,1.155829e+03
2.458797e+03,1.139758e+03
2.461689e+03,1.133108e+03
2.464582e+03,1.150364e+03
2.467475e+03,1.138680e+03
2.470367e+03,1.132781e+03
2.473260e+03,1.116331e+03
2.476153e+03,1.126631e+03
2.479046e+03,1.121078e+03
2.481938e+03,1.117111e+03
2.484831e+03,1.113204e+03
2.487724e+03,1.115623e+03
2.490616e+03,1.105045e+03
2.493509e+03,1.112835e+03
2.496402e+03,1.123447e+03
2.499295e+03,1.102374e+03
2.502187e+03,1.091315e+03
2.505080e+03,1.096701e+03
2.507973e+03,1.094853e+03
2.510865e+03,1.095008e+03
2.513758e+03,1.082378e+03
2.516651e+03,1.069839e+03
2.519543e+03,1.087319e+03
2.522436e+03,1.075987e+03
2.525329e+03,1.068720e+03
2.528221e+03,1.085064e+03
2.531114e+03,1.051636e+03
2.534007e+03,1.072578e+03
2.536900e+03,1.060483e+03
2.539792e+03,1.054490e+03
2.542685e+03,1.054270e+03
2.545578e+03,1.062836e+03
2.548470e+03,1.052117e+03
2.551363e+03,1.066118e+03
2.554256e+03,1.054026e+03
2.557149e+03,1.042856e+03
2.560041e+03,1.047523e+03
2.562934e+03,1.043577e+03
2.565827e+03,1.054098e+03
2.568719e+03,1.029870e+03
2.571612e+03,1.047211e+03
2.574505e+03,1.038066e+03
2.577397e+03,1.033619e+03
2.580290e+03,1.029644e+03
2.583183e+03,9.952319e+02
2.586075e+03,1.016359e+03
2.588968e+03,1.018818e+03
2.591861e+03,1.013507e+03
2.594754e+03,1.005258e+03
2.597646e+03,9.963336e+02
2.600539e+03,1.018872e+03
2.603432e+03,9.828343e+02
2.606324e+03,9.962231e+02
2.609217e+03,9.848893e+02
2.612110e+03,9.878744e+02
2.615003e+03,9.874525e+02
2.617895e+03,9.969724e+02
2.620788e+03,9.936581e+02
2.623681e+03,9.889025e+02
2.626573e+03,9.837772e+02
2.629466e+03,9.894816e+02
2.632359e+03,9.756217e+02
2.635251e+03,9.690114e+02
2.638144e+03,9.872099e+02
2.641037e+03,9.810213e+02
2.643929e+03,9.596731e+02
2.646822e+03,9.554235e+02
2.649715e+03,9.545010e+02
2.652608e+03,9.525596e+02
2.655500e+03,9.687551e+02
2.658393e+03,9.490678e+02
2.661286e+03,9.515879e+02
2.664178e+03,9.670408e+02
2.667071e+03,9.579066e+02
2.669964e+03,9.491478e+02
2.672857e+03,9.477771e+02
2.675749e+03,9.520754e+02
2.678642e+03,9.309036e+02
2.681535e+03,9.250842e+02
2.684427e+03,9.244512e+02
2.687320e+03,9.262025e+02
2.690213e+03,9.379652e+02
2.693105e+03,9.185926e+02
2.695998e+03,9.196867e+02
2.698891e+03,9.262937e+02
2.701783e+03,9.190323e+02
2.704676e+03,9.005100e+02
2.707569e+03,9.023284e+02
2.710462e+03,9.432701e+02
2.713354e+03,8.988845e+02
2.716247e+03,9.107156e+02
2.719140e+03,8.968831e+02
2.722032e+03,8.986044e+02
2.724925e+03,9.051471e+02
2.727818e+03,9.030155e+02
2.730711e+03,8.929297e+02
2.733603e+03,9.029695e+02
2.736496e+03,8.950526e+02
2.739389e+03,8.921731e+02
2.742281e+03,9.017829e+02
2.745174e+03,9.026532e+02
2.748067e+03,8.867021e+02
2.750959e+03,9.016330e+02
2.753852e+03,9.002996e+02
2.756745e+03,8.739764e+02
2.759637e+03,8.791678e+02
2.762530e+03,8.811827e+02
2.765423e+03,8.580009e+02
2.768316e+03,8.925636e+02
2.771208e+03,8.572056e+02
2.774101e+03,8.746205e+02
2.776994e+03,8.753174e+02
2.779886e+03,8.591367e+02
2.782779e+03,8.690965e+02
2.785672e+03,8.560189e+02
2.788565e+03,8.628474e+02
2.791457e+03,8.780538e+02
2.794350e+03,8.417225e+02
2.797243e+03,8.539224e+02
2.800135e+03,8.702423e+02
2.803028e+03,8.538801e+02
2.805921e+03,8.570393e+02
2.808813e+03,8.497660e+02
2.811706e+03,8.601232e+02
2.814599e+03,8.542571e+02
2.817491e+03,8.438265e+02
2.820384e+03,8.335134e+02
2.823277e+03,8.206890e+02
2.826170e+03,8.478519e+02
2.829062e+03,8.488892e+02
2.831955e+03,8.378729e+02
2.834848e+03,8.358136e+02
2.837740e+03,8.480186e+02
2.840633e+03,8.198337e+02
2.843526e+03,8.293245e+02
2.846419e+03,8.348788e+02
2.849311e+03,8.344995e+02
2.852204e+03,8.336634e+02
2.855097e+03,8.322531e+02
2.857990e+03,8.484627e+02
2.860882e+03,8.376656e+02
2.863775e+03,8.173187e+02
2.866667e+03,8.268897e+02
2.869560e+03,8.383664e+02
2.872453e+03,8.291683e+02
2.875345e+03,8.291890e+02
2.878238e+03,8.337375e+02
2.881131e+03,8.378649e+02
2.884024e+03,8.642322e+02
2.886916e+03,8.397836e+02
2.889809e+03,8.360203e+02
2.892702e+03,8.341935e+02
2.895594e+03,8.426797e+02
2.898487e+03,8.314259e+02
2.901380e+03,8.356075e+02
2.904273e+03,8.140384e+02
2.907165e+03,8.248981e+02
2.910058e+03,8.153366e+02
2.912951e+03,8.265181e+02
2.915844e+03,8.357806e+02
2.918736e+03,8.034592e+02
2.921629e+03,8.162286e+02
2.924521e+03,8.014906e+02
2.927414e+03,8.104672e+02
2.930307e+03,8.206139e+02
2.933199e+03,7.947025e+02
2.936092e+03,7.878262e+02
2.938985e+03,7.718486e+02
2.941878e+03,7.760912e+02
2.944770e+03,8.041970e+02
2.947663e+03,7.940377e+02
2.950556e+03,8.002402e+02
2.953448e+03,8.031879e+02
2.956341e+03,8.080770e+02
2.959234e+03,8.123502e+02
2.962127e+03,7.532865e+02
2.965019e+03,7.726109e+02
2.967912e+03,7.732974e+02
2.970805e+03,7.403867e+02
2.973698e+03,7.765491e+02
2.976590e+03,7.622275e+02
2.979483e+03,7.789426e+02
2.982375e+03,7.528909e+02
2.985268e+03,7.573631e+02
2.988161e+03,7.483314e+02
2.991053e+03,7.422266e+02
2.993946e+03,7.477768e+02
2.996839e+03,7.637295e+02
2.999732e+03,7.360788e+02
3.002624e+03,7.612820e+02
3.005517e+03,7.401423e+02
3.008410e+03,7.432611e+02
3.011302e+03,7.525580e+02
3.014195e+03,7.221545e+02
3.017088e+03,7.819426e+02
3.019981e+03,7.466002e+02
3.022873e+03,7.561691e+02
3.025766e+03,7.186480e+02
3.028659e+03,7.421084e+02
3.031552e+03,7.142933e+02
3.034444e+03,7.456778e+02
3.037337e+03,7.213730e+02
3.040229e+03,7.074296e+02
3.043122e+03,7.237060e+02
3.046015e+03,7.363910e+02
3.048907e+03,7.181501e+02
3.051800e+03,7.251906e+02
3.054693e+03,7.502598e+02
3.057586e+03,7.577878e+02
3.060478e+03,7.456960e+02
3.063371e+03,7.313311e+02
3.066264e+03,7.541868e+02
3.069156e+03,7.337175e+02
3.072049e+03,7.411293e+02
3.074942e+03,7.240431e+02
3.077835e+03,7.122396e+02
3.080727e+03,7.252700e+02
3.083620e+03,7.028264e+02
3.086513e+03,7.615646e+02
3.089406e+03,7.277164e+02
3.092298e+03,7.248524e+02
3.095191e+03,7.496391e+02
3.098083e+03,7.024773e+02
3.100976e+03,7.363925e+02
3.103869e+03,7.275915e+02
3.106761e+03,6.696199e+02
3.109654e+03,7.203656e+02
3.112547e+03,7.225540e+02
3.115440e+03,7.362387e+02
3.118332e+03,7.376776e+02
3.121225e+03,7.091848e+02
3.124118e+03,7.400118e+02
3.127010e+03,7.529150e+02
3.129903e+03,7.173311e+02
3.132796e+03,7.198844e+02
3.135689e+03,7.348611e+02
3.138581e+03,7.297653e+02
3.141474e+03,7.448938e+02
3.144367e+03,7.046172e+02
3.147260e+03,7.181596e+02
3.150152e+03,7.314504e+02
3.153045e+03,7.257726e+02
3.155938e+03,6.918743e+02
3.158830e+03,7.273291e+02
3.161723e+03,7.183744e+02
3.164615e+03,7.314952e+02
3.167508e+03,7.118864e+02
3.170401e+03,6.985300e+02
3.173294e+03,7.308131e+02
3.176186e+03,7.154025e+02
3.179079e+03,7.026312e+02
3.181972e+03,7.084943e+02
3.184865e+03,7.208209e+02
3.187757e+03,7.360428e+02
3.190650e+03,7.630616e+02
3.193543e+03,6.833732e+02
3.196435e+03,7.535479e+02
3.199328e+03,7.394732e+02
3.200292e+03,7.621635e+02