File: RAMAN_data/20012023_r1/blue fibre15.CSV
1.995979e+02,5.990264e+03
2.024906e+02,6.010713e+03
2.053833e+02,6.034686e+03
2.082760e+02,6.060135e+03
2.111687e+02,6.068994e+03
2.140614e+02,6.063162e+03
2.169541e+02,6.103658e+03
2.198468e+02,6.136417e+03
2.227395e+02,6.152147e+03
2.256322e+02,6.145092e+03
2.285249e+02,6.182388e+03
2.314176e+02,6.194046e+03
2.343103e+02,6.247671e+03
2.372030e+02,6.277960e+03
2.400957e+02,6.290291e+03
2.429884e+02,6.305733e+03
2.458811e+02,6.355636e+03
2.487738e+02,6.360304e+03
2.516665e+02,6.409858e+03
2.545592e+02,6.418612e+03
2.574519e+02,6.421319e+03
2.603446e+02,6.451737e+03
2.632373e+02,6.496155e+03
2.661300e+02,6.518339e+03
2.690227e+02,6.540927e+03
2.719154e+02,6.585431e+03
2.748081e+02,6.629575e+03
2.777008e+02,6.699258e+03
2.805935e+02,6.731519e+03
2.834862e+02,6.737281e+03
2.863789e+02,6.708334e+03
2.892716e+02,6.696160e+03
2.921643e+02,6.685398e+03
2.950570e+02,6.690711e+03
2.979497e+02,6.723192e+03
3.008424e+02,6.738436e+03
3.037351e+02,6.722387e+03
3.066278e+02,6.718378e+03
3.095205e+02,6.760737e+03
3.124132e+02,6.791500e+03
3.153059e+02,6.791131e+03
3.181986e+02,6.809376e+03
3.210913e+02,6.835119e+03
3.239840e+02,6.829134e+03
3.268767e+02,6.852885e+03
3.297694e+02,6.863858e+03
3.326621e+02,6.888040e+03
3.355548e+02,6.895424e+03
3.384475e+02,6.897135e+03
3.413402e+02,6.924955e+03
3.442329e+02,6.935283e+03
3.471256e+02,6.941139e+03
3.500183e+02,6.947374e+03
3.529110e+02,6.969703e+03
3.558037e+02,6.982319e+03
3.586964e+02,6.998117e+03
3.615891e+02,7.035843e+03
3.644818e+02,7.035871e+03
3.673745e+02,7.016094e+03
3.702672e+02,7.056151e+03
3.731599e+02,7.088826e+03
3.760526e+02,7.124771e+03
3.789453e+02,7.110346e+03
3.818380e+02,7.112093e+03
3.847307e+02,7.129093e+03
3.876234e+02,7.146787e+03
3.905161e+02,7.152082e+03
3.934088e+02,7.149360e+03
3.963015e+02,7.164865e+03
3.991942e+02,7.184476e+03
4.020869e+02,7.143000e+03
4.049796e+02,7.188899e+03
4.078723e+02,7.175015e+03
4.107650e+02,7.198422e+03
4.136577e+02,7.210924e+03
4.165504e+02,7.214216e+03
4.194431e+02,7.240313e+03
4.223358e+02,7.255243e+03
4.252285e+02,7.264984e+03
4.281212e+02,7.256448e+03
4.310139e+02,7.252638e+03
4.339066e+02,7.302291e+03
4.367993e+02,7.298791e+03
4.396920e+02,7.286672e+03
4.425847e+02,7.320922e+03
4.454774e+02,7.319185e+03
4.483701e+02,7.333322e+03
4.512628e+02,7.343579e+03
4.541555e+02,7.377738e+03
4.570482e+02,7.364829e+03
4.599409e+02,7.344921e+03
4.628336e+02,7.345974e+03
4.657263e+02,7.350768e+03
4.686190e+02,7.386533e+03
4.715117e+02,7.354095e+03
4.744044e+02,7.362443e+03
4.772971e+02,7.379975e+03
4.801898e+02,7.364949e+03
4.830825e+02,7.404127e+03
4.859752e+02,7.391798e+03
4.888679e+02,7.412854e+03
4.917606e+02,7.425923e+03
4.946533e+02,7.425986e+03
4.975460e+02,7.420703e+03
5.004387e+02,7.456685e+03
5.033314e+02,7.452405e+03
5.062241e+02,7.476422e+03
5.091168e+02,7.462416e+03
5.120095e+02,7.475535e+03
5.149022e+02,7.488723e+03
5.177949e+02,7.502555e+03
5.206876e+02,7.490549e+03
5.235803e+02,7.469167e+03
5.264730e+02,7.480683e+03
5.293657e+02,7.506898e+03
5.322584e+02,7.513547e+03
5.351511e+02,7.543017e+03
5.380438e+02,7.536920e+03
5.409365e+02,7.593413e+03
5.438292e+02,7.606652e+03
5.467219e+02,7.641955e+03
5.496146e+02,7.647888e+03
5.525073e+02,7.660899e+03
5.554000e+02,7.714907e+03
5.582927e+02,7.779372e+03
5.611854e+02,7.750092e+03
5.640781e+02,7.647348e+03
5.669708e+02,7.606439e+03
5.698635e+02,7.555938e+03
5.727562e+02,7.543916e+03
5.756489e+02,7.540021e+03
5.785416e+02,7.524760e+03
5.814343e+02,7.519188e+03
5.843270e+02,7.517402e+03
5.872197e+02,7.553520e+03
5.901124e+02,7.537184e+03
5.930051e+02,7.559036e+03
5.958978e+02,7.569970e+03
5.987905e+02,7.581264e+03
6.016832e+02,7.598798e+03
6.045759e+02,7.597024e+03
6.074686e+02,7.649794e+03
6.103613e+02,7.727475e+03
6.132540e+02,7.686572e+03
6.161467e+02,7.565692e+03
6.190394e+02,7.518805e+03
6.219321e+02,7.509898e+03
6.248248e+02,7.514396e+03
6.277175e+02,7.483733e+03
6.306102e+02,7.493054e+03
6.335029e+02,7.503685e+03
6.363956e+02,7.470412e+03
6.392883e+02,7.467243e+03
6.421810e+02,7.470704e+03
6.450737e+02,7.450373e+03
6.479664e+02,7.478142e+03
6.508591e+02,7.463729e+03
6.537518e+02,7.463615e+03
6.566445e+02,7.453979e+03
6.595372e+02,7.440271e+03
6.624299e+02,7.426291e+03
6.653226e+02,7.425627e+03
6.682153e+02,7.415938e+03
6.711080e+02,7.421456e+03
6.740007e+02,7.449266e+03
6.768934e+02,7.454368e+03
6.797861e+02,7.401345e+03
6.826788e+02,7.445768e+03
6.855715e+02,7.430938e+03
6.884642e+02,7.444304e+03
6.913569e+02,7.395327e+03
6.942496e+02,7.373208e+03
6.971423e+02,7.357159e+03
7.000350e+02,7.357424e+03
7.029277e+02,7.355019e+03
7.058204e+02,7.349317e+03
7.087131e+02,7.328461e+03
7.116058e+02,7.336471e+03
7.144985e+02,7.310310e+03
7.173912e+02,7.347219e+03
7.202839e+02,7.339518e+03
7.231766e+02,7.296284e+03
7.260693e+02,7.286325e+03
7.289620e+02,7.287282e+03
7.318547e+02,7.252209e+03
7.347474e+02,7.240379e+03
7.376401e+02,7.255472e+03
7.405328e+02,7.242093e+03
7.434255e+02,7.226218e+03
7.463182e+02,7.277317e+03
7.492109e+02,7.270591e+03
7.521036e+02,7.235624e+03
7.549963e+02,7.193848e+03
7.578890e+02,7.206647e+03
7.607817e+02,7.245962e+03
7.636744e+02,7.192098e+03
7.665671e+02,7.202291e+03
7.694598e+02,7.206672e+03
7.723525e+02,7.165636e+03
7.752452e+02,7.201457e+03
7.781379e+02,7.244641e+03
7.810306e+02,7.202239e+03
7.839233e+02,7.199095e+03
7.868160e+02,7.207083e+03
7.897087e+02,7.193493e+03
7.926014e+02,7.191867e+03
7.954941e+02,7.143753e+03
7.983868e+02,7.100474e+03
8.012795e+02,7.094885e+03
8.041722e+02,7.065046e+03
8.070649e+02,7.071354e+03
8.099576e+02,7.041203e+03
8.128503e+02,7.031179e+03
8.157430e+02,7.019117e+03
8.186357e+02,7.025549e+03
8.215284e+02,7.008092e+03
8.244211e+02,6.996815e+03
8.273138e+02,7.008505e+03
8.302065e+02,6.978712e+03
8.330992e+02,6.995127e+03
8.359919e+02,6.975798e+03
8.388846e+02,6.985038e+03
8.417773e+02,6.970981e+03
8.446700e+02,6.973229e+03
8.475627e+02,6.923208e+03
8.504554e+02,6.897686e+03
8.533481e+02,6.905397e+03
8.562408e+02,6.902942e+03
8.591335e+02,6.866931e+03
8.620262e+02,6.827220e+03
8.649189e+02,6.833618e+03
8.678116e+02,6.836617e+03
8.707043e+02,6.836239e+03
8.735970e+02,6.831408e+03
8.764897e+02,6.818560e+03
8.793824e+02,6.770878e+03
8.822751e+02,6.797846e+03
8.851678e+02,6.786314e+03
8.880605e+02,6.785371e+03
8.909532e+02,6.749960e+03
8.938459e+02,6.727375e+03
8.967386e+02,6.707615e+03
8.996313e+02,6.707747e+03
9.025240e+02,6.699674e+03
9.054167e+02,6.660814e+03
9.083094e+02,6.658012e+03
9.112021e+02,6.627093e+03
9.140948e+02,6.627163e+03
9.169875e+02,6.635665e+03
9.198802e+02,6.600521e+03
9.227729e+02,6.560178e+03
9.256656e+02,6.573586e+03
9.285583e+02,6.553233e+03
9.314510e+02,6.529280e+03
9.343438e+02,6.552376e+03
9.372365e+02,6.532604e+03
9.401292e+02,6.500610e+03
9.430219e+02,6.510397e+03
9.459146e+02,6.509759e+03
9.488073e+02,6.510757e+03
9.517000e+02,6.442990e+03
9.545927e+02,6.460083e+03
9.574854e+02,6.428821e+03
9.603781e+02,6.426588e+03
9.632708e+02,6.431642e+03
9.661635e+02,6.394909e+03
9.690562e+02,6.377026e+03
9.719489e+02,6.346800e+03
9.748416e+02,6.340312e+03
9.777343e+02,6.386044e+03
9.806270e+02,6.339115e+03
9.835197e+02,6.325067e+03
9.864124e+02,6.291526e+03
9.893051e+02,6.277755e+03
9.921978e+02,6.277334e+03
9.950905e+02,6.278364e+03
9.979832e+02,6.267548e+03
1.000876e+03,6.250133e+03
1.003769e+03,6.208174e+03
1.006661e+03,6.222862e+03
1.009554e+03,6.200678e+03
1.012447e+03,6.179620e+03
1.015339e+03,6.162360e+03
1.018232e+03,6.152462e+03
1.021125e+03,6.142376e+03
1.024017e+03,6.131766e+03
1.026910e+03,6.109592e+03
1.029803e+03,6.134597e+03
1.032696e+03,6.106709e+03
1.035588e+03,6.117361e+03
1.038481e+03,6.112841e+03
1.041374e+03,6.089970e+03
1.044266e+03,6.085321e+03
1.047159e+03,6.064279e+03
1.050052e+03,6.100896e+03
1.052944e+03,6.117837e+03
1.055837e+03,6.041523e+03
1.058730e+03,6.025968e+03
1.061623e+03,5.994967e+03
1.064515e+03,5.980998e+03
1.067408e+03,5.998417e+03
1.070301e+03,6.007810e+03
1.073193e+03,6.019908e+03
1.076086e+03,6.001684e+03
1.078979e+03,5.986963e+03
1.081871e+03,6.008839e+03
1.084764e+03,5.985232e+03
1.087657e+03,5.969847e+03
1.090550e+03,5.938924e+03
1.093442e+03,5.937374e+03
1.096335e+03,5.893140e+03
1.099228e+03,5.872370e+03
1.102120e+03,5.868425e+03
1.105013e+03,5.801063e+03
1.107906e+03,5.808931e+03
1.110798e+03,5.807310e+03
1.113691e+03,5.778018e+03
1.116584e+03,5.792655e+03
1.119477e+03,5.778205e+03
1.122369e+03,5.756860e+03
1.125262e+03,5.734103e+03
1.128155e+03,5.722015e+03
1.131047e+03,5.728060e+03
1.133940e+03,5.694257e+03
1.136833e+03,5.684126e+03
1.139725e+03,5.677442e+03
1.142618e+03,5.670883e+03
1.145511e+03,5.657560e+03
1.148404e+03,5.644190e+03
1.151296e+03,5.608572e+03
1.154189e+03,5.598655e+03
1.157082e+03,5.585932e+03
1.159974e+03,5.558542e+03
1.162867e+03,5.569593e+03
1.165760e+03,5.552463e+03
1.168652e+03,5.541006e+03
1.171545e+03,5.516843e+03
1.174438e+03,5.498673e+03
1.177331e+03,5.496179e+03
1.180223e+03,5.502034e+03
1.183116e+03,5.510444e+03
1.186009e+03,5.475038e+03
1.188901e+03,5.457011e+03
1.191794e+03,5.459901e+03
1.194687e+03,5.459678e+03
1.197579e+03,5.459893e+03
1.200472e+03,5.423567e+03
1.203365e+03,5.379423e+03
1.206258e+03,5.368289e+03
1.209150e+03,5.360946e+03
1.212043e+03,5.340589e+03
1.214936e+03,5.324198e+03
1.217828e+03,5.329062e+03
1.220721e+03,5.324392e+03
1.223614e+03,5.334580e+03
1.226506e+03,5.335000e+03
1.229399e+03,5.294792e+03
1.232292e+03,5.295683e+03
1.235185e+03,5.259494e+03
1.238077e+03,5.277108e+03
1.240970e+03,5.255962e+03
1.243863e+03,5.253195e+03
1.246755e+03,5.222315e+03
1.249648e+03,5.197625e+03
1.252541e+03,5.180203e+03
1.255433e+03,5.173805e+03
1.258326e+03,5.172662e+03
1.261219e+03,5.146731e+03
1.264112e+03,5.121201e+03
1.267004e+03,5.108452e+03
1.269897e+03,5.129681e+03
1.272790e+03,5.133155e+03
1.275682e+03,5.096954e+03
1.278575e+03,5.088579e+03
1.281468e+03,5.052778e+03
1.284360e+03,5.044446e+03
1.287253e+03,5.050334e+03
1.290146e+03,5.077541e+03
1.293039e+03,5.046933e+03
1.295931e+03,5.010124e+03
1.298824e+03,4.997287e+03
1.301717e+03,5.013521e+03
1.304609e+03,5.008806e+03
1.307502e+03,5.016222e+03
1.310395e+03,4.996339e+03
1.313287e+03,4.971990e+03
1.316180e+03,4.964356e+03
1.319073e+03,4.962036e+03
1.321966e+03,4.950831e+03
1.324858e+03,4.933320e+03
1.327751e+03,4.938535e+03
1.330644e+03,4.931195e+03
1.333536e+03,4.940784e+03
1.336429e+03,4.914131e+03
1.339322e+03,4.897871e+03
1.342214e+03,4.876100e+03
1.345107e+03,4.875368e+03
1.348000e+03,4.856901e+03
1.350893e+03,4.850837e+03
1.353785e+03,4.851005e+03
1.356678e+03,4.837375e+03
1.359571e+03,4.817424e+03
1.362463e+03,4.814712e+03
1.365356e+03,4.812175e+03
1.368249e+03,4.818719e+03
1.371141e+03,4.781389e+03
1.374034e+03,4.769852e+03
1.376927e+03,4.761866e+03
1.379820e+03,4.760214e+03
1.382712e+03,4.752934e+03
1.385605e+03,4.731313e+03
1.388498e+03,4.706104e+03
1.391390e+03,4.682097e+03
1.394283e+03,4.682485e+03
1.397176e+03,4.692837e+03
1.400068e+03,4.693904e+03
1.402961e+03,4.670097e+03
1.405854e+03,4.650872e+03
1.408747e+03,4.641713e+03
1.411639e+03,4.654465e+03
1.414532e+03,4.625928e+03
1.417425e+03,4.612004e+03
1.420317e+03,4.597443e+03
1.423210e+03,4.587375e+03
1.426103e+03,4.590398e+03
1.428995e+03,4.567671e+03
1.431888e+03,4.568224e+03
1.434781e+03,4.561001e+03
1.437674e+03,4.531164e+03
1.440566e+03,4.518946e+03
1.443459e+03,4.529922e+03
1.446352e+03,4.549289e+03
1.449244e+03,4.552315e+03
1.452137e+03,4.563123e+03
1.455030e+03,4.531609e+03
1.457922e+03,4.503037e+03
1.460815e+03,4.499373e+03
1.463708e+03,4.471518e+03
1.466601e+03,4.475373e+03
1.469493e+03,4.446991e+03
1.472386e+03,4.436038e+03
1.475279e+03,4.442818e+03
1.478171e+03,4.462830e+03
1.481064e+03,4.429142e+03
1.483957e+03,4.403624e+03
1.486849e+03,4.413661e+03
1.489742e+03,4.407471e+03
1.492635e+03,4.382230e+03
1.495528e+03,4.365825e+03
1.498420e+03,4.363218e+03
1.501313e+03,4.361583e+03
1.504206e+03,4.359203e+03
1.507098e+03,4.382042e+03
1.509991e+03,4.358396e+03
1.512884e+03,4.369646e+03
1.515776e+03,4.349109e+03
1.518669e+03,4.320906e+03
1.521562e+03,4.347310e+03
1.524455e+03,4.316287e+03
1.527347e+03,4.272611e+03
1.530240e+03,4.283317e+03
1.533133e+03,4.266882e+03
1.536025e+03,4.255557e+03
1.538918e+03,4.253280e+03
1.541811e+03,4.245330e+03
1.544703e+03,4.220159e+03
1.547596e+03,4.212117e+03
1.550489e+03,4.226111e+03
1.553382e+03,4.229597e+03
1.556274e+03,4.207160e+03
1.559167e+03,4.213121e+03
1.562060e+03,4.228970e+03
1.564952e+03,4.210452e+03
1.567845e+03,4.282377e+03
1.570738e+03,4.299992e+03
1.573630e+03,4.285644e+03
1.576523e+03,4.246250e+03
1.579416e+03,4.208602e+03
1.582309e+03,4.217368e+03
1.585201e+03,4.190475e+03
1.588094e+03,4.156080e+03
1.590987e+03,4.145716e+03
1.593879e+03,4.131287e+03
1.596772e+03,4.103830e+03
1.599665e+03,4.115997e+03
1.602557e+03,4.108311e+03
1.605450e+03,4.076904e+03
1.608343e+03,4.066574e+03
1.611236e+03,4.065296e+03
1.614128e+03,4.054743e+03
1.617021e+03,4.038671e+03
1.619914e+03,4.030886e+03
1.622806e+03,4.048080e+03
1.625699e+03,4.024555e+03
1.628592e+03,4.073097e+03
1.631484e+03,4.037573e+03
1.634377e+03,4.011250e+03
1.637270e+03,3.975998e+03
1.640163e+03,3.968656e+03
1.643055e+03,3.961081e+03
1.645948e+03,3.950112e+03
1.648841e+03,3.916456e+03
1.651733e+03,3.895460e+03
1.654626e+03,3.946270e+03
1.657519e+03,3.883335e+03
1.660411e+03,3.915340e+03
1.663304e+03,3.883218e+03
1.666197e+03,3.893294e+03
1.669090e+03,3.877460e+03
1.671982e+03,3.858323e+03
1.674875e+03,3.889681e+03
1.677768e+03,3.878964e+03
1.680660e+03,3.867933e+03
1.683553e+03,3.845263e+03
1.686446e+03,3.849761e+03
1.689339e+03,3.835477e+03
1.692231e+03,3.801606e+03
1.695124e+03,3.796352e+03
1.698017e+03,3.803400e+03
1.700909e+03,3.780463e+03
1.703802e+03,3.763420e+03
1.706695e+03,3.755963e+03
1.709587e+03,3.748677e+03
1.712480e+03,3.752506e+03
1.715373e+03,3.727722e+03
1.718266e+03,3.707523e+03
1.721158e+03,3.724749e+03
1.724051e+03,3.710673e+03
1.726944e+03,3.698352e+03
1.729836e+03,3.715817e+03
1.732729e+03,3.668938e+03
1.735622e+03,3.691372e+03
1.738514e+03,3.673776e+03
1.741407e+03,3.676322e+03
1.744300e+03,3.657855e+03
1.747193e+03,3.638691e+03
1.750085e+03,3.646653e+03
1.752978e+03,3.629583e+03
1.755871e+03,3.614134e+03
1.758763e+03,3.621226e+03
1.761656e+03,3.604249e+03
1.764549e+03,3.604598e+03
1.767441e+03,3.590776e+03
1.770334e+03,3.574552e+03
1.773227e+03,3.564873e+03
1.776120e+03,3.589995e+03
1.779012e+03,3.559320e+03
1.781905e+03,3.539775e+03
1.784798e+03,3.532386e+03
1.787690e+03,3.518174e+03
1.790583e+03,3.519724e+03
1.793476e+03,3.523579e+03
1.796368e+03,3.504709e+03
1.799261e+03,3.550813e+03
1.802154e+03,3.506845e+03
1.805047e+03,3.473949e+03
1.807939e+03,3.475671e+03
1.810832e+03,3.473950e+03
1.813725e+03,3.475081e+03
1.816617e+03,3.447417e+03
1.819510e+03,3.459417e+03
1.822403e+03,3.438338e+03
1.825295e+03,3.435087e+03
1.828188e+03,3.425816e+03
1.831081e+03,3.438858e+03
1.833974e+03,3.405289e+03
1.836866e+03,3.401988e+03
1.839759e+03,3.386053e+03
1.842652e+03,3.399269e+03
1.845544e+03,3.393906e+03
1.848437e+03,3.396228e+03
1.851330e+03,3.346745e+03
1.854222e+03,3.350762e+03
1.857115e+03,3.370144e+03
1.860008e+03,3.338501e+03
1.862901e+03,3.324143e+03
1.865793e+03,3.341087e+03
1.868686e+03,3.307475e+03
1.871579e+03,3.312401e+03
1.874471e+03,3.317871e+03
1.877364e+03,3.303137e+03
1.880257e+03,3.287929e+03
1.883149e+03,3.281602e+03
1.886042e+03,3.237941e+03
1.888935e+03,3.277788e+03
1.891828e+03,3.253719e+03
1.894720e+03,3.241337e+03
1.897613e+03,3.240574e+03
1.900506e+03,3.222042e+03
1.903398e+03,3.235395e+03
1.906291e+03,3.266632e+03
1.909184e+03,3.231481e+03
1.912076e+03,3.201491e+03
1.914969e+03,3.201266e+03
1.917862e+03,3.164234e+03
1.920755e+03,3.175399e+03
1.923647e+03,3.184199e+03
1.926540e+03,3.157012e+03
1.929433e+03,3.156787e+03
1.932325e+03,3.142881e+03
1.935218e+03,3.117380e+03
1.938111e+03,3.127499e+03
1.941003e+03,3.141481e+03
1.943896e+03,3.145517e+03
1.946789e+03,3.100296e+03
1.949682e+03,3.111601e+03
1.952574e+03,3.107428e+03
1.955467e+03,3.086194e+03
1.958360e+03,3.093484e+03
1.961252e+03,3.059617e+03
1.964145e+03,3.064017e+03
1.967038e+03,3.047763e+03
1.969930e+03,3.053347e+03
1.972823e+03,3.028631e+03
1.975716e+03,3.017195e+03
1.978609e+03,3.007074e+03
1.981501e+03,2.996678e+03
1.984394e+03,3.000270e+03
1.987287e+03,2.983782e+03
1.990179e+03,2.972572e+03
1.993072e+03,2.985709e+03
1.995965e+03,2.961485e+03
1.998857e+03,2.965838e+03
2.001750e+03,2.947749e+03
2.004643e+03,2.951121e+03
2.007536e+03,2.949753e+03
2.010428e+03,2.940157e+03
2.013321e+03,2.930498e+03
2.016214e+03,2.919698e+03
2.019106e+03,2.896986e+03
2.021999e+03,2.901034e+03
2.024892e+03,2.875868e+03
2.027784e+03,2.907832e+03
2.030677e+03,2.854987e+03
2.033570e+03,2.864741e+03
2.036463e+03,2.842619e+03
2.039355e+03,2.844845e+03
2.042248e+03,2.815198e+03
2.045141e+03,2.822044e+03
2.048033e+03,2.812229e+03
2.050926e+03,2.817209e+03
2.053819e+03,2.800687e+03
2.056711e+03,2.786615e+03
2.059604e+03,2.784241e+03
2.062497e+03,2.786125e+03
2.065390e+03,2.775117e+03
2.068282e+03,2.777834e+03
2.071175e+03,2.753098e+03
2.074068e+03,2.740095e+03
2.076960e+03,2.752258e+03
2.079853e+03,2.751522e+03
2.082746e+03,2.730944e+03
2.085638e+03,2.706638e+03
2.088531e+03,2.703544e+03
2.091424e+03,2.693254e+03
2.094316e+03,2.694614e+03
2.097209e+03,2.691803e+03
2.100102e+03,2.700803e+03
2.102995e+03,2.653011e+03
2.105887e+03,2.673180e+03
2.108780e+03,2.648393e+03
2.111673e+03,2.639596e+03
2.114565e+03,2.624329e+03
2.117458e+03,2.601028e+03
2.120351e+03,2.645703e+03
2.123244e+03,2.643556e+03
2.126136e+03,2.614466e+03
2.129029e+03,2.586193e+03
2.131922e+03,2.586009e+03
2.134814e+03,2.568577e+03
2.137707e+03,2.574929e+03
2.140600e+03,2.563649e+03
2.143492e+03,2.567862e+03
2.146385e+03,2.538175e+03
2.149278e+03,2.581042e+03
2.152170e+03,2.546592e+03
2.155063e+03,2.524718e+03
2.157956e+03,2.525995e+03
2.160849e+03,2.522172e+03
2.163741e+03,2.516463e+03
2.166634e+03,2.489433e+03
2.169527e+03,2.507174e+03
2.172419e+03,2.491502e+03
2.175312e+03,2.511216e+03
2.178205e+03,2.480980e+03
2.181098e+03,2.451140e+03
2.183990e+03,2.467313e+03
2.186883e+03,2.466020e+03
2.189776e+03,2.452057e+03
2.192668e+03,2.432070e+03
2.195561e+03,2.423845e+03
2.198454e+03,2.428616e+03
2.201346e+03,2.391202e+03
2.204239e+03,2.422214e+03
2.207132e+03,2.395053e+03
2.210024e+03,2.376882e+03
2.212917e+03,2.367093e+03
2.215810e+03,2.399577e+03
2.218703e+03,2.360370e+03
2.221595e+03,2.345099e+03
2.224488e+03,2.372120e+03
2.227381e+03,2.351365e+03
2.230273e+03,2.354194e+03
2.233166e+03,2.326317e+03
2.236059e+03,2.322531e+03
2.238952e+03,2.312021e+03
2.241844e+03,2.302452e+03
2.244737e+03,2.291539e+03
2.247630e+03,2.317782e+03
2.250522e+03,2.271343e+03
2.253415e+03,2.277875e+03
2.256308e+03,2.282558e+03
2.259200e+03,2.252311e+03
2.262093e+03,2.244576e+03
2.264986e+03,2.237479e+03
2.267879e+03,2.230129e+03
2.270771e+03,2.215747e+03
2.273664e+03,2.204289e+03
2.276557e+03,2.227772e+03
2.279449e+03,2.223188e+03
2.282342e+03,2.214192e+03
2.285235e+03,2.190182e+03
2.288127e+03,2.190828e+03
2.291020e+03,2.195049e+03
2.293913e+03,2.160729e+03
2.296805e+03,2.197806e+03
2.299698e+03,2.180881e+03
2.302591e+03,2.161964e+03
2.305484e+03,2.142150e+03
2.308376e+03,2.134983e+03
2.311269e+03,2.123900e+03
2.314162e+03,2.135398e+03
2.317054e+03,2.120124e+03
2.319947e+03,2.100611e+03
2.322840e+03,2.128881e+03
2.325733e+03,2.121681e+03
2.328625e+03,2.096444e+03
2.331518e+03,2.089894e+03
2.334411e+03,2.080538e+03
2.337303e+03,2.076204e+03
2.340196e+03,2.069231e+03
2.343089e+03,2.073073e+03
2.345981e+03,2.062583e+03
2.348874e+03,2.036374e+03
2.351767e+03,2.029749e+03
2.354659e+03,2.039510e+03
2.357552e+03,2.040164e+03
2.360445e+03,2.045107e+03
2.363338e+03,2.028116e+03
2.366230e+03,2.027625e+03
2.369123e+03,2.005248e+03
2.372016e+03,2.016985e+03
2.374908e+03,1.986497e+03
2.377801e+03,1.998143e+03
2.380694e+03,1.962358e+03
2.383587e+03,1.962471e+03
2.386479e+03,1.968808e+03
2.389372e+03,1.980844e+03
2.392265e+03,1.960599e+03
2.395157e+03,1.963684e+03
2.398050e+03,1.954059e+03
2.400943e+03,1.945408e+03
2.403835e+03,1.938533e+03
2.406728e+03,1.932363e+03
2.409621e+03,1.890982e+03
2.412513e+03,1.931206e+03
2.415406e+03,1.929177e+03
2.418299e+03,1.916704e+03
2.421192e+03,1.914089e+03
2.424084e+03,1.908708e+03
2.426977e+03,1.879430e+03
2.429870e+03,1.875826e+03
2.432762e+03,1.882933e+03
2.435655e+03,1.874451e+03
2.438548e+03,1.868038e+03
2.441441e+03,1.854156e+03
2.444333e+03,1.863523e+03
2.447226e+03,1.851402e+03
2.450119e+03,1.841180e+03
2.453011e+03,1.843378e+03
2.455904e+03,1.839287e+03
2.458797e+03,1.826867e+03
2.461689e+03,1.814623e+03
2.464582e+03,1.830581e+03
2.467475e+03,1.805829e+03
2.470367e+03,1.787982e+03
2.473260e+03,1.814217e+03
2.476153e+03,1.790962e+03
2.479046e+03,1.785328e+03
2.481938e+03,1.778732e+03
2.484831e+03,1.776376e+03
2.487724e+03,1.774224e+03
2.490616e+03,1.775931e+03
2.493509e+03,1.759233e+03
2.496402e+03,1.751905e+03
2.499295e+03,1.751598e+03
2.502187e+03,1.733436e+03
2.505080e+03,1.736442e+03
2.507973e+03,1.742970e+03
2.510865e+03,1.709749e+03
2.513758e+03,1.730960e+03
2.516651e+03,1.741586e+03
2.519543e+03,1.697930e+03
2.522436e+03,1.709855e+03
2.525329e+03,1.711620e+03
2.528221e+03,1.715415e+03
2.531114e+03,1.701374e+03
2.534007e+03,1.692207e+03
2.536900e+03,1.669408e+03
2.539792e+03,1.670374e+03
2.542685e+03,1.668973e+03
2.545578e+03,1.672544e+03
2.548470e+03,1.680014e+03
2.551363e+03,1.663702e+03
2.554256e+03,1.667948e+03
2.557149e+03,1.662296e+03
2.560041e+03,1.660379e+03
2.562934e+03,1.657817e+03
2.565827e+03,1.612964e+03
2.568719e+03,1.636809e+03
2.571612e+03,1.641395e+03
2.574505e+03,1.641139e+03
2.577397e+03,1.614836e+03
2.580290e+03,1.623516e+03
2.583183e+03,1.634475e+03
2.586075e+03,1.608985e+03
2.588968e+03,1.614839e+03
2.591861e+03,1.601479e+03
2.594754e+03,1.609553e+03
2.597646e+03,1.575577e+03
2.600539e+03,1.592586e+03
2.603432e+03,1.585999e+03
2.606324e+03,1.584285e+03
2.609217e+03,1.580493e+03
2.612110e+03,1.560501e+03
2.615003e+03,1.553200e+03
2.617895e+03,1.554655e+03
2.620788e+03,1.559369e+03
2.623681e+03,1.570836e+03
2.626573e+03,1.571938e+03
2.629466e+03,1.536906e+03
2.632359e+03,1.538919e+03
2.635251e+03,1.525266e+03
2.638144e+03,1.552823e+03
2.641037e+03,1.532977e+03
2.643929e+03,1.515713e+03
2.646822e+03,1.519636e+03
2.649715e+03,1.510417e+03
2.652608e+03,1.520476e+03
2.655500e+03,1.496540e+03
2.658393e+03,1.511666e+03
2.661286e+03,1.511132e+03
2.664178e+03,1.498622e+03
2.667071e+03,1.494811e+03
2.669964e+03,1.491993e+03
2.672857e+03,1.502797e+03
2.675749e+03,1.498202e+03
2.678642e+03,1.486423e+03
2.681535e+03,1.477995e+03
2.684427e+03,1.463207e+03
2.687320e+03,1.478421e+03
2.690213e+03,1.460148e+03
2.693105e+03,1.461672e+03
2.695998e+03,1.452153e+03
2.698891e+03,1.470031e+03
2.701783e+03,1.446294e+03
2.704676e+03,1.447187e+03
2.707569e+03,1.445195e+03
2.710462e+03,1.420160e+03
2.713354e+03,1.439310e+03
2.716247e+03,1.442025e+03
2.719140e+03,1.440172e+03
2.722032e+03,1.418294e+03
2.724925e+03,1.432248e+03
2.727818e+03,1.398674e+03
2.730711e+03,1.416730e+03
2.733603e+03,1.430759e+03
2.736496e+03,1.420429e+03
2.739389e+03,1.405698e+03
2.742281e+03,1.425227e+03
2.745174e+03,1.407555e+03
2.748067e+03,1.394549e+03
2.750959e+03,1.372146e+03
2.753852e+03,1.385550e+03
2.756745e+03,1.374231e+03
2.759637e+03,1.375596e+03
2.762530e+03,1.387103e+03
2.765423e+03,1.370913e+03
2.768316e+03,1.362374e+03
2.771208e+03,1.363136e+03
2.774101e+03,1.355586e+03
2.776994e+03,1.368285e+03
2.779886e+03,1.350436e+03
2.782779e+03,1.377246e+03
2.785672e+03,1.332637e+03
2.788565e+03,1.327118e+03
2.791457e+03,1.350305e+03
2.794350e+03,1.363226e+03
2.797243e+03,1.349383e+03
2.800135e+03,1.341263e+03
2.803028e+03,1.316780e+03
2.805921e+03,1.316130e+03
2.808813e+03,1.345294e+03
2.811706e+03,1.329773e+03
2.814599e+03,1.321654e+03
2.817491e+03,1.307759e+03
2.820384e+03,1.314776e+03
2.823277e+03,1.288348e+03
2.826170e+03,1.298923e+03
2.829062e+03,1.311729e+03
2.831955e+03,1.305113e+03
2.834848e+03,1.298129e+03
2.837740e+03,1.312854e+03
2.840633e+03,1.304757e+03
2.843526e+03,1.306907e+03
2.846419e+03,1.324427e+03
2.849311e+03,1.314169e+03
2.852204e+03,1.291243e+03
2.855097e+03,1.283617e+03
2.857990e+03,1.297529e+03
2.860882e+03,1.311477e+03
2.863775e+03,1.301819e+03
2.866667e+03,1.286519e+03
2.869560e+03,1.295777e+03
2.872453e+03,1.269096e+03
2.875345e+03,1.311776e+03
2.878238e+03,1.283962e+03
2.881131e+03,1.275542e+03
2.884024e+03,1.322500e+03
2.886916e+03,1.296015e+03
2.889809e+03,1.279712e+03
2.892702e+03,1.304216e+03
2.895594e+03,1.300911e+03
2.898487e+03,1.298072e+03
2.901380e+03,1.291185e+03
2.904273e+03,1.292610e+03
2.907165e+03,1.270198e+03
2.910058e+03,1.285006e+03
2.912951e+03,1.247123e+03
2.915844e+03,1.267576e+03
2.918736e+03,1.281787e+03
2.921629e+03,1.267425e+03
2.924521e+03,1.250780e+03
2.927414e+03,1.227617e+03
2.930307e+03,1.242014e+03
2.933199e+03,1.244598e+03
2.936092e+03,1.241964e+03
2.938985e+03,1.220016e+03
2.941878e+03,1.231202e+03
2.944770e+03,1.219345e+03
2.947663e+03,1.238163e+03
2.950556e+03,1.244422e+03
2.953448e+03,1.233046e+03
2.956341e+03,1.254116e+03
2.959234e+03,1.239732e+03
2.962127e+03,1.204691e+03
2.965019e+03,1.217676e+03
2.967912e+03,1.224172e+03
2.970805e+03,1.167389e+03
2.973698e+03,1.197607e+03
2.976590e+03,1.169418e+03
2.979483e+03,1.195984e+03
2.982375e+03,1.153078e+03
2.985268e+03,1.188399e+03
2.988161e+03,1.180326e+03
2.991053e+03,1.146249e+03
2.993946e+03,1.189731e+03
2.996839e+03,1.160130e+03
2.999732e+03,1.148130e+03
3.002624e+03,1.147850e+03
3.005517e+03,1.181942e+03
3.008410e+03,1.142796e+03
3.011302e+03,1.157924e+03
3.014195e+03,1.168170e+03
3.017088e+03,1.140657e+03
3.019981e+03,1.173960e+03
3.022873e+03,1.139009e+03
3.025766e+03,1.188724e+03
3.028659e+03,1.124361e+03
3.031552e+03,1.127071e+03
3.034444e+03,1.144876e+03
3.037337e+03,1.136488e+03
3.040229e+03,1.144240e+03
3.043122e+03,1.150226e+03
3.046015e+03,1.166561e+03
3.048907e+03,1.108280e+03
3.051800e+03,1.131035e+03
3.054693e+03,1.127472e+03
3.057586e+03,1.130081e+03
3.060478e+03,1.088257e+03
3.063371e+03,1.129072e+03
3.066264e+03,1.129348e+03
3.069156e+03,1.119237e+03
3.072049e+03,1.136093e+03
3.074942e+03,1.158520e+03
3.077835e+03,1.109078e+03
3.080727e+03,1.133594e+03
3.083620e+03,1.103249e+03
3.086513e+03,1.132497e+03
3.089406e+03,1.150472e+03
3.092298e+03,1.121263e+03
3.095191e+03,1.118918e+03
3.098083e+03,1.159936e+03
3.100976e+03,1.156484e+03
3.103869e+03,1.098411e+03
3.106761e+03,1.128095e+03
3.109654e+03,1.168852e+03
3.112547e+03,1.148019e+03
3.115440e+03,1.131801e+03
3.118332e+03,1.132965e+03
3.121225e+03,1.111857e+03
3.124118e+03,1.137325e+03
3.127010e+03,1.120877e+03
3.129903e+03,1.109730e+03
3.132796e+03,1.093040e+03
3.135689e+03,1.141990e+03
3.138581e+03,1.147956e+03
3.141474e+03,1.120932e+03
3.144367e+03,1.108400e+03
3.147260e+03,1.111205e+03
3.150152e+03,1.175446e+03
3.153045e+03,1.099308e+03
3.155938e+03,1.159483e+03
3.158830e+03,1.117719e+03
3.161723e+03,1.151816e+03
3.164615e+03,1.106228e+03
3.167508e+03,1.141565e+03
3.170401e+03,1.110019e+03
3.173294e+03,1.149732e+03
3.176186e+03,1.127649e+03
3.179079e+03,1.097474e+03
3.181972e+03,1.128558e+03
3.184865e+03,1.089679e+03
3.187757e+03,1.103423e+03
3.190650e+03,1.119875e+03
3.193543e+03,1.102423e+03
3.196435e+03,1.135054e+03
3.199328e+03,1.193310e+03
3.200292e+03,1.185634e+03