File: RAMAN_data/20012023_r1/blue fibre8.CSV
1.995979e+02,2.283414e+03
2.024906e+02,2.287440e+03
2.053833e+02,2.299929e+03
2.082760e+02,2.296687e+03
2.111687e+02,2.287744e+03
2.140614e+02,2.296731e+03
2.169541e+02,2.295516e+03
2.198468e+02,2.312283e+03
2.227395e+02,2.311962e+03
2.256322e+02,2.303740e+03
2.285249e+02,2.311344e+03
2.314176e+02,2.315995e+03
2.343103e+02,2.317916e+03
2.372030e+02,2.326787e+03
2.400957e+02,2.322600e+03
2.429884e+02,2.315080e+03
2.458811e+02,2.321907e+03
2.487738e+02,2.331047e+03
2.516665e+02,2.339656e+03
2.545592e+02,2.337056e+03
2.574519e+02,2.333390e+03
2.603446e+02,2.330460e+03
2.632373e+02,2.334544e+03
2.661300e+02,2.350535e+03
2.690227e+02,2.360610e+03
2.719154e+02,2.340317e+03
2.748081e+02,2.339019e+03
2.777008e+02,2.355624e+03
2.805935e+02,2.370773e+03
2.834862e+02,2.357038e+03
2.863789e+02,2.351635e+03
2.892716e+02,2.366025e+03
2.921643e+02,2.357694e+03
2.950570e+02,2.351784e+03
2.979497e+02,2.357198e+03
3.008424e+02,2.351702e+03
3.037351e+02,2.350076e+03
3.066278e+02,2.346075e+03
3.095205e+02,2.350019e+03
3.124132e+02,2.361038e+03
3.153059e+02,2.360249e+03
3.181986e+02,2.360211e+03
3.210913e+02,2.360699e+03
3.239840e+02,2.348439e+03
3.268767e+02,2.363735e+03
3.297694e+02,2.369818e+03
3.326621e+02,2.364680e+03
3.355548e+02,2.352384e+03
3.384475e+02,2.350322e+03
3.413402e+02,2.364871e+03
3.442329e+02,2.374803e+03
3.471256e+02,2.379776e+03
3.500183e+02,2.360680e+03
3.529110e+02,2.361517e+03
3.558037e+02,2.368910e+03
3.586964e+02,2.370742e+03
3.615891e+02,2.368644e+03
3.644818e+02,2.361349e+03
3.673745e+02,2.357905e+03
3.702672e+02,2.383039e+03
3.731599e+02,2.397940e+03
3.760526e+02,2.397644e+03
3.789453e+02,2.399631e+03
3.818380e+02,2.390632e+03
3.847307e+02,2.374000e+03
3.876234e+02,2.367037e+03
3.905161e+02,2.368754e+03
3.934088e+02,2.371629e+03
3.963015e+02,2.352302e+03
3.991942e+02,2.353962e+03
4.020869e+02,2.376449e+03
4.049796e+02,2.363686e+03
4.078723e+02,2.364176e+03
4.107650e+02,2.347716e+03
4.136577e+02,2.353539e+03
4.165504e+02,2.350573e+03
4.194431e+02,2.353113e+03
4.223358e+02,2.364926e+03
4.252285e+02,2.365534e+03
4.281212e+02,2.359059e+03
4.310139e+02,2.353826e+03
4.339066e+02,2.359965e+03
4.367993e+02,2.368941e+03
4.396920e+02,2.349430e+03
4.425847e+02,2.355391e+03
4.454774e+02,2.344836e+03
4.483701e+02,2.350105e+03
4.512628e+02,2.364275e+03
4.541555e+02,2.359516e+03
4.570482e+02,2.355282e+03
4.599409e+02,2.341513e+03
4.628336e+02,2.336741e+03
4.657263e+02,2.330333e+03
4.686190e+02,2.341977e+03
4.715117e+02,2.333535e+03
4.744044e+02,2.336292e+03
4.772971e+02,2.341838e+03
4.801898e+02,2.338963e+03
4.830825e+02,2.361816e+03
4.859752e+02,2.358645e+03
4.888679e+02,2.357904e+03
4.917606e+02,2.348379e+03
4.946533e+02,2.344034e+03
4.975460e+02,2.339139e+03
5.004387e+02,2.335398e+03
5.033314e+02,2.326609e+03
5.062241e+02,2.315896e+03
5.091168e+02,2.313861e+03
5.120095e+02,2.324321e+03
5.149022e+02,2.333329e+03
5.177949e+02,2.336015e+03
5.206876e+02,2.315635e+03
5.235803e+02,2.304305e+03
5.264730e+02,2.306509e+03
5.293657e+02,2.305957e+03
5.322584e+02,2.305192e+03
5.351511e+02,2.300595e+03
5.380438e+02,2.301530e+03
5.409365e+02,2.289687e+03
5.438292e+02,2.302542e+03
5.467219e+02,2.294841e+03
5.496146e+02,2.296357e+03
5.525073e+02,2.288883e+03
5.554000e+02,2.270912e+03
5.582927e+02,2.285902e+03
5.611854e+02,2.284667e+03
5.640781e+02,2.276589e+03
5.669708e+02,2.268023e+03
5.698635e+02,2.260551e+03
5.727562e+02,2.280660e+03
5.756489e+02,2.282755e+03
5.785416e+02,2.270277e+03
5.814343e+02,2.272003e+03
5.843270e+02,2.252311e+03
5.872197e+02,2.259652e+03
5.901124e+02,2.267079e+03
5.930051e+02,2.277482e+03
5.958978e+02,2.259468e+03
5.987905e+02,2.243679e+03
6.016832e+02,2.261198e+03
6.045759e+02,2.260877e+03
6.074686e+02,2.263962e+03
6.103613e+02,2.256207e+03
6.132540e+02,2.256232e+03
6.161467e+02,2.256633e+03
6.190394e+02,2.253232e+03
6.219321e+02,2.238078e+03
6.248248e+02,2.238824e+03
6.277175e+02,2.237301e+03
6.306102e+02,2.244600e+03
6.335029e+02,2.245346e+03
6.363956e+02,2.237903e+03
6.392883e+02,2.234030e+03
6.421810e+02,2.215097e+03
6.450737e+02,2.209346e+03
6.479664e+02,2.210982e+03
6.508591e+02,2.228979e+03
6.537518e+02,2.216491e+03
6.566445e+02,2.213760e+03
6.595372e+02,2.205611e+03
6.624299e+02,2.207145e+03
6.653226e+02,2.212888e+03
6.682153e+02,2.196182e+03
6.711080e+02,2.191207e+03
6.740007e+02,2.212812e+03
6.768934e+02,2.193721e+03
6.797861e+02,2.178227e+03
6.826788e+02,2.202399e+03
6.855715e+02,2.194522e+03
6.884642e+02,2.187243e+03
6.913569e+02,2.181008e+03
6.942496e+02,2.181510e+03
6.971423e+02,2.183597e+03
7.000350e+02,2.192237e+03
7.029277e+02,2.175886e+03
7.058204e+02,2.170299e+03
7.087131e+02,2.155315e+03
7.116058e+02,2.158505e+03
7.144985e+02,2.158019e+03
7.173912e+02,2.153651e+03
7.202839e+02,2.156354e+03
7.231766e+02,2.153151e+03
7.260693e+02,2.148158e+03
7.289620e+02,2.144184e+03
7.318547e+02,2.141221e+03
7.347474e+02,2.133818e+03
7.376401e+02,2.160809e+03
7.405328e+02,2.139001e+03
7.434255e+02,2.128755e+03
7.463182e+02,2.133726e+03
7.492109e+02,2.129798e+03
7.521036e+02,2.105596e+03
7.549963e+02,2.127264e+03
7.578890e+02,2.113816e+03
7.607817e+02,2.126066e+03
7.636744e+02,2.113636e+03
7.665671e+02,2.121091e+03
7.694598e+02,2.111949e+03
7.723525e+02,2.102069e+03
7.752452e+02,2.091912e+03
7.781379e+02,2.099295e+03
7.810306e+02,2.115306e+03
7.839233e+02,2.088960e+03
7.868160e+02,2.081484e+03
7.897087e+02,2.084213e+03
7.926014e+02,2.093782e+03
7.954941e+02,2.077005e+03
7.983868e+02,2.075531e+03
8.012795e+02,2.067983e+03
8.041722e+02,2.059580e+03
8.070649e+02,2.074444e+03
8.099576e+02,2.065663e+03
8.128503e+02,2.067370e+03
8.157430e+02,2.060940e+03
8.186357e+02,2.058249e+03
8.215284e+02,2.045634e+03
8.244211e+02,2.065541e+03
8.273138e+02,2.047820e+03
8.302065e+02,2.043756e+03
8.330992e+02,2.054522e+03
8.359919e+02,2.046470e+03
8.388846e+02,2.042467e+03
8.417773e+02,2.047473e+03
8.446700e+02,2.037530e+03
8.475627e+02,2.025876e+03
8.504554e+02,2.033986e+03
8.533481e+02,2.029906e+03
8.562408e+02,2.031754e+03
8.591335e+02,2.021286e+03
8.620262e+02,2.002202e+03
8.649189e+02,2.004248e+03
8.678116e+02,2.009440e+03
8.707043e+02,2.022273e+03
8.735970e+02,2.023197e+03
8.764897e+02,2.006118e+03
8.793824e+02,1.995175e+03
8.822751e+02,2.010432e+03
8.851678e+02,1.998563e+03
8.880605e+02,2.001569e+03
8.909532e+02,1.991585e+03
8.938459e+02,1.991340e+03
8.967386e+02,1.973677e+03
8.996313e+02,1.987510e+03
9.025240e+02,1.983041e+03
9.054167e+02,1.975909e+03
9.083094e+02,1.970886e+03
9.112021e+02,1.971362e+03
9.140948e+02,1.976142e+03
9.169875e+02,1.954804e+03
9.198802e+02,1.952102e+03
9.227729e+02,1.944489e+03
9.256656e+02,1.952271e+03
9.285583e+02,1.941122e+03
9.314510e+02,1.943547e+03
9.343438e+02,1.943809e+03
9.372365e+02,1.933874e+03
9.401292e+02,1.931002e+03
9.430219e+02,1.923846e+03
9.459146e+02,1.928499e+03
9.488073e+02,1.934788e+03
9.517000e+02,1.931700e+03
9.545927e+02,1.913224e+03
9.574854e+02,1.905271e+03
9.603781e+02,1.921311e+03
9.632708e+02,1.914970e+03
9.661635e+02,1.912832e+03
9.690562e+02,1.909073e+03
9.719489e+02,1.891672e+03
9.748416e+02,1.890469e+03
9.777343e+02,1.895094e+03
9.806270e+02,1.899770e+03
9.835197e+02,1.881474e+03
9.864124e+02,1.885201e+03
9.893051e+02,1.883964e+03
9.921978e+02,1.886553e+03
9.950905e+02,1.887123e+03
9.979832e+02,1.885509e+03
1.000876e+03,1.867841e+03
1.003769e+03,1.870082e+03
1.006661e+03,1.873410e+03
1.009554e+03,1.877621e+03
1.012447e+03,1.870754e+03
1.015339e+03,1.861552e+03
1.018232e+03,1.861622e+03
1.021125e+03,1.858459e+03
1.024017e+03,1.864802e+03
1.026910e+03,1.858421e+03
1.029803e+03,1.851920e+03
1.032696e+03,1.849662e+03
1.035588e+03,1.853689e+03
1.038481e+03,1.842897e+03
1.041374e+03,1.843256e+03
1.044266e+03,1.836401e+03
1.047159e+03,1.835170e+03
1.050052e+03,1.832668e+03
1.052944e+03,1.837323e+03
1.055837e+03,1.840184e+03
1.058730e+03,1.842316e+03
1.061623e+03,1.826688e+03
1.064515e+03,1.830716e+03
1.067408e+03,1.828415e+03
1.070301e+03,1.806318e+03
1.073193e+03,1.816843e+03
1.076086e+03,1.818249e+03
1.078979e+03,1.820765e+03
1.081871e+03,1.832175e+03
1.084764e+03,1.831782e+03
1.087657e+03,1.829388e+03
1.090550e+03,1.830012e+03
1.093442e+03,1.833768e+03
1.096335e+03,1.827004e+03
1.099228e+03,1.814859e+03
1.102120e+03,1.818346e+03
1.105013e+03,1.809509e+03
1.107906e+03,1.809260e+03
1.110798e+03,1.811436e+03
1.113691e+03,1.822009e+03
1.116584e+03,1.817671e+03
1.119477e+03,1.822903e+03
1.122369e+03,1.805395e+03
1.125262e+03,1.801382e+03
1.128155e+03,1.821726e+03
1.131047e+03,1.812590e+03
1.133940e+03,1.796096e+03
1.136833e+03,1.793619e+03
1.139725e+03,1.787600e+03
1.142618e+03,1.794670e+03
1.145511e+03,1.791606e+03
1.148404e+03,1.789289e+03
1.151296e+03,1.798914e+03
1.154189e+03,1.783509e+03
1.157082e+03,1.773820e+03
1.159974e+03,1.767813e+03
1.162867e+03,1.753835e+03
1.165760e+03,1.748461e+03
1.168652e+03,1.733503e+03
1.171545e+03,1.735896e+03
1.174438e+03,1.741732e+03
1.177331e+03,1.741732e+03
1.180223e+03,1.739279e+03
1.183116e+03,1.749976e+03
1.186009e+03,1.730686e+03
1.188901e+03,1.726441e+03
1.191794e+03,1.723561e+03
1.194687e+03,1.723055e+03
1.197579e+03,1.723775e+03
1.200472e+03,1.713053e+03
1.203365e+03,1.706824e+03
1.206258e+03,1.715505e+03
1.209150e+03,1.722949e+03
1.212043e+03,1.709316e+03
1.214936e+03,1.711221e+03
1.217828e+03,1.711187e+03
1.220721e+03,1.705659e+03
1.223614e+03,1.709392e+03
1.226506e+03,1.700110e+03
1.229399e+03,1.694919e+03
1.232292e+03,1.685837e+03
1.235185e+03,1.687375e+03
1.238077e+03,1.669107e+03
1.240970e+03,1.683644e+03
1.243863e+03,1.678879e+03
1.246755e+03,1.668479e+03
1.249648e+03,1.662808e+03
1.252541e+03,1.659510e+03
1.255433e+03,1.673654e+03
1.258326e+03,1.671417e+03
1.261219e+03,1.674479e+03
1.264112e+03,1.667160e+03
1.267004e+03,1.659194e+03
1.269897e+03,1.664081e+03
1.272790e+03,1.672152e+03
1.275682e+03,1.675837e+03
1.278575e+03,1.687954e+03
1.281468e+03,1.688322e+03
1.284360e+03,1.671874e+03
1.287253e+03,1.673149e+03
1.290146e+03,1.680477e+03
1.293039e+03,1.673077e+03
1.295931e+03,1.645508e+03
1.298824e+03,1.646503e+03
1.301717e+03,1.643547e+03
1.304609e+03,1.637371e+03
1.307502e+03,1.639187e+03
1.310395e+03,1.641762e+03
1.313287e+03,1.637358e+03
1.316180e+03,1.649148e+03
1.319073e+03,1.644664e+03
1.321966e+03,1.632826e+03
1.324858e+03,1.638241e+03
1.327751e+03,1.638914e+03
1.330644e+03,1.633342e+03
1.333536e+03,1.635194e+03
1.336429e+03,1.643083e+03
1.339322e+03,1.641673e+03
1.342214e+03,1.645280e+03
1.345107e+03,1.637113e+03
1.348000e+03,1.639139e+03
1.350893e+03,1.629404e+03
1.353785e+03,1.615139e+03
1.356678e+03,1.611109e+03
1.359571e+03,1.604697e+03
1.362463e+03,1.614111e+03
1.365356e+03,1.602589e+03
1.368249e+03,1.601109e+03
1.371141e+03,1.601450e+03
1.374034e+03,1.595226e+03
1.376927e+03,1.590000e+03
1.379820e+03,1.586460e+03
1.382712e+03,1.587368e+03
1.385605e+03,1.580217e+03
1.388498e+03,1.571440e+03
1.391390e+03,1.562515e+03
1.394283e+03,1.560578e+03
1.397176e+03,1.575658e+03
1.400068e+03,1.562703e+03
1.402961e+03,1.560087e+03
1.405854e+03,1.561941e+03
1.408747e+03,1.565639e+03
1.411639e+03,1.561791e+03
1.414532e+03,1.550203e+03
1.417425e+03,1.555039e+03
1.420317e+03,1.541315e+03
1.423210e+03,1.543727e+03
1.426103e+03,1.549055e+03
1.428995e+03,1.540550e+03
1.431888e+03,1.537799e+03
1.434781e+03,1.522706e+03
1.437674e+03,1.513126e+03
1.440566e+03,1.521982e+03
1.443459e+03,1.517487e+03
1.446352e+03,1.514342e+03
1.449244e+03,1.499137e+03
1.452137e+03,1.509153e+03
1.455030e+03,1.505795e+03
1.457922e+03,1.497149e+03
1.460815e+03,1.507514e+03
1.463708e+03,1.497723e+03
1.466601e+03,1.487031e+03
1.469493e+03,1.488607e+03
1.472386e+03,1.493434e+03
1.475279e+03,1.491543e+03
1.478171e+03,1.497096e+03
1.481064e+03,1.493617e+03
1.483957e+03,1.478823e+03
1.486849e+03,1.487834e+03
1.489742e+03,1.487373e+03
1.492635e+03,1.477784e+03
1.495528e+03,1.480716e+03
1.498420e+03,1.464445e+03
1.501313e+03,1.460809e+03
1.504206e+03,1.470441e+03
1.507098e+03,1.468888e+03
1.509991e+03,1.460317e+03
1.512884e+03,1.455712e+03
1.515776e+03,1.450355e+03
1.518669e+03,1.457093e+03
1.521562e+03,1.451364e+03
1.524455e+03,1.440280e+03
1.527347e+03,1.433997e+03
1.530240e+03,1.431555e+03
1.533133e+03,1.427842e+03
1.536025e+03,1.437797e+03
1.538918e+03,1.427903e+03
1.541811e+03,1.433900e+03
1.544703e+03,1.429793e+03
1.547596e+03,1.426572e+03
1.550489e+03,1.422971e+03
1.553382e+03,1.437859e+03
1.556274e+03,1.426081e+03
1.559167e+03,1.426583e+03
1.562060e+03,1.417636e+03
1.564952e+03,1.431252e+03
1.567845e+03,1.435480e+03
1.570738e+03,1.439140e+03
1.573630e+03,1.440348e+03
1.576523e+03,1.430202e+03
1.579416e+03,1.430765e+03
1.582309e+03,1.437664e+03
1.585201e+03,1.440891e+03
1.588094e+03,1.430472e+03
1.590987e+03,1.419135e+03
1.593879e+03,1.421409e+03
1.596772e+03,1.404435e+03
1.599665e+03,1.410900e+03
1.602557e+03,1.396767e+03
1.605450e+03,1.393716e+03
1.608343e+03,1.382996e+03
1.611236e+03,1.387071e+03
1.614128e+03,1.387050e+03
1.617021e+03,1.383678e+03
1.619914e+03,1.369603e+03
1.622806e+03,1.354484e+03
1.625699e+03,1.362332e+03
1.628592e+03,1.353349e+03
1.631484e+03,1.348234e+03
1.634377e+03,1.347480e+03
1.637270e+03,1.343584e+03
1.640163e+03,1.349412e+03
1.643055e+03,1.343216e+03
1.645948e+03,1.349615e+03
1.648841e+03,1.339727e+03
1.651733e+03,1.338099e+03
1.654626e+03,1.333851e+03
1.657519e+03,1.331208e+03
1.660411e+03,1.329590e+03
1.663304e+03,1.312655e+03
1.666197e+03,1.311824e+03
1.669090e+03,1.313700e+03
1.671982e+03,1.307055e+03
1.674875e+03,1.324372e+03
1.677768e+03,1.316881e+03
1.680660e+03,1.315809e+03
1.683553e+03,1.302518e+03
1.686446e+03,1.306324e+03
1.689339e+03,1.297521e+03
1.692231e+03,1.297932e+03
1.695124e+03,1.297084e+03
1.698017e+03,1.288980e+03
1.700909e+03,1.291903e+03
1.703802e+03,1.296436e+03
1.706695e+03,1.290406e+03
1.709587e+03,1.274588e+03
1.712480e+03,1.285000e+03
1.715373e+03,1.265716e+03
1.718266e+03,1.253252e+03
1.721158e+03,1.269528e+03
1.724051e+03,1.258347e+03
1.726944e+03,1.263653e+03
1.729836e+03,1.263160e+03
1.732729e+03,1.262912e+03
1.735622e+03,1.253004e+03
1.738514e+03,1.259960e+03
1.741407e+03,1.243402e+03
1.744300e+03,1.249979e+03
1.747193e+03,1.245847e+03
1.750085e+03,1.238607e+03
1.752978e+03,1.246941e+03
1.755871e+03,1.232592e+03
1.758763e+03,1.238701e+03
1.761656e+03,1.244123e+03
1.764549e+03,1.226252e+03
1.767441e+03,1.223312e+03
1.770334e+03,1.233870e+03
1.773227e+03,1.223374e+03
1.776120e+03,1.224921e+03
1.779012e+03,1.206945e+03
1.781905e+03,1.219679e+03
1.784798e+03,1.211179e+03
1.787690e+03,1.204017e+03
1.790583e+03,1.191803e+03
1.793476e+03,1.207002e+03
1.796368e+03,1.195789e+03
1.799261e+03,1.199784e+03
1.802154e+03,1.207661e+03
1.805047e+03,1.183885e+03
1.807939e+03,1.190845e+03
1.810832e+03,1.195888e+03
1.813725e+03,1.188752e+03
1.816617e+03,1.180458e+03
1.819510e+03,1.175113e+03
1.822403e+03,1.168882e+03
1.825295e+03,1.171203e+03
1.828188e+03,1.166883e+03
1.831081e+03,1.176618e+03
1.833974e+03,1.168994e+03
1.836866e+03,1.167585e+03
1.839759e+03,1.157686e+03
1.842652e+03,1.152953e+03
1.845544e+03,1.146783e+03
1.848437e+03,1.157615e+03
1.851330e+03,1.156945e+03
1.854222e+03,1.152380e+03
1.857115e+03,1.144405e+03
1.860008e+03,1.133625e+03
1.862901e+03,1.140139e+03
1.865793e+03,1.151657e+03
1.868686e+03,1.135385e+03
1.871579e+03,1.130446e+03
1.874471e+03,1.126443e+03
1.877364e+03,1.123628e+03
1.880257e+03,1.123828e+03
1.883149e+03,1.105344e+03
1.886042e+03,1.119372e+03
1.888935e+03,1.107170e+03
1.891828e+03,1.115485e+03
1.894720e+03,1.105743e+03
1.897613e+03,1.110353e+03
1.900506e+03,1.105342e+03
1.903398e+03,1.100033e+03
1.906291e+03,1.115843e+03
1.909184e+03,1.098919e+03
1.912076e+03,1.091263e+03
1.914969e+03,1.086438e+03
1.917862e+03,1.080649e+03
1.920755e+03,1.074960e+03
1.923647e+03,1.077992e+03
1.926540e+03,1.080904e+03
1.929433e+03,1.073480e+03
1.932325e+03,1.067904e+03
1.935218e+03,1.074318e+03
1.938111e+03,1.069207e+03
1.941003e+03,1.064255e+03
1.943896e+03,1.062502e+03
1.946789e+03,1.065580e+03
1.949682e+03,1.053725e+03
1.952574e+03,1.051395e+03
1.955467e+03,1.048736e+03
1.958360e+03,1.051469e+03
1.961252e+03,1.047168e+03
1.964145e+03,1.047818e+03
1.967038e+03,1.033766e+03
1.969930e+03,1.038408e+03
1.972823e+03,1.039642e+03
1.975716e+03,1.019803e+03
1.978609e+03,1.047185e+03
1.981501e+03,1.031355e+03
1.984394e+03,1.032807e+03
1.987287e+03,1.025432e+03
1.990179e+03,1.011864e+03
1.993072e+03,1.030898e+03
1.995965e+03,1.010792e+03
1.998857e+03,1.018487e+03
2.001750e+03,1.007035e+03
2.004643e+03,9.979141e+02
2.007536e+03,9.999324e+02
2.010428e+03,1.010082e+03
2.013321e+03,9.944579e+02
2.016214e+03,9.964073e+02
2.019106e+03,9.809652e+02
2.021999e+03,9.945375e+02
2.024892e+03,9.811907e+02
2.027784e+03,9.920878e+02
2.030677e+03,9.863294e+02
2.033570e+03,9.841963e+02
2.036463e+03,9.728193e+02
2.039355e+03,9.701641e+02
2.042248e+03,9.841756e+02
2.045141e+03,9.834327e+02
2.048033e+03,9.628264e+02
2.050926e+03,9.792910e+02
2.053819e+03,9.649944e+02
2.056711e+03,9.585936e+02
2.059604e+03,9.633991e+02
2.062497e+03,9.518395e+02
2.065390e+03,9.586370e+02
2.068282e+03,9.503586e+02
2.071175e+03,9.405350e+02
2.074068e+03,9.358514e+02
2.076960e+03,9.460593e+02
2.079853e+03,9.438851e+02
2.082746e+03,9.431068e+02
2.085638e+03,9.249750e+02
2.088531e+03,9.341777e+02
2.091424e+03,9.263919e+02
2.094316e+03,9.187739e+02
2.097209e+03,9.223753e+02
2.100102e+03,9.328688e+02
2.102995e+03,9.053671e+02
2.105887e+03,9.149967e+02
2.108780e+03,9.225369e+02
2.111673e+03,9.064440e+02
2.114565e+03,9.059385e+02
2.117458e+03,8.949213e+02
2.120351e+03,9.081802e+02
2.123244e+03,9.135887e+02
2.126136e+03,9.033895e+02
2.129029e+03,8.968863e+02
2.131922e+03,8.977371e+02
2.134814e+03,8.989633e+02
2.137707e+03,8.792380e+02
2.140600e+03,8.707591e+02
2.143492e+03,8.808087e+02
2.146385e+03,8.756931e+02
2.149278e+03,8.730011e+02
2.152170e+03,8.772865e+02
2.155063e+03,8.859755e+02
2.157956e+03,8.692042e+02
2.160849e+03,8.763030e+02
2.163741e+03,8.686700e+02
2.166634e+03,8.746042e+02
2.169527e+03,8.571343e+02
2.172419e+03,8.454311e+02
2.175312e+03,8.593499e+02
2.178205e+03,8.405218e+02
2.181098e+03,8.479547e+02
2.183990e+03,8.410065e+02
2.186883e+03,8.417457e+02
2.189776e+03,8.462972e+02
2.192668e+03,8.288787e+02
2.195561e+03,8.379334e+02
2.198454e+03,8.337996e+02
2.201346e+03,8.282256e+02
2.204239e+03,8.281402e+02
2.207132e+03,8.350989e+02
2.210024e+03,8.193885e+02
2.212917e+03,8.268017e+02
2.215810e+03,8.215776e+02
2.218703e+03,8.144251e+02
2.221595e+03,8.159380e+02
2.224488e+03,8.064892e+02
2.227381e+03,8.110026e+02
2.230273e+03,8.134689e+02
2.233166e+03,8.101708e+02
2.236059e+03,7.887531e+02
2.238952e+03,7.987335e+02
2.241844e+03,8.036643e+02
2.244737e+03,7.845253e+02
2.247630e+03,7.915188e+02
2.250522e+03,7.965877e+02
2.253415e+03,7.869256e+02
2.256308e+03,7.854529e+02
2.259200e+03,7.870392e+02
2.262093e+03,7.790050e+02
2.264986e+03,7.739442e+02
2.267879e+03,7.794695e+02
2.270771e+03,7.655472e+02
2.273664e+03,7.716544e+02
2.276557e+03,7.666068e+02
2.279449e+03,7.714246e+02
2.282342e+03,7.706025e+02
2.285235e+03,7.763718e+02
2.288127e+03,7.624195e+02
2.291020e+03,7.506374e+02
2.293913e+03,7.574217e+02
2.296805e+03,7.584435e+02
2.299698e+03,7.701454e+02
2.302591e+03,7.463091e+02
2.305484e+03,7.390814e+02
2.308376e+03,7.398888e+02
2.311269e+03,7.337422e+02
2.314162e+03,7.521961e+02
2.317054e+03,7.431594e+02
2.319947e+03,7.348765e+02
2.322840e+03,7.399100e+02
2.325733e+03,7.198810e+02
2.328625e+03,7.440421e+02
2.331518e+03,7.347321e+02
2.334411e+03,7.283864e+02
2.337303e+03,7.129395e+02
2.340196e+03,7.130245e+02
2.343089e+03,7.262305e+02
2.345981e+03,7.208879e+02
2.348874e+03,7.237102e+02
2.351767e+03,7.053855e+02
2.354659e+03,7.061870e+02
2.357552e+03,7.164695e+02
2.360445e+03,7.098034e+02
2.363338e+03,7.030046e+02
2.366230e+03,7.025882e+02
2.369123e+03,7.085753e+02
2.372016e+03,7.109539e+02
2.374908e+03,7.063217e+02
2.377801e+03,7.001285e+02
2.380694e+03,6.902293e+02
2.383587e+03,6.853011e+02
2.386479e+03,6.929429e+02
2.389372e+03,6.718109e+02
2.392265e+03,6.837408e+02
2.395157e+03,6.885942e+02
2.398050e+03,6.804111e+02
2.400943e+03,6.895919e+02
2.403835e+03,6.870140e+02
2.406728e+03,6.766002e+02
2.409621e+03,6.694930e+02
2.412513e+03,6.836766e+02
2.415406e+03,6.747688e+02
2.418299e+03,6.737424e+02
2.421192e+03,6.667916e+02
2.424084e+03,6.630168e+02
2.426977e+03,6.613029e+02
2.429870e+03,6.593347e+02
2.432762e+03,6.568265e+02
2.435655e+03,6.547947e+02
2.438548e+03,6.613497e+02
2.441441e+03,6.537037e+02
2.444333e+03,6.496790e+02
2.447226e+03,6.515201e+02
2.450119e+03,6.500746e+02
2.453011e+03,6.533734e+02
2.455904e+03,6.474891e+02
2.458797e+03,6.404075e+02
2.461689e+03,6.443560e+02
2.464582e+03,6.403250e+02
2.467475e+03,6.486426e+02
2.470367e+03,6.390495e+02
2.473260e+03,6.381548e+02
2.476153e+03,6.339901e+02
2.479046e+03,6.218894e+02
2.481938e+03,6.209111e+02
2.484831e+03,6.328547e+02
2.487724e+03,6.316371e+02
2.490616e+03,6.213333e+02
2.493509e+03,6.380200e+02
2.496402e+03,6.232177e+02
2.499295e+03,6.254484e+02
2.502187e+03,6.160001e+02
2.505080e+03,6.151285e+02
2.507973e+03,6.145139e+02
2.510865e+03,6.177219e+02
2.513758e+03,6.162646e+02
2.516651e+03,6.088470e+02
2.519543e+03,6.244012e+02
2.522436e+03,6.029600e+02
2.525329e+03,6.104761e+02
2.528221e+03,6.041039e+02
2.531114e+03,6.142195e+02
2.534007e+03,6.108379e+02
2.536900e+03,5.935685e+02
2.539792e+03,5.873060e+02
2.542685e+03,6.080082e+02
2.545578e+03,6.053259e+02
2.548470e+03,5.979988e+02
2.551363e+03,6.161951e+02
2.554256e+03,6.099665e+02
2.557149e+03,6.072621e+02
2.560041e+03,6.002384e+02
2.562934e+03,5.974737e+02
2.565827e+03,6.017988e+02
2.568719e+03,6.087618e+02
2.571612e+03,6.037629e+02
2.574505e+03,6.004797e+02
2.577397e+03,5.802902e+02
2.580290e+03,5.819647e+02
2.583183e+03,5.746965e+02
2.586075e+03,5.776396e+02
2.588968e+03,5.810283e+02
2.591861e+03,5.815032e+02
2.594754e+03,5.764576e+02
2.597646e+03,5.741448e+02
2.600539e+03,5.673793e+02
2.603432e+03,5.745845e+02
2.606324e+03,5.679742e+02
2.609217e+03,5.706931e+02
2.612110e+03,5.591969e+02
2.615003e+03,5.547382e+02
2.617895e+03,5.659628e+02
2.620788e+03,5.588990e+02
2.623681e+03,5.728264e+02
2.626573e+03,5.571610e+02
2.629466e+03,5.593201e+02
2.632359e+03,5.702840e+02
2.635251e+03,5.478323e+02
2.638144e+03,5.631996e+02
2.641037e+03,5.457440e+02
2.643929e+03,5.486503e+02
2.646822e+03,5.479600e+02
2.649715e+03,5.546222e+02
2.652608e+03,5.635481e+02
2.655500e+03,5.530394e+02
2.658393e+03,5.416805e+02
2.661286e+03,5.474333e+02
2.664178e+03,5.601111e+02
2.667071e+03,5.631024e+02
2.669964e+03,5.448160e+02
2.672857e+03,5.370629e+02
2.675749e+03,5.469969e+02
2.678642e+03,5.457520e+02
2.681535e+03,5.376349e+02
2.684427e+03,5.214007e+02
2.687320e+03,5.292214e+02
2.690213e+03,5.480561e+02
2.693105e+03,5.228292e+02
2.695998e+03,5.251359e+02
2.698891e+03,5.389369e+02
2.701783e+03,5.278344e+02
2.704676e+03,5.347723e+02
2.707569e+03,5.282966e+02
2.710462e+03,5.429774e+02
2.713354e+03,5.310349e+02
2.716247e+03,5.195890e+02
2.719140e+03,5.362195e+02
2.722032e+03,5.265320e+02
2.724925e+03,5.215270e+02
2.727818e+03,5.107307e+02
2.730711e+03,5.052183e+02
2.733603e+03,5.184610e+02
2.736496e+03,5.111343e+02
2.739389e+03,5.093734e+02
2.742281e+03,5.169508e+02
2.745174e+03,5.121794e+02
2.748067e+03,5.090562e+02
2.750959e+03,5.058510e+02
2.753852e+03,5.039014e+02
2.756745e+03,5.037686e+02
2.759637e+03,5.172704e+02
2.762530e+03,5.336481e+02
2.765423e+03,5.009939e+02
2.768316e+03,5.002783e+02
2.771208e+03,5.053998e+02
2.774101e+03,5.107924e+02
2.776994e+03,4.888443e+02
2.779886e+03,5.040043e+02
2.782779e+03,4.923223e+02
2.785672e+03,4.873751e+02
2.788565e+03,4.948383e+02
2.791457e+03,5.080741e+02
2.794350e+03,4.866295e+02
2.797243e+03,5.098571e+02
2.800135e+03,4.941762e+02
2.803028e+03,4.951882e+02
2.805921e+03,4.947003e+02
2.808813e+03,4.841564e+02
2.811706e+03,4.881966e+02
2.814599e+03,4.919607e+02
2.817491e+03,4.974337e+02
2.820384e+03,4.869057e+02
2.823277e+03,4.820244e+02
2.826170e+03,4.934729e+02
2.829062e+03,4.789781e+02
2.831955e+03,4.878756e+02
2.834848e+03,4.869024e+02
2.837740e+03,4.957540e+02
2.840633e+03,4.767419e+02
2.843526e+03,4.883001e+02
2.846419e+03,4.871520e+02
2.849311e+03,4.961074e+02
2.852204e+03,5.016659e+02
2.855097e+03,4.821674e+02
2.857990e+03,4.973102e+02
2.860882e+03,4.783438e+02
2.863775e+03,4.870352e+02
2.866667e+03,4.797121e+02
2.869560e+03,4.963188e+02
2.872453e+03,4.786299e+02
2.875345e+03,5.069461e+02
2.878238e+03,5.086951e+02
2.881131e+03,4.988108e+02
2.884024e+03,4.879500e+02
2.886916e+03,5.159286e+02
2.889809e+03,5.069341e+02
2.892702e+03,5.037282e+02
2.895594e+03,5.158036e+02
2.898487e+03,5.034282e+02
2.901380e+03,5.135347e+02
2.904273e+03,5.143825e+02
2.907165e+03,4.813165e+02
2.910058e+03,4.970246e+02
2.912951e+03,4.818745e+02
2.915844e+03,4.957366e+02
2.918736e+03,4.803945e+02
2.921629e+03,5.021971e+02
2.924521e+03,4.786577e+02
2.927414e+03,4.795573e+02
2.930307e+03,4.778003e+02
2.933199e+03,4.848408e+02
2.936092e+03,4.733269e+02
2.938985e+03,4.585150e+02
2.941878e+03,4.653457e+02
2.944770e+03,4.801759e+02
2.947663e+03,4.567816e+02
2.950556e+03,4.825169e+02
2.953448e+03,4.793452e+02
2.956341e+03,5.055576e+02
2.959234e+03,4.816246e+02
2.962127e+03,4.748133e+02
2.965019e+03,4.412704e+02
2.967912e+03,4.550435e+02
2.970805e+03,4.653408e+02
2.973698e+03,4.443791e+02
2.976590e+03,4.518321e+02
2.979483e+03,4.569703e+02
2.982375e+03,4.274170e+02
2.985268e+03,4.456952e+02
2.988161e+03,4.427048e+02
2.991053e+03,4.470897e+02
2.993946e+03,4.429237e+02
2.996839e+03,4.438665e+02
2.999732e+03,4.483756e+02
3.002624e+03,4.171097e+02
3.005517e+03,4.330536e+02
3.008410e+03,4.297021e+02
3.011302e+03,4.486217e+02
3.014195e+03,4.232523e+02
3.017088e+03,4.455292e+02
3.019981e+03,4.344269e+02
3.022873e+03,4.219458e+02
3.025766e+03,4.333058e+02
3.028659e+03,4.368505e+02
3.031552e+03,4.188361e+02
3.034444e+03,4.396166e+02
3.037337e+03,4.299408e+02
3.040229e+03,4.184467e+02
3.043122e+03,4.410250e+02
3.046015e+03,4.291688e+02
3.048907e+03,4.181180e+02
3.051800e+03,4.243511e+02
3.054693e+03,4.355093e+02
3.057586e+03,4.291942e+02
3.060478e+03,4.401310e+02
3.063371e+03,4.059810e+02
3.066264e+03,4.061714e+02
3.069156e+03,4.565312e+02
3.072049e+03,4.551082e+02
3.074942e+03,4.330879e+02
3.077835e+03,4.246548e+02
3.080727e+03,4.158932e+02
3.083620e+03,4.273413e+02
3.086513e+03,4.571565e+02
3.089406e+03,4.235086e+02
3.092298e+03,4.462263e+02
3.095191e+03,4.163295e+02
3.098083e+03,4.128957e+02
3.100976e+03,4.426478e+02
3.103869e+03,4.112695e+02
3.106761e+03,4.110518e+02
3.109654e+03,4.125995e+02
3.112547e+03,4.359030e+02
3.115440e+03,4.275008e+02
3.118332e+03,4.480830e+02
3.121225e+03,4.379908e+02
3.124118e+03,4.267159e+02
3.127010e+03,4.350783e+02
3.129903e+03,4.183500e+02
3.132796e+03,4.040320e+02
3.135689e+03,4.417854e+02
3.138581e+03,4.149396e+02
3.141474e+03,4.606008e+02
3.144367e+03,4.060641e+02
3.147260e+03,4.252827e+02
3.150152e+03,4.468583e+02
3.153045e+03,4.233825e+02
3.155938e+03,4.190273e+02
3.158830e+03,4.460944e+02
3.161723e+03,4.770536e+02
3.164615e+03,4.320210e+02
3.167508e+03,4.395594e+02
3.170401e+03,4.199583e+02
3.173294e+03,4.182341e+02
3.176186e+03,4.478004e+02
3.179079e+03,4.343257e+02
3.181972e+03,4.649432e+02
3.184865e+03,4.373579e+02
3.187757e+03,4.396668e+02
3.190650e+03,3.967637e+02
3.193543e+03,4.189254e+02
3.196435e+03,4.184608e+02
3.199328e+03,4.657696e+02
3.200292e+03,4.678374e+02