File: RAMAN_data/20012023_r1/blue frag4.CSV
1.995979e+02,9.718895e+03
2.024906e+02,9.726092e+03
2.053833e+02,9.743038e+03
2.082760e+02,9.750379e+03
2.111687e+02,9.718943e+03
2.140614e+02,9.720745e+03
2.169541e+02,9.779194e+03
2.198468e+02,9.783404e+03
2.227395e+02,9.810565e+03
2.256322e+02,9.829326e+03
2.285249e+02,9.893911e+03
2.314176e+02,9.956071e+03
2.343103e+02,9.919429e+03
2.372030e+02,9.922764e+03
2.400957e+02,9.899274e+03
2.429884e+02,9.893462e+03
2.458811e+02,9.967807e+03
2.487738e+02,1.006954e+04
2.516665e+02,1.019379e+04
2.545592e+02,1.026075e+04
2.574519e+02,1.018203e+04
2.603446e+02,1.012498e+04
2.632373e+02,1.012883e+04
2.661300e+02,1.012168e+04
2.690227e+02,1.011248e+04
2.719154e+02,1.009388e+04
2.748081e+02,1.011010e+04
2.777008e+02,1.017169e+04
2.805935e+02,1.020105e+04
2.834862e+02,1.022635e+04
2.863789e+02,1.024301e+04
2.892716e+02,1.022415e+04
2.921643e+02,1.019853e+04
2.950570e+02,1.020823e+04
2.979497e+02,1.025467e+04
3.008424e+02,1.024363e+04
3.037351e+02,1.024425e+04
3.066278e+02,1.025321e+04
3.095205e+02,1.028247e+04
3.124132e+02,1.031383e+04
3.153059e+02,1.033684e+04
3.181986e+02,1.031672e+04
3.210913e+02,1.035191e+04
3.239840e+02,1.035987e+04
3.268767e+02,1.040216e+04
3.297694e+02,1.042403e+04
3.326621e+02,1.042730e+04
3.355548e+02,1.043288e+04
3.384475e+02,1.045423e+04
3.413402e+02,1.047283e+04
3.442329e+02,1.051429e+04
3.471256e+02,1.054137e+04
3.500183e+02,1.053134e+04
3.529110e+02,1.054104e+04
3.558037e+02,1.057032e+04
3.586964e+02,1.060018e+04
3.615891e+02,1.062811e+04
3.644818e+02,1.060953e+04
3.673745e+02,1.056617e+04
3.702672e+02,1.060950e+04
3.731599e+02,1.065544e+04
3.760526e+02,1.067742e+04
3.789453e+02,1.068270e+04
3.818380e+02,1.069458e+04
3.847307e+02,1.072007e+04
3.876234e+02,1.074981e+04
3.905161e+02,1.073674e+04
3.934088e+02,1.069903e+04
3.963015e+02,1.074182e+04
3.991942e+02,1.074030e+04
4.020869e+02,1.076978e+04
4.049796e+02,1.077811e+04
4.078723e+02,1.080920e+04
4.107650e+02,1.081222e+04
4.136577e+02,1.082354e+04
4.165504e+02,1.082059e+04
4.194431e+02,1.085329e+04
4.223358e+02,1.085347e+04
4.252285e+02,1.085511e+04
4.281212e+02,1.082226e+04
4.310139e+02,1.084778e+04
4.339066e+02,1.085286e+04
4.367993e+02,1.084780e+04
4.396920e+02,1.084901e+04
4.425847e+02,1.085876e+04
4.454774e+02,1.088989e+04
4.483701e+02,1.087836e+04
4.512628e+02,1.091419e+04
4.541555e+02,1.090670e+04
4.570482e+02,1.090164e+04
4.599409e+02,1.091574e+04
4.628336e+02,1.091227e+04
4.657263e+02,1.092095e+04
4.686190e+02,1.093466e+04
4.715117e+02,1.098904e+04
4.744044e+02,1.116004e+04
4.772971e+02,1.143349e+04
4.801898e+02,1.165014e+04
4.830825e+02,1.146942e+04
4.859752e+02,1.121959e+04
4.888679e+02,1.112216e+04
4.917606e+02,1.110115e+04
4.946533e+02,1.106386e+04
4.975460e+02,1.107292e+04
5.004387e+02,1.108941e+04
5.033314e+02,1.107276e+04
5.062241e+02,1.106859e+04
5.091168e+02,1.104799e+04
5.120095e+02,1.107184e+04
5.149022e+02,1.107929e+04
5.177949e+02,1.110697e+04
5.206876e+02,1.108802e+04
5.235803e+02,1.107786e+04
5.264730e+02,1.110105e+04
5.293657e+02,1.110430e+04
5.322584e+02,1.111850e+04
5.351511e+02,1.112181e+04
5.380438e+02,1.115586e+04
5.409365e+02,1.113274e+04
5.438292e+02,1.117094e+04
5.467219e+02,1.119253e+04
5.496146e+02,1.120838e+04
5.525073e+02,1.115607e+04
5.554000e+02,1.119061e+04
5.582927e+02,1.122411e+04
5.611854e+02,1.122381e+04
5.640781e+02,1.126432e+04
5.669708e+02,1.124298e+04
5.698635e+02,1.124792e+04
5.727562e+02,1.127186e+04
5.756489e+02,1.132387e+04
5.785416e+02,1.134619e+04
5.814343e+02,1.133966e+04
5.843270e+02,1.140558e+04
5.872197e+02,1.148191e+04
5.901124e+02,1.156706e+04
5.930051e+02,1.156723e+04
5.958978e+02,1.145465e+04
5.987905e+02,1.137864e+04
6.016832e+02,1.135223e+04
6.045759e+02,1.132464e+04
6.074686e+02,1.135422e+04
6.103613e+02,1.131392e+04
6.132540e+02,1.129388e+04
6.161467e+02,1.131503e+04
6.190394e+02,1.134768e+04
6.219321e+02,1.131574e+04
6.248248e+02,1.136754e+04
6.277175e+02,1.135074e+04
6.306102e+02,1.134732e+04
6.335029e+02,1.139233e+04
6.363956e+02,1.141797e+04
6.392883e+02,1.140888e+04
6.421810e+02,1.138719e+04
6.450737e+02,1.136641e+04
6.479664e+02,1.134207e+04
6.508591e+02,1.135152e+04
6.537518e+02,1.138871e+04
6.566445e+02,1.140881e+04
6.595372e+02,1.137799e+04
6.624299e+02,1.137565e+04
6.653226e+02,1.147944e+04
6.682153e+02,1.161913e+04
6.711080e+02,1.202056e+04
6.740007e+02,1.270350e+04
6.768934e+02,1.294091e+04
6.797861e+02,1.246215e+04
6.826788e+02,1.193338e+04
6.855715e+02,1.173852e+04
6.884642e+02,1.168324e+04
6.913569e+02,1.165937e+04
6.942496e+02,1.164929e+04
6.971423e+02,1.164069e+04
7.000350e+02,1.159046e+04
7.029277e+02,1.154213e+04
7.058204e+02,1.145187e+04
7.087131e+02,1.142837e+04
7.116058e+02,1.143211e+04
7.144985e+02,1.143565e+04
7.173912e+02,1.142747e+04
7.202839e+02,1.137086e+04
7.231766e+02,1.135783e+04
7.260693e+02,1.138744e+04
7.289620e+02,1.139899e+04
7.318547e+02,1.139212e+04
7.347474e+02,1.147969e+04
7.376401e+02,1.177767e+04
7.405328e+02,1.257811e+04
7.434255e+02,1.315285e+04
7.463182e+02,1.264042e+04
7.492109e+02,1.176980e+04
7.521036e+02,1.146184e+04
7.549963e+02,1.137730e+04
7.578890e+02,1.137509e+04
7.607817e+02,1.137238e+04
7.636744e+02,1.138941e+04
7.665671e+02,1.148188e+04
7.694598e+02,1.149085e+04
7.723525e+02,1.154732e+04
7.752452e+02,1.155645e+04
7.781379e+02,1.152735e+04
7.810306e+02,1.141163e+04
7.839233e+02,1.134438e+04
7.868160e+02,1.127495e+04
7.897087e+02,1.128656e+04
7.926014e+02,1.128793e+04
7.954941e+02,1.123617e+04
7.983868e+02,1.120858e+04
8.012795e+02,1.121490e+04
8.041722e+02,1.122055e+04
8.070649e+02,1.126067e+04
8.099576e+02,1.122514e+04
8.128503e+02,1.121205e+04
8.157430e+02,1.124630e+04
8.186357e+02,1.123561e+04
8.215284e+02,1.132814e+04
8.244211e+02,1.139671e+04
8.273138e+02,1.141015e+04
8.302065e+02,1.138175e+04
8.330992e+02,1.133743e+04
8.359919e+02,1.137802e+04
8.388846e+02,1.139296e+04
8.417773e+02,1.140379e+04
8.446700e+02,1.139840e+04
8.475627e+02,1.132498e+04
8.504554e+02,1.129970e+04
8.533481e+02,1.130027e+04
8.562408e+02,1.123246e+04
8.591335e+02,1.122229e+04
8.620262e+02,1.116383e+04
8.649189e+02,1.115858e+04
8.678116e+02,1.115233e+04
8.707043e+02,1.112209e+04
8.735970e+02,1.112650e+04
8.764897e+02,1.111743e+04
8.793824e+02,1.109992e+04
8.822751e+02,1.108134e+04
8.851678e+02,1.109719e+04
8.880605e+02,1.105990e+04
8.909532e+02,1.103956e+04
8.938459e+02,1.102403e+04
8.967386e+02,1.104369e+04
8.996313e+02,1.102524e+04
9.025240e+02,1.101479e+04
9.054167e+02,1.098344e+04
9.083094e+02,1.096714e+04
9.112021e+02,1.099393e+04
9.140948e+02,1.097215e+04
9.169875e+02,1.097165e+04
9.198802e+02,1.096198e+04
9.227729e+02,1.094849e+04
9.256656e+02,1.097198e+04
9.285583e+02,1.096655e+04
9.314510e+02,1.094545e+04
9.343438e+02,1.095565e+04
9.372365e+02,1.094303e+04
9.401292e+02,1.094309e+04
9.430219e+02,1.103113e+04
9.459146e+02,1.127105e+04
9.488073e+02,1.153341e+04
9.517000e+02,1.132447e+04
9.545927e+02,1.104315e+04
9.574854e+02,1.088338e+04
9.603781e+02,1.084036e+04
9.632708e+02,1.085475e+04
9.661635e+02,1.081238e+04
9.690562e+02,1.079745e+04
9.719489e+02,1.076680e+04
9.748416e+02,1.075092e+04
9.777343e+02,1.075476e+04
9.806270e+02,1.075357e+04
9.835197e+02,1.071750e+04
9.864124e+02,1.070447e+04
9.893051e+02,1.071975e+04
9.921978e+02,1.074265e+04
9.950905e+02,1.071531e+04
9.979832e+02,1.072599e+04
1.000876e+03,1.076142e+04
1.003769e+03,1.079820e+04
1.006661e+03,1.075420e+04
1.009554e+03,1.074111e+04
1.012447e+03,1.068379e+04
1.015339e+03,1.063410e+04
1.018232e+03,1.061718e+04
1.021125e+03,1.062768e+04
1.024017e+03,1.065084e+04
1.026910e+03,1.061891e+04
1.029803e+03,1.058754e+04
1.032696e+03,1.063087e+04
1.035588e+03,1.060970e+04
1.038481e+03,1.061346e+04
1.041374e+03,1.058299e+04
1.044266e+03,1.054609e+04
1.047159e+03,1.053109e+04
1.050052e+03,1.051265e+04
1.052944e+03,1.051348e+04
1.055837e+03,1.050232e+04
1.058730e+03,1.047872e+04
1.061623e+03,1.044897e+04
1.064515e+03,1.043277e+04
1.067408e+03,1.043506e+04
1.070301e+03,1.046004e+04
1.073193e+03,1.044447e+04
1.076086e+03,1.043910e+04
1.078979e+03,1.038258e+04
1.081871e+03,1.039503e+04
1.084764e+03,1.038964e+04
1.087657e+03,1.039015e+04
1.090550e+03,1.038284e+04
1.093442e+03,1.036916e+04
1.096335e+03,1.037204e+04
1.099228e+03,1.045483e+04
1.102120e+03,1.061196e+04
1.105013e+03,1.068525e+04
1.107906e+03,1.061339e+04
1.110798e+03,1.046744e+04
1.113691e+03,1.032803e+04
1.116584e+03,1.032672e+04
1.119477e+03,1.034851e+04
1.122369e+03,1.030876e+04
1.125262e+03,1.032196e+04
1.128155e+03,1.034093e+04
1.131047e+03,1.042389e+04
1.133940e+03,1.058480e+04
1.136833e+03,1.060523e+04
1.139725e+03,1.064819e+04
1.142618e+03,1.061796e+04
1.145511e+03,1.052775e+04
1.148404e+03,1.034011e+04
1.151296e+03,1.031895e+04
1.154189e+03,1.022567e+04
1.157082e+03,1.022361e+04
1.159974e+03,1.019096e+04
1.162867e+03,1.015943e+04
1.165760e+03,1.013198e+04
1.168652e+03,1.010428e+04
1.171545e+03,1.009231e+04
1.174438e+03,1.015050e+04
1.177331e+03,1.022608e+04
1.180223e+03,1.028307e+04
1.183116e+03,1.028235e+04
1.186009e+03,1.023312e+04
1.188901e+03,1.025438e+04
1.191794e+03,1.025101e+04
1.194687e+03,1.020988e+04
1.197579e+03,1.017411e+04
1.200472e+03,1.016819e+04
1.203365e+03,1.011556e+04
1.206258e+03,1.014747e+04
1.209150e+03,1.017794e+04
1.212043e+03,1.021113e+04
1.214936e+03,1.014472e+04
1.217828e+03,1.008505e+04
1.220721e+03,9.993488e+03
1.223614e+03,9.880562e+03
1.226506e+03,9.818792e+03
1.229399e+03,9.770761e+03
1.232292e+03,9.705238e+03
1.235185e+03,9.683626e+03
1.238077e+03,9.684078e+03
1.240970e+03,9.702822e+03
1.243863e+03,9.668259e+03
1.246755e+03,9.608996e+03
1.249648e+03,9.612753e+03
1.252541e+03,9.603699e+03
1.255433e+03,9.608420e+03
1.258326e+03,9.623201e+03
1.261219e+03,9.560279e+03
1.264112e+03,9.582075e+03
1.267004e+03,9.547701e+03
1.269897e+03,9.572178e+03
1.272790e+03,9.576081e+03
1.275682e+03,9.550175e+03
1.278575e+03,9.528766e+03
1.281468e+03,9.487870e+03
1.284360e+03,9.514256e+03
1.287253e+03,9.535301e+03
1.290146e+03,9.579473e+03
1.293039e+03,9.580219e+03
1.295931e+03,9.621041e+03
1.298824e+03,9.741778e+03
1.301717e+03,9.899140e+03
1.304609e+03,9.902401e+03
1.307502e+03,9.754715e+03
1.310395e+03,9.588345e+03
1.313287e+03,9.538238e+03
1.316180e+03,9.516361e+03
1.319073e+03,9.592499e+03
1.321966e+03,9.714579e+03
1.324858e+03,9.815569e+03
1.327751e+03,1.012589e+04
1.330644e+03,1.053150e+04
1.333536e+03,1.063736e+04
1.336429e+03,1.069021e+04
1.339322e+03,1.046618e+04
1.342214e+03,9.843923e+03
1.345107e+03,9.509308e+03
1.348000e+03,9.340364e+03
1.350893e+03,9.261347e+03
1.353785e+03,9.216092e+03
1.356678e+03,9.191423e+03
1.359571e+03,9.177002e+03
1.362463e+03,9.177811e+03
1.365356e+03,9.166034e+03
1.368249e+03,9.121784e+03
1.371141e+03,9.064923e+03
1.374034e+03,8.992854e+03
1.376927e+03,8.964846e+03
1.379820e+03,8.944946e+03
1.382712e+03,8.924646e+03
1.385605e+03,8.901544e+03
1.388498e+03,8.848325e+03
1.391390e+03,8.821384e+03
1.394283e+03,8.835998e+03
1.397176e+03,8.830443e+03
1.400068e+03,8.850956e+03
1.402961e+03,8.795165e+03
1.405854e+03,8.812729e+03
1.408747e+03,8.784643e+03
1.411639e+03,8.788210e+03
1.414532e+03,8.767184e+03
1.417425e+03,8.789841e+03
1.420317e+03,8.741927e+03
1.423210e+03,8.823560e+03
1.426103e+03,8.843422e+03
1.428995e+03,8.810808e+03
1.431888e+03,8.770673e+03
1.434781e+03,8.797624e+03
1.437674e+03,8.874307e+03
1.440566e+03,9.075926e+03
1.443459e+03,9.392635e+03
1.446352e+03,9.484971e+03
1.449244e+03,9.231663e+03
1.452137e+03,8.838778e+03
1.455030e+03,8.664445e+03
1.457922e+03,8.613652e+03
1.460815e+03,8.560655e+03
1.463708e+03,8.561950e+03
1.466601e+03,8.520660e+03
1.469493e+03,8.506219e+03
1.472386e+03,8.497545e+03
1.475279e+03,8.495069e+03
1.478171e+03,8.429011e+03
1.481064e+03,8.386996e+03
1.483957e+03,8.379852e+03
1.486849e+03,8.363746e+03
1.489742e+03,8.412109e+03
1.492635e+03,8.338403e+03
1.495528e+03,8.374125e+03
1.498420e+03,8.378835e+03
1.501313e+03,8.387516e+03
1.504206e+03,8.453187e+03
1.507098e+03,8.537699e+03
1.509991e+03,8.765641e+03
1.512884e+03,9.288686e+03
1.515776e+03,1.034570e+04
1.518669e+03,1.150453e+04
1.521562e+03,1.171930e+04
1.524455e+03,1.071637e+04
1.527347e+03,9.586213e+03
1.530240e+03,8.911978e+03
1.533133e+03,8.611011e+03
1.536025e+03,8.445824e+03
1.538918e+03,8.297067e+03
1.541811e+03,8.232288e+03
1.544703e+03,8.180537e+03
1.547596e+03,8.106346e+03
1.550489e+03,8.052308e+03
1.553382e+03,8.019653e+03
1.556274e+03,7.986686e+03
1.559167e+03,7.921477e+03
1.562060e+03,7.892523e+03
1.564952e+03,7.913289e+03
1.567845e+03,7.870814e+03
1.570738e+03,7.909502e+03
1.573630e+03,7.862415e+03
1.576523e+03,7.800106e+03
1.579416e+03,7.827562e+03
1.582309e+03,7.810493e+03
1.585201e+03,7.812061e+03
1.588094e+03,7.786327e+03
1.590987e+03,7.753930e+03
1.593879e+03,7.745628e+03
1.596772e+03,7.722583e+03
1.599665e+03,7.742580e+03
1.602557e+03,7.704364e+03
1.605450e+03,7.694032e+03
1.608343e+03,7.627703e+03
1.611236e+03,7.570488e+03
1.614128e+03,7.586123e+03
1.617021e+03,7.553574e+03
1.619914e+03,7.520147e+03
1.622806e+03,7.476041e+03
1.625699e+03,7.468826e+03
1.628592e+03,7.445138e+03
1.631484e+03,7.404959e+03
1.634377e+03,7.427030e+03
1.637270e+03,7.375280e+03
1.640163e+03,7.315898e+03
1.643055e+03,7.354410e+03
1.645948e+03,7.337505e+03
1.648841e+03,7.268179e+03
1.651733e+03,7.272828e+03
1.654626e+03,7.254603e+03
1.657519e+03,7.243813e+03
1.660411e+03,7.204766e+03
1.663304e+03,7.195304e+03
1.666197e+03,7.173914e+03
1.669090e+03,7.149760e+03
1.671982e+03,7.128582e+03
1.674875e+03,7.145052e+03
1.677768e+03,7.121420e+03
1.680660e+03,7.085960e+03
1.683553e+03,7.075159e+03
1.686446e+03,7.072940e+03
1.689339e+03,7.078771e+03
1.692231e+03,7.046083e+03
1.695124e+03,7.027377e+03
1.698017e+03,7.019158e+03
1.700909e+03,6.977278e+03
1.703802e+03,6.981351e+03
1.706695e+03,6.946874e+03
1.709587e+03,6.908613e+03
1.712480e+03,6.917809e+03
1.715373e+03,6.855387e+03
1.718266e+03,6.893641e+03
1.721158e+03,6.870092e+03
1.724051e+03,6.816529e+03
1.726944e+03,6.807494e+03
1.729836e+03,6.805031e+03
1.732729e+03,6.807904e+03
1.735622e+03,6.776642e+03
1.738514e+03,6.750951e+03
1.741407e+03,6.757749e+03
1.744300e+03,6.738123e+03
1.747193e+03,6.714569e+03
1.750085e+03,6.707944e+03
1.752978e+03,6.679107e+03
1.755871e+03,6.670843e+03
1.758763e+03,6.637065e+03
1.761656e+03,6.625385e+03
1.764549e+03,6.603758e+03
1.767441e+03,6.596665e+03
1.770334e+03,6.594310e+03
1.773227e+03,6.574474e+03
1.776120e+03,6.581215e+03
1.779012e+03,6.535627e+03
1.781905e+03,6.540875e+03
1.784798e+03,6.511210e+03
1.787690e+03,6.535911e+03
1.790583e+03,6.470580e+03
1.793476e+03,6.439680e+03
1.796368e+03,6.442578e+03
1.799261e+03,6.422544e+03
1.802154e+03,6.444904e+03
1.805047e+03,6.411268e+03
1.807939e+03,6.402038e+03
1.810832e+03,6.377670e+03
1.813725e+03,6.376114e+03
1.816617e+03,6.362433e+03
1.819510e+03,6.352793e+03
1.822403e+03,6.309786e+03
1.825295e+03,6.319008e+03
1.828188e+03,6.274299e+03
1.831081e+03,6.282174e+03
1.833974e+03,6.262147e+03
1.836866e+03,6.252416e+03
1.839759e+03,6.226440e+03
1.842652e+03,6.248854e+03
1.845544e+03,6.217144e+03
1.848437e+03,6.216852e+03
1.851330e+03,6.183888e+03
1.854222e+03,6.159753e+03
1.857115e+03,6.185690e+03
1.860008e+03,6.122521e+03
1.862901e+03,6.100073e+03
1.865793e+03,6.117892e+03
1.868686e+03,6.107575e+03
1.871579e+03,6.071394e+03
1.874471e+03,6.055229e+03
1.877364e+03,6.078565e+03
1.880257e+03,6.031565e+03
1.883149e+03,6.031533e+03
1.886042e+03,6.026632e+03
1.888935e+03,6.003276e+03
1.891828e+03,6.012126e+03
1.894720e+03,5.988870e+03
1.897613e+03,5.962438e+03
1.900506e+03,5.951538e+03
1.903398e+03,5.962216e+03
1.906291e+03,5.945430e+03
1.909184e+03,5.934102e+03
1.912076e+03,5.923674e+03
1.914969e+03,5.870633e+03
1.917862e+03,5.866868e+03
1.920755e+03,5.853286e+03
1.923647e+03,5.850857e+03
1.926540e+03,5.807121e+03
1.929433e+03,5.787765e+03
1.932325e+03,5.814657e+03
1.935218e+03,5.756192e+03
1.938111e+03,5.798454e+03
1.941003e+03,5.752277e+03
1.943896e+03,5.721319e+03
1.946789e+03,5.710247e+03
1.949682e+03,5.706412e+03
1.952574e+03,5.684215e+03
1.955467e+03,5.708106e+03
1.958360e+03,5.700409e+03
1.961252e+03,5.693004e+03
1.964145e+03,5.625873e+03
1.967038e+03,5.648589e+03
1.969930e+03,5.622758e+03
1.972823e+03,5.610456e+03
1.975716e+03,5.575266e+03
1.978609e+03,5.604996e+03
1.981501e+03,5.594333e+03
1.984394e+03,5.542987e+03
1.987287e+03,5.580438e+03
1.990179e+03,5.531687e+03
1.993072e+03,5.465958e+03
1.995965e+03,5.497315e+03
1.998857e+03,5.507595e+03
2.001750e+03,5.478254e+03
2.004643e+03,5.490320e+03
2.007536e+03,5.464225e+03
2.010428e+03,5.463205e+03
2.013321e+03,5.450223e+03
2.016214e+03,5.428985e+03
2.019106e+03,5.424228e+03
2.021999e+03,5.387106e+03
2.024892e+03,5.408099e+03
2.027784e+03,5.360391e+03
2.030677e+03,5.354311e+03
2.033570e+03,5.356089e+03
2.036463e+03,5.312607e+03
2.039355e+03,5.299338e+03
2.042248e+03,5.281753e+03
2.045141e+03,5.286904e+03
2.048033e+03,5.276250e+03
2.050926e+03,5.223019e+03
2.053819e+03,5.240524e+03
2.056711e+03,5.219815e+03
2.059604e+03,5.209697e+03
2.062497e+03,5.208453e+03
2.065390e+03,5.213581e+03
2.068282e+03,5.158123e+03
2.071175e+03,5.154526e+03
2.074068e+03,5.132397e+03
2.076960e+03,5.173123e+03
2.079853e+03,5.181753e+03
2.082746e+03,5.143808e+03
2.085638e+03,5.121382e+03
2.088531e+03,5.102706e+03
2.091424e+03,5.108147e+03
2.094316e+03,5.078210e+03
2.097209e+03,5.090810e+03
2.100102e+03,5.033047e+03
2.102995e+03,5.033269e+03
2.105887e+03,4.999986e+03
2.108780e+03,5.002090e+03
2.111673e+03,4.996842e+03
2.114565e+03,4.983243e+03
2.117458e+03,4.916595e+03
2.120351e+03,4.997932e+03
2.123244e+03,5.006209e+03
2.126136e+03,4.929639e+03
2.129029e+03,4.932064e+03
2.131922e+03,4.893926e+03
2.134814e+03,4.888725e+03
2.137707e+03,4.916794e+03
2.140600e+03,4.896053e+03
2.143492e+03,4.849857e+03
2.146385e+03,4.834374e+03
2.149278e+03,4.805213e+03
2.152170e+03,4.836229e+03
2.155063e+03,4.748708e+03
2.157956e+03,4.797256e+03
2.160849e+03,4.762776e+03
2.163741e+03,4.767484e+03
2.166634e+03,4.747334e+03
2.169527e+03,4.750646e+03
2.172419e+03,4.726475e+03
2.175312e+03,4.735146e+03
2.178205e+03,4.701649e+03
2.181098e+03,4.705526e+03
2.183990e+03,4.663279e+03
2.186883e+03,4.694276e+03
2.189776e+03,4.690887e+03
2.192668e+03,4.665710e+03
2.195561e+03,4.648518e+03
2.198454e+03,4.649435e+03
2.201346e+03,4.644612e+03
2.204239e+03,4.640937e+03
2.207132e+03,4.640444e+03
2.210024e+03,4.572600e+03
2.212917e+03,4.545421e+03
2.215810e+03,4.584455e+03
2.218703e+03,4.581998e+03
2.221595e+03,4.538433e+03
2.224488e+03,4.519015e+03
2.227381e+03,4.486677e+03
2.230273e+03,4.501383e+03
2.233166e+03,4.486373e+03
2.236059e+03,4.504820e+03
2.238952e+03,4.464720e+03
2.241844e+03,4.448924e+03
2.244737e+03,4.404936e+03
2.247630e+03,4.411823e+03
2.250522e+03,4.404915e+03
2.253415e+03,4.447614e+03
2.256308e+03,4.380878e+03
2.259200e+03,4.363174e+03
2.262093e+03,4.400194e+03
2.264986e+03,4.388459e+03
2.267879e+03,4.397174e+03
2.270771e+03,4.365709e+03
2.273664e+03,4.328500e+03
2.276557e+03,4.351525e+03
2.279449e+03,4.307300e+03
2.282342e+03,4.303939e+03
2.285235e+03,4.258006e+03
2.288127e+03,4.273295e+03
2.291020e+03,4.228768e+03
2.293913e+03,4.271420e+03
2.296805e+03,4.268234e+03
2.299698e+03,4.256835e+03
2.302591e+03,4.221205e+03
2.305484e+03,4.205475e+03
2.308376e+03,4.198335e+03
2.311269e+03,4.177810e+03
2.314162e+03,4.169866e+03
2.317054e+03,4.170870e+03
2.319947e+03,4.171690e+03
2.322840e+03,4.135237e+03
2.325733e+03,4.155574e+03
2.328625e+03,4.117053e+03
2.331518e+03,4.104182e+03
2.334411e+03,4.071654e+03
2.337303e+03,4.088778e+03
2.340196e+03,4.061582e+03
2.343089e+03,4.101004e+03
2.345981e+03,4.095831e+03
2.348874e+03,4.039551e+03
2.351767e+03,4.032981e+03
2.354659e+03,4.041614e+03
2.357552e+03,4.050492e+03
2.360445e+03,4.006435e+03
2.363338e+03,4.021407e+03
2.366230e+03,3.978719e+03
2.369123e+03,3.998735e+03
2.372016e+03,3.967859e+03
2.374908e+03,3.956355e+03
2.377801e+03,3.963835e+03
2.380694e+03,3.926016e+03
2.383587e+03,3.914429e+03
2.386479e+03,3.932243e+03
2.389372e+03,3.910042e+03
2.392265e+03,3.937942e+03
2.395157e+03,3.873760e+03
2.398050e+03,3.902563e+03
2.400943e+03,3.888699e+03
2.403835e+03,3.865767e+03
2.406728e+03,3.875175e+03
2.409621e+03,3.858278e+03
2.412513e+03,3.852938e+03
2.415406e+03,3.833449e+03
2.418299e+03,3.818757e+03
2.421192e+03,3.823421e+03
2.424084e+03,3.840035e+03
2.426977e+03,3.819666e+03
2.429870e+03,3.790101e+03
2.432762e+03,3.795661e+03
2.435655e+03,3.788015e+03
2.438548e+03,3.776150e+03
2.441441e+03,3.729719e+03
2.444333e+03,3.757431e+03
2.447226e+03,3.719774e+03
2.450119e+03,3.753268e+03
2.453011e+03,3.711675e+03
2.455904e+03,3.704059e+03
2.458797e+03,3.705267e+03
2.461689e+03,3.685396e+03
2.464582e+03,3.695722e+03
2.467475e+03,3.696842e+03
2.470367e+03,3.667095e+03
2.473260e+03,3.664306e+03
2.476153e+03,3.662256e+03
2.479046e+03,3.677454e+03
2.481938e+03,3.665648e+03
2.484831e+03,3.635219e+03
2.487724e+03,3.649332e+03
2.490616e+03,3.612998e+03
2.493509e+03,3.609906e+03
2.496402e+03,3.610778e+03
2.499295e+03,3.614820e+03
2.502187e+03,3.604379e+03
2.505080e+03,3.614604e+03
2.507973e+03,3.575666e+03
2.510865e+03,3.542505e+03
2.513758e+03,3.556290e+03
2.516651e+03,3.550696e+03
2.519543e+03,3.554311e+03
2.522436e+03,3.543206e+03
2.525329e+03,3.533218e+03
2.528221e+03,3.545592e+03
2.531114e+03,3.496407e+03
2.534007e+03,3.547831e+03
2.536900e+03,3.490219e+03
2.539792e+03,3.493585e+03
2.542685e+03,3.486873e+03
2.545578e+03,3.481715e+03
2.548470e+03,3.480542e+03
2.551363e+03,3.504406e+03
2.554256e+03,3.457080e+03
2.557149e+03,3.448216e+03
2.560041e+03,3.463195e+03
2.562934e+03,3.477985e+03
2.565827e+03,3.461147e+03
2.568719e+03,3.469263e+03
2.571612e+03,3.426558e+03
2.574505e+03,3.422202e+03
2.577397e+03,3.386269e+03
2.580290e+03,3.430858e+03
2.583183e+03,3.399173e+03
2.586075e+03,3.394427e+03
2.588968e+03,3.393329e+03
2.591861e+03,3.395186e+03
2.594754e+03,3.387685e+03
2.597646e+03,3.369094e+03
2.600539e+03,3.392385e+03
2.603432e+03,3.361710e+03
2.606324e+03,3.365211e+03
2.609217e+03,3.343141e+03
2.612110e+03,3.340177e+03
2.615003e+03,3.354138e+03
2.617895e+03,3.302140e+03
2.620788e+03,3.343481e+03
2.623681e+03,3.322486e+03
2.626573e+03,3.295629e+03
2.629466e+03,3.317861e+03
2.632359e+03,3.344949e+03
2.635251e+03,3.293755e+03
2.638144e+03,3.336493e+03
2.641037e+03,3.270982e+03
2.643929e+03,3.292321e+03
2.646822e+03,3.282319e+03
2.649715e+03,3.291042e+03
2.652608e+03,3.274453e+03
2.655500e+03,3.307967e+03
2.658393e+03,3.296663e+03
2.661286e+03,3.279036e+03
2.664178e+03,3.276194e+03
2.667071e+03,3.275116e+03
2.669964e+03,3.271377e+03
2.672857e+03,3.247612e+03
2.675749e+03,3.261395e+03
2.678642e+03,3.218627e+03
2.681535e+03,3.243448e+03
2.684427e+03,3.243076e+03
2.687320e+03,3.215448e+03
2.690213e+03,3.216183e+03
2.693105e+03,3.201341e+03
2.695998e+03,3.190222e+03
2.698891e+03,3.214456e+03
2.701783e+03,3.218224e+03
2.704676e+03,3.178343e+03
2.707569e+03,3.183086e+03
2.710462e+03,3.210747e+03
2.713354e+03,3.204089e+03
2.716247e+03,3.182741e+03
2.719140e+03,3.196237e+03
2.722032e+03,3.172449e+03
2.724925e+03,3.161248e+03
2.727818e+03,3.134759e+03
2.730711e+03,3.159833e+03
2.733603e+03,3.172441e+03
2.736496e+03,3.171196e+03
2.739389e+03,3.174258e+03
2.742281e+03,3.163146e+03
2.745174e+03,3.171909e+03
2.748067e+03,3.142191e+03
2.750959e+03,3.139177e+03
2.753852e+03,3.101856e+03
2.756745e+03,3.114808e+03
2.759637e+03,3.128313e+03
2.762530e+03,3.153893e+03
2.765423e+03,3.147044e+03
2.768316e+03,3.091036e+03
2.771208e+03,3.108788e+03
2.774101e+03,3.141787e+03
2.776994e+03,3.142695e+03
2.779886e+03,3.094643e+03
2.782779e+03,3.123625e+03
2.785672e+03,3.152310e+03
2.788565e+03,3.114812e+03
2.791457e+03,3.148063e+03
2.794350e+03,3.099161e+03
2.797243e+03,3.129844e+03
2.800135e+03,3.111730e+03
2.803028e+03,3.090437e+03
2.805921e+03,3.129371e+03
2.808813e+03,3.113586e+03
2.811706e+03,3.111772e+03
2.814599e+03,3.129044e+03
2.817491e+03,3.106862e+03
2.820384e+03,3.134493e+03
2.823277e+03,3.107903e+03
2.826170e+03,3.104776e+03
2.829062e+03,3.107879e+03
2.831955e+03,3.082250e+03
2.834848e+03,3.127161e+03
2.837740e+03,3.112813e+03
2.840633e+03,3.100632e+03
2.843526e+03,3.142714e+03
2.846419e+03,3.136957e+03
2.849311e+03,3.150769e+03
2.852204e+03,3.178163e+03
2.855097e+03,3.138848e+03
2.857990e+03,3.173370e+03
2.860882e+03,3.172454e+03
2.863775e+03,3.144828e+03
2.866667e+03,3.145549e+03
2.869560e+03,3.138075e+03
2.872453e+03,3.144961e+03
2.875345e+03,3.131387e+03
2.878238e+03,3.138100e+03
2.881131e+03,3.179282e+03
2.884024e+03,3.098213e+03
2.886916e+03,3.110312e+03
2.889809e+03,3.169996e+03
2.892702e+03,3.128671e+03
2.895594e+03,3.145551e+03
2.898487e+03,3.169049e+03
2.901380e+03,3.177212e+03
2.904273e+03,3.199243e+03
2.907165e+03,3.166329e+03
2.910058e+03,3.115671e+03
2.912951e+03,3.129101e+03
2.915844e+03,3.158954e+03
2.918736e+03,3.158393e+03
2.921629e+03,3.190172e+03
2.924521e+03,3.138831e+03
2.927414e+03,3.214054e+03
2.930307e+03,3.136920e+03
2.933199e+03,3.211971e+03
2.936092e+03,3.181875e+03
2.938985e+03,3.149473e+03
2.941878e+03,3.156118e+03
2.944770e+03,3.204684e+03
2.947663e+03,3.219404e+03
2.950556e+03,3.216727e+03
2.953448e+03,3.218296e+03
2.956341e+03,3.203668e+03
2.959234e+03,3.242273e+03
2.962127e+03,3.208895e+03
2.965019e+03,3.209147e+03
2.967912e+03,3.239347e+03
2.970805e+03,3.206251e+03
2.973698e+03,3.217581e+03
2.976590e+03,3.222990e+03
2.979483e+03,3.261223e+03
2.982375e+03,3.233735e+03
2.985268e+03,3.249692e+03
2.988161e+03,3.294020e+03
2.991053e+03,3.257235e+03
2.993946e+03,3.282347e+03
2.996839e+03,3.316021e+03
2.999732e+03,3.260042e+03
3.002624e+03,3.263284e+03
3.005517e+03,3.270798e+03
3.008410e+03,3.268080e+03
3.011302e+03,3.341214e+03
3.014195e+03,3.296347e+03
3.017088e+03,3.328442e+03
3.019981e+03,3.354001e+03
3.022873e+03,3.315607e+03
3.025766e+03,3.338805e+03
3.028659e+03,3.310649e+03
3.031552e+03,3.416906e+03
3.034444e+03,3.404967e+03
3.037337e+03,3.358933e+03
3.040229e+03,3.380555e+03
3.043122e+03,3.452588e+03
3.046015e+03,3.401425e+03
3.048907e+03,3.416580e+03
3.051800e+03,3.457823e+03
3.054693e+03,3.438102e+03
3.057586e+03,3.451836e+03
3.060478e+03,3.519863e+03
3.063371e+03,3.461502e+03
3.066264e+03,3.443693e+03
3.069156e+03,3.467606e+03
3.072049e+03,3.427093e+03
3.074942e+03,3.514401e+03
3.077835e+03,3.452076e+03
3.080727e+03,3.535410e+03
3.083620e+03,3.492679e+03
3.086513e+03,3.555359e+03
3.089406e+03,3.603584e+03
3.092298e+03,3.517124e+03
3.095191e+03,3.519523e+03
3.098083e+03,3.534403e+03
3.100976e+03,3.544067e+03
3.103869e+03,3.537678e+03
3.106761e+03,3.582800e+03
3.109654e+03,3.613580e+03
3.112547e+03,3.489685e+03
3.115440e+03,3.582175e+03
3.118332e+03,3.568407e+03
3.121225e+03,3.621418e+03
3.124118e+03,3.573905e+03
3.127010e+03,3.669640e+03
3.129903e+03,3.562896e+03
3.132796e+03,3.708490e+03
3.135689e+03,3.657640e+03
3.138581e+03,3.682731e+03
3.141474e+03,3.680605e+03
3.144367e+03,3.665767e+03
3.147260e+03,3.664177e+03
3.150152e+03,3.764237e+03
3.153045e+03,3.692496e+03
3.155938e+03,3.750239e+03
3.158830e+03,3.702656e+03
3.161723e+03,3.722887e+03
3.164615e+03,3.710481e+03
3.167508e+03,3.701200e+03
3.170401e+03,3.787067e+03
3.173294e+03,3.863913e+03
3.176186e+03,3.739402e+03
3.179079e+03,3.809504e+03
3.181972e+03,3.841804e+03
3.184865e+03,3.825729e+03
3.187757e+03,3.854847e+03
3.190650e+03,3.815050e+03
3.193543e+03,3.879458e+03
3.196435e+03,3.895276e+03
3.199328e+03,3.903286e+03
3.200292e+03,3.923862e+03