File: RAMAN_data/20012023_r1/blue fibre14.CSV
1.995979e+02,3.251837e+03
2.024906e+02,3.254203e+03
2.053833e+02,3.261593e+03
2.082760e+02,3.258805e+03
2.111687e+02,3.245932e+03
2.140614e+02,3.254384e+03
2.169541e+02,3.278169e+03
2.198468e+02,3.268003e+03
2.227395e+02,3.275912e+03
2.256322e+02,3.271213e+03
2.285249e+02,3.257664e+03
2.314176e+02,3.280384e+03
2.343103e+02,3.284287e+03
2.372030e+02,3.291406e+03
2.400957e+02,3.277019e+03
2.429884e+02,3.267767e+03
2.458811e+02,3.280860e+03
2.487738e+02,3.295198e+03
2.516665e+02,3.295194e+03
2.545592e+02,3.292438e+03
2.574519e+02,3.293048e+03
2.603446e+02,3.302243e+03
2.632373e+02,3.307830e+03
2.661300e+02,3.300662e+03
2.690227e+02,3.317600e+03
2.719154e+02,3.318659e+03
2.748081e+02,3.316239e+03
2.777008e+02,3.322362e+03
2.805935e+02,3.329464e+03
2.834862e+02,3.337759e+03
2.863789e+02,3.325653e+03
2.892716e+02,3.306177e+03
2.921643e+02,3.311757e+03
2.950570e+02,3.313965e+03
2.979497e+02,3.319160e+03
3.008424e+02,3.322512e+03
3.037351e+02,3.324433e+03
3.066278e+02,3.305873e+03
3.095205e+02,3.325845e+03
3.124132e+02,3.322936e+03
3.153059e+02,3.312572e+03
3.181986e+02,3.326692e+03
3.210913e+02,3.315823e+03
3.239840e+02,3.324084e+03
3.268767e+02,3.329052e+03
3.297694e+02,3.321478e+03
3.326621e+02,3.326368e+03
3.355548e+02,3.315850e+03
3.384475e+02,3.314642e+03
3.413402e+02,3.319692e+03
3.442329e+02,3.337507e+03
3.471256e+02,3.334931e+03
3.500183e+02,3.313789e+03
3.529110e+02,3.319829e+03
3.558037e+02,3.324693e+03
3.586964e+02,3.338625e+03
3.615891e+02,3.330872e+03
3.644818e+02,3.321104e+03
3.673745e+02,3.331768e+03
3.702672e+02,3.338751e+03
3.731599e+02,3.366564e+03
3.760526e+02,3.368687e+03
3.789453e+02,3.353661e+03
3.818380e+02,3.321265e+03
3.847307e+02,3.319891e+03
3.876234e+02,3.317508e+03
3.905161e+02,3.323985e+03
3.934088e+02,3.320392e+03
3.963015e+02,3.312589e+03
3.991942e+02,3.313151e+03
4.020869e+02,3.314313e+03
4.049796e+02,3.309114e+03
4.078723e+02,3.317794e+03
4.107650e+02,3.319789e+03
4.136577e+02,3.322819e+03
4.165504e+02,3.312723e+03
4.194431e+02,3.309843e+03
4.223358e+02,3.311468e+03
4.252285e+02,3.300594e+03
4.281212e+02,3.302510e+03
4.310139e+02,3.307969e+03
4.339066e+02,3.326224e+03
4.367993e+02,3.312531e+03
4.396920e+02,3.290404e+03
4.425847e+02,3.296771e+03
4.454774e+02,3.292441e+03
4.483701e+02,3.299365e+03
4.512628e+02,3.301638e+03
4.541555e+02,3.313612e+03
4.570482e+02,3.284907e+03
4.599409e+02,3.280275e+03
4.628336e+02,3.285682e+03
4.657263e+02,3.286061e+03
4.686190e+02,3.272140e+03
4.715117e+02,3.277885e+03
4.744044e+02,3.275919e+03
4.772971e+02,3.266961e+03
4.801898e+02,3.271010e+03
4.830825e+02,3.272380e+03
4.859752e+02,3.269578e+03
4.888679e+02,3.258033e+03
4.917606e+02,3.259831e+03
4.946533e+02,3.273695e+03
4.975460e+02,3.263857e+03
5.004387e+02,3.281989e+03
5.033314e+02,3.233700e+03
5.062241e+02,3.253454e+03
5.091168e+02,3.261552e+03
5.120095e+02,3.243845e+03
5.149022e+02,3.239352e+03
5.177949e+02,3.250320e+03
5.206876e+02,3.227387e+03
5.235803e+02,3.254757e+03
5.264730e+02,3.230185e+03
5.293657e+02,3.222946e+03
5.322584e+02,3.218631e+03
5.351511e+02,3.215246e+03
5.380438e+02,3.209619e+03
5.409365e+02,3.196992e+03
5.438292e+02,3.207743e+03
5.467219e+02,3.215859e+03
5.496146e+02,3.195377e+03
5.525073e+02,3.211348e+03
5.554000e+02,3.197171e+03
5.582927e+02,3.179107e+03
5.611854e+02,3.180430e+03
5.640781e+02,3.180272e+03
5.669708e+02,3.185232e+03
5.698635e+02,3.173625e+03
5.727562e+02,3.180165e+03
5.756489e+02,3.178115e+03
5.785416e+02,3.175789e+03
5.814343e+02,3.167938e+03
5.843270e+02,3.138630e+03
5.872197e+02,3.159025e+03
5.901124e+02,3.184033e+03
5.930051e+02,3.160356e+03
5.958978e+02,3.156862e+03
5.987905e+02,3.142632e+03
6.016832e+02,3.138272e+03
6.045759e+02,3.154132e+03
6.074686e+02,3.152717e+03
6.103613e+02,3.137151e+03
6.132540e+02,3.130114e+03
6.161467e+02,3.131998e+03
6.190394e+02,3.126995e+03
6.219321e+02,3.108888e+03
6.248248e+02,3.116753e+03
6.277175e+02,3.098707e+03
6.306102e+02,3.103730e+03
6.335029e+02,3.097220e+03
6.363956e+02,3.093288e+03
6.392883e+02,3.083997e+03
6.421810e+02,3.085112e+03
6.450737e+02,3.102796e+03
6.479664e+02,3.090411e+03
6.508591e+02,3.079829e+03
6.537518e+02,3.079232e+03
6.566445e+02,3.064793e+03
6.595372e+02,3.068705e+03
6.624299e+02,3.040747e+03
6.653226e+02,3.040677e+03
6.682153e+02,3.079221e+03
6.711080e+02,3.058260e+03
6.740007e+02,3.048035e+03
6.768934e+02,3.034509e+03
6.797861e+02,3.035745e+03
6.826788e+02,3.024955e+03
6.855715e+02,3.030059e+03
6.884642e+02,3.029990e+03
6.913569e+02,3.014529e+03
6.942496e+02,3.025044e+03
6.971423e+02,3.003910e+03
7.000350e+02,2.989902e+03
7.029277e+02,2.994340e+03
7.058204e+02,3.017752e+03
7.087131e+02,2.990706e+03
7.116058e+02,2.999359e+03
7.144985e+02,2.989151e+03
7.173912e+02,2.982548e+03
7.202839e+02,2.963181e+03
7.231766e+02,2.977843e+03
7.260693e+02,2.959270e+03
7.289620e+02,2.966815e+03
7.318547e+02,2.956398e+03
7.347474e+02,2.952452e+03
7.376401e+02,2.934591e+03
7.405328e+02,2.954941e+03
7.434255e+02,2.949363e+03
7.463182e+02,2.937736e+03
7.492109e+02,2.938159e+03
7.521036e+02,2.926582e+03
7.549963e+02,2.934749e+03
7.578890e+02,2.911487e+03
7.607817e+02,2.921540e+03
7.636744e+02,2.918685e+03
7.665671e+02,2.900884e+03
7.694598e+02,2.900819e+03
7.723525e+02,2.891707e+03
7.752452e+02,2.899161e+03
7.781379e+02,2.887019e+03
7.810306e+02,2.885201e+03
7.839233e+02,2.882863e+03
7.868160e+02,2.877417e+03
7.897087e+02,2.879187e+03
7.926014e+02,2.870871e+03
7.954941e+02,2.868211e+03
7.983868e+02,2.863199e+03
8.012795e+02,2.864883e+03
8.041722e+02,2.844542e+03
8.070649e+02,2.848185e+03
8.099576e+02,2.837590e+03
8.128503e+02,2.840718e+03
8.157430e+02,2.838220e+03
8.186357e+02,2.841947e+03
8.215284e+02,2.840088e+03
8.244211e+02,2.833818e+03
8.273138e+02,2.831632e+03
8.302065e+02,2.813250e+03
8.330992e+02,2.814220e+03
8.359919e+02,2.818271e+03
8.388846e+02,2.822121e+03
8.417773e+02,2.798292e+03
8.446700e+02,2.792206e+03
8.475627e+02,2.784363e+03
8.504554e+02,2.797000e+03
8.533481e+02,2.783246e+03
8.562408e+02,2.778136e+03
8.591335e+02,2.780259e+03
8.620262e+02,2.765358e+03
8.649189e+02,2.757834e+03
8.678116e+02,2.763288e+03
8.707043e+02,2.763085e+03
8.735970e+02,2.751993e+03
8.764897e+02,2.772246e+03
8.793824e+02,2.759634e+03
8.822751e+02,2.751378e+03
8.851678e+02,2.751273e+03
8.880605e+02,2.754236e+03
8.909532e+02,2.732286e+03
8.938459e+02,2.737476e+03
8.967386e+02,2.737414e+03
8.996313e+02,2.731062e+03
9.025240e+02,2.708343e+03
9.054167e+02,2.713388e+03
9.083094e+02,2.698556e+03
9.112021e+02,2.703005e+03
9.140948e+02,2.682444e+03
9.169875e+02,2.691956e+03
9.198802e+02,2.677384e+03
9.227729e+02,2.678286e+03
9.256656e+02,2.674425e+03
9.285583e+02,2.671346e+03
9.314510e+02,2.660935e+03
9.343438e+02,2.659502e+03
9.372365e+02,2.658647e+03
9.401292e+02,2.659879e+03
9.430219e+02,2.640745e+03
9.459146e+02,2.640871e+03
9.488073e+02,2.634606e+03
9.517000e+02,2.628913e+03
9.545927e+02,2.623452e+03
9.574854e+02,2.625344e+03
9.603781e+02,2.607176e+03
9.632708e+02,2.603680e+03
9.661635e+02,2.609100e+03
9.690562e+02,2.604219e+03
9.719489e+02,2.586706e+03
9.748416e+02,2.589875e+03
9.777343e+02,2.600450e+03
9.806270e+02,2.588338e+03
9.835197e+02,2.592382e+03
9.864124e+02,2.580256e+03
9.893051e+02,2.573141e+03
9.921978e+02,2.578503e+03
9.950905e+02,2.581634e+03
9.979832e+02,2.581228e+03
1.000876e+03,2.571651e+03
1.003769e+03,2.550540e+03
1.006661e+03,2.553167e+03
1.009554e+03,2.557202e+03
1.012447e+03,2.541447e+03
1.015339e+03,2.527390e+03
1.018232e+03,2.513366e+03
1.021125e+03,2.536115e+03
1.024017e+03,2.534350e+03
1.026910e+03,2.517726e+03
1.029803e+03,2.527194e+03
1.032696e+03,2.529974e+03
1.035588e+03,2.516633e+03
1.038481e+03,2.510622e+03
1.041374e+03,2.524855e+03
1.044266e+03,2.499309e+03
1.047159e+03,2.503518e+03
1.050052e+03,2.506829e+03
1.052944e+03,2.503796e+03
1.055837e+03,2.502135e+03
1.058730e+03,2.479510e+03
1.061623e+03,2.477918e+03
1.064515e+03,2.473345e+03
1.067408e+03,2.477031e+03
1.070301e+03,2.478833e+03
1.073193e+03,2.470144e+03
1.076086e+03,2.467727e+03
1.078979e+03,2.468764e+03
1.081871e+03,2.461831e+03
1.084764e+03,2.476910e+03
1.087657e+03,2.492723e+03
1.090550e+03,2.487657e+03
1.093442e+03,2.481613e+03
1.096335e+03,2.477102e+03
1.099228e+03,2.464570e+03
1.102120e+03,2.450632e+03
1.105013e+03,2.450237e+03
1.107906e+03,2.432156e+03
1.110798e+03,2.436709e+03
1.113691e+03,2.448321e+03
1.116584e+03,2.449125e+03
1.119477e+03,2.457206e+03
1.122369e+03,2.451175e+03
1.125262e+03,2.432053e+03
1.128155e+03,2.434522e+03
1.131047e+03,2.450019e+03
1.133940e+03,2.443732e+03
1.136833e+03,2.414798e+03
1.139725e+03,2.416906e+03
1.142618e+03,2.409312e+03
1.145511e+03,2.400011e+03
1.148404e+03,2.392465e+03
1.151296e+03,2.388813e+03
1.154189e+03,2.389860e+03
1.157082e+03,2.382477e+03
1.159974e+03,2.371153e+03
1.162867e+03,2.378574e+03
1.165760e+03,2.379856e+03
1.168652e+03,2.369205e+03
1.171545e+03,2.350095e+03
1.174438e+03,2.345866e+03
1.177331e+03,2.350008e+03
1.180223e+03,2.349797e+03
1.183116e+03,2.345858e+03
1.186009e+03,2.321872e+03
1.188901e+03,2.332587e+03
1.191794e+03,2.324893e+03
1.194687e+03,2.323153e+03
1.197579e+03,2.336480e+03
1.200472e+03,2.335999e+03
1.203365e+03,2.330949e+03
1.206258e+03,2.321707e+03
1.209150e+03,2.341036e+03
1.212043e+03,2.333215e+03
1.214936e+03,2.322104e+03
1.217828e+03,2.323224e+03
1.220721e+03,2.304659e+03
1.223614e+03,2.293041e+03
1.226506e+03,2.292690e+03
1.229399e+03,2.306650e+03
1.232292e+03,2.286106e+03
1.235185e+03,2.285278e+03
1.238077e+03,2.302196e+03
1.240970e+03,2.300156e+03
1.243863e+03,2.292245e+03
1.246755e+03,2.292260e+03
1.249648e+03,2.293952e+03
1.252541e+03,2.277987e+03
1.255433e+03,2.287991e+03
1.258326e+03,2.274244e+03
1.261219e+03,2.254418e+03
1.264112e+03,2.254317e+03
1.267004e+03,2.254318e+03
1.269897e+03,2.256649e+03
1.272790e+03,2.281163e+03
1.275682e+03,2.259207e+03
1.278575e+03,2.246827e+03
1.281468e+03,2.246595e+03
1.284360e+03,2.235935e+03
1.287253e+03,2.232015e+03
1.290146e+03,2.239600e+03
1.293039e+03,2.234199e+03
1.295931e+03,2.229112e+03
1.298824e+03,2.222446e+03
1.301717e+03,2.207692e+03
1.304609e+03,2.227476e+03
1.307502e+03,2.208421e+03
1.310395e+03,2.208780e+03
1.313287e+03,2.218300e+03
1.316180e+03,2.202381e+03
1.319073e+03,2.199370e+03
1.321966e+03,2.193477e+03
1.324858e+03,2.201537e+03
1.327751e+03,2.195293e+03
1.330644e+03,2.200629e+03
1.333536e+03,2.210721e+03
1.336429e+03,2.206996e+03
1.339322e+03,2.190897e+03
1.342214e+03,2.195753e+03
1.345107e+03,2.189197e+03
1.348000e+03,2.189880e+03
1.350893e+03,2.188198e+03
1.353785e+03,2.161058e+03
1.356678e+03,2.178393e+03
1.359571e+03,2.180986e+03
1.362463e+03,2.161161e+03
1.365356e+03,2.164892e+03
1.368249e+03,2.167734e+03
1.371141e+03,2.156091e+03
1.374034e+03,2.149987e+03
1.376927e+03,2.146724e+03
1.379820e+03,2.142561e+03
1.382712e+03,2.127795e+03
1.385605e+03,2.118958e+03
1.388498e+03,2.103964e+03
1.391390e+03,2.105718e+03
1.394283e+03,2.087130e+03
1.397176e+03,2.088317e+03
1.400068e+03,2.106850e+03
1.402961e+03,2.091866e+03
1.405854e+03,2.091194e+03
1.408747e+03,2.090933e+03
1.411639e+03,2.091639e+03
1.414532e+03,2.077153e+03
1.417425e+03,2.087614e+03
1.420317e+03,2.072950e+03
1.423210e+03,2.066520e+03
1.426103e+03,2.073940e+03
1.428995e+03,2.058349e+03
1.431888e+03,2.057647e+03
1.434781e+03,2.041758e+03
1.437674e+03,2.044334e+03
1.440566e+03,2.042361e+03
1.443459e+03,2.037733e+03
1.446352e+03,2.041559e+03
1.449244e+03,2.029230e+03
1.452137e+03,2.020308e+03
1.455030e+03,2.019492e+03
1.457922e+03,2.017055e+03
1.460815e+03,2.024732e+03
1.463708e+03,2.016741e+03
1.466601e+03,2.007672e+03
1.469493e+03,2.004970e+03
1.472386e+03,1.991805e+03
1.475279e+03,2.007810e+03
1.478171e+03,2.001789e+03
1.481064e+03,1.997820e+03
1.483957e+03,1.985212e+03
1.486849e+03,1.997073e+03
1.489742e+03,1.979449e+03
1.492635e+03,1.971866e+03
1.495528e+03,1.982445e+03
1.498420e+03,1.965238e+03
1.501313e+03,1.960489e+03
1.504206e+03,1.961734e+03
1.507098e+03,1.961329e+03
1.509991e+03,1.967814e+03
1.512884e+03,1.939655e+03
1.515776e+03,1.939907e+03
1.518669e+03,1.942994e+03
1.521562e+03,1.942853e+03
1.524455e+03,1.930871e+03
1.527347e+03,1.921451e+03
1.530240e+03,1.941339e+03
1.533133e+03,1.946381e+03
1.536025e+03,1.925396e+03
1.538918e+03,1.926570e+03
1.541811e+03,1.916352e+03
1.544703e+03,1.915572e+03
1.547596e+03,1.911815e+03
1.550489e+03,1.926741e+03
1.553382e+03,1.915012e+03
1.556274e+03,1.924729e+03
1.559167e+03,1.925033e+03
1.562060e+03,1.923616e+03
1.564952e+03,1.895814e+03
1.567845e+03,1.926864e+03
1.570738e+03,1.910759e+03
1.573630e+03,1.907972e+03
1.576523e+03,1.905071e+03
1.579416e+03,1.905793e+03
1.582309e+03,1.888448e+03
1.585201e+03,1.885614e+03
1.588094e+03,1.874790e+03
1.590987e+03,1.878432e+03
1.593879e+03,1.863696e+03
1.596772e+03,1.874360e+03
1.599665e+03,1.855177e+03
1.602557e+03,1.869538e+03
1.605450e+03,1.855340e+03
1.608343e+03,1.856557e+03
1.611236e+03,1.861158e+03
1.614128e+03,1.843571e+03
1.617021e+03,1.848378e+03
1.619914e+03,1.848956e+03
1.622806e+03,1.821402e+03
1.625699e+03,1.821450e+03
1.628592e+03,1.823717e+03
1.631484e+03,1.815455e+03
1.634377e+03,1.814347e+03
1.637270e+03,1.805826e+03
1.640163e+03,1.813386e+03
1.643055e+03,1.804727e+03
1.645948e+03,1.808929e+03
1.648841e+03,1.800974e+03
1.651733e+03,1.806004e+03
1.654626e+03,1.775123e+03
1.657519e+03,1.778834e+03
1.660411e+03,1.786234e+03
1.663304e+03,1.776045e+03
1.666197e+03,1.789568e+03
1.669090e+03,1.765508e+03
1.671982e+03,1.764347e+03
1.674875e+03,1.761495e+03
1.677768e+03,1.769795e+03
1.680660e+03,1.765108e+03
1.683553e+03,1.761153e+03
1.686446e+03,1.746123e+03
1.689339e+03,1.731824e+03
1.692231e+03,1.730419e+03
1.695124e+03,1.745423e+03
1.698017e+03,1.746633e+03
1.700909e+03,1.725934e+03
1.703802e+03,1.724964e+03
1.706695e+03,1.726382e+03
1.709587e+03,1.727962e+03
1.712480e+03,1.724190e+03
1.715373e+03,1.717484e+03
1.718266e+03,1.704099e+03
1.721158e+03,1.711784e+03
1.724051e+03,1.701742e+03
1.726944e+03,1.704840e+03
1.729836e+03,1.694569e+03
1.732729e+03,1.691835e+03
1.735622e+03,1.695307e+03
1.738514e+03,1.676225e+03
1.741407e+03,1.692057e+03
1.744300e+03,1.691930e+03
1.747193e+03,1.672373e+03
1.750085e+03,1.660409e+03
1.752978e+03,1.662470e+03
1.755871e+03,1.666186e+03
1.758763e+03,1.664122e+03
1.761656e+03,1.648708e+03
1.764549e+03,1.646968e+03
1.767441e+03,1.655381e+03
1.770334e+03,1.654621e+03
1.773227e+03,1.633026e+03
1.776120e+03,1.640061e+03
1.779012e+03,1.613363e+03
1.781905e+03,1.632401e+03
1.784798e+03,1.624631e+03
1.787690e+03,1.625435e+03
1.790583e+03,1.610643e+03
1.793476e+03,1.610177e+03
1.796368e+03,1.621098e+03
1.799261e+03,1.599460e+03
1.802154e+03,1.623957e+03
1.805047e+03,1.602412e+03
1.807939e+03,1.599647e+03
1.810832e+03,1.604137e+03
1.813725e+03,1.593902e+03
1.816617e+03,1.591461e+03
1.819510e+03,1.580852e+03
1.822403e+03,1.569073e+03
1.825295e+03,1.570192e+03
1.828188e+03,1.573292e+03
1.831081e+03,1.555807e+03
1.833974e+03,1.553074e+03
1.836866e+03,1.574415e+03
1.839759e+03,1.552942e+03
1.842652e+03,1.564170e+03
1.845544e+03,1.551169e+03
1.848437e+03,1.537793e+03
1.851330e+03,1.538640e+03
1.854222e+03,1.539528e+03
1.857115e+03,1.532407e+03
1.860008e+03,1.543967e+03
1.862901e+03,1.525622e+03
1.865793e+03,1.528854e+03
1.868686e+03,1.525988e+03
1.871579e+03,1.507780e+03
1.874471e+03,1.514645e+03
1.877364e+03,1.521118e+03
1.880257e+03,1.495137e+03
1.883149e+03,1.494237e+03
1.886042e+03,1.484046e+03
1.888935e+03,1.484399e+03
1.891828e+03,1.496570e+03
1.894720e+03,1.474900e+03
1.897613e+03,1.477560e+03
1.900506e+03,1.469756e+03
1.903398e+03,1.475326e+03
1.906291e+03,1.477541e+03
1.909184e+03,1.467875e+03
1.912076e+03,1.470217e+03
1.914969e+03,1.442794e+03
1.917862e+03,1.455441e+03
1.920755e+03,1.457113e+03
1.923647e+03,1.449248e+03
1.926540e+03,1.449481e+03
1.929433e+03,1.440067e+03
1.932325e+03,1.435662e+03
1.935218e+03,1.422042e+03
1.938111e+03,1.436424e+03
1.941003e+03,1.423744e+03
1.943896e+03,1.406305e+03
1.946789e+03,1.429957e+03
1.949682e+03,1.413335e+03
1.952574e+03,1.421045e+03
1.955467e+03,1.410138e+03
1.958360e+03,1.400831e+03
1.961252e+03,1.400046e+03
1.964145e+03,1.380973e+03
1.967038e+03,1.390723e+03
1.969930e+03,1.381120e+03
1.972823e+03,1.380820e+03
1.975716e+03,1.377980e+03
1.978609e+03,1.376862e+03
1.981501e+03,1.382208e+03
1.984394e+03,1.370034e+03
1.987287e+03,1.374979e+03
1.990179e+03,1.370182e+03
1.993072e+03,1.348848e+03
1.995965e+03,1.356394e+03
1.998857e+03,1.345000e+03
2.001750e+03,1.339651e+03
2.004643e+03,1.336131e+03
2.007536e+03,1.348349e+03
2.010428e+03,1.348254e+03
2.013321e+03,1.341083e+03
2.016214e+03,1.322134e+03
2.019106e+03,1.315873e+03
2.021999e+03,1.322041e+03
2.024892e+03,1.315220e+03
2.027784e+03,1.319398e+03
2.030677e+03,1.310920e+03
2.033570e+03,1.315258e+03
2.036463e+03,1.293015e+03
2.039355e+03,1.304042e+03
2.042248e+03,1.305999e+03
2.045141e+03,1.284378e+03
2.048033e+03,1.294229e+03
2.050926e+03,1.284475e+03
2.053819e+03,1.275916e+03
2.056711e+03,1.263055e+03
2.059604e+03,1.273826e+03
2.062497e+03,1.281944e+03
2.065390e+03,1.267656e+03
2.068282e+03,1.265855e+03
2.071175e+03,1.259054e+03
2.074068e+03,1.246639e+03
2.076960e+03,1.254075e+03
2.079853e+03,1.249757e+03
2.082746e+03,1.255286e+03
2.085638e+03,1.238893e+03
2.088531e+03,1.240750e+03
2.091424e+03,1.226821e+03
2.094316e+03,1.230482e+03
2.097209e+03,1.236271e+03
2.100102e+03,1.242798e+03
2.102995e+03,1.218013e+03
2.105887e+03,1.207381e+03
2.108780e+03,1.230189e+03
2.111673e+03,1.208209e+03
2.114565e+03,1.200483e+03
2.117458e+03,1.193242e+03
2.120351e+03,1.209914e+03
2.123244e+03,1.213373e+03
2.126136e+03,1.195550e+03
2.129029e+03,1.188665e+03
2.131922e+03,1.190857e+03
2.134814e+03,1.179928e+03
2.137707e+03,1.175034e+03
2.140600e+03,1.178074e+03
2.143492e+03,1.157375e+03
2.146385e+03,1.155505e+03
2.149278e+03,1.165320e+03
2.152170e+03,1.162009e+03
2.155063e+03,1.153680e+03
2.157956e+03,1.155846e+03
2.160849e+03,1.135061e+03
2.163741e+03,1.145090e+03
2.166634e+03,1.134004e+03
2.169527e+03,1.154303e+03
2.172419e+03,1.151136e+03
2.175312e+03,1.144083e+03
2.178205e+03,1.125136e+03
2.181098e+03,1.128592e+03
2.183990e+03,1.138158e+03
2.186883e+03,1.109330e+03
2.189776e+03,1.112618e+03
2.192668e+03,1.101528e+03
2.195561e+03,1.107917e+03
2.198454e+03,1.088591e+03
2.201346e+03,1.097744e+03
2.204239e+03,1.114819e+03
2.207132e+03,1.095559e+03
2.210024e+03,1.085047e+03
2.212917e+03,1.083069e+03
2.215810e+03,1.089602e+03
2.218703e+03,1.081038e+03
2.221595e+03,1.074955e+03
2.224488e+03,1.074131e+03
2.227381e+03,1.074917e+03
2.230273e+03,1.076796e+03
2.233166e+03,1.087209e+03
2.236059e+03,1.048732e+03
2.238952e+03,1.048927e+03
2.241844e+03,1.062432e+03
2.244737e+03,1.057256e+03
2.247630e+03,1.045813e+03
2.250522e+03,1.054517e+03
2.253415e+03,1.049540e+03
2.256308e+03,1.040583e+03
2.259200e+03,1.041638e+03
2.262093e+03,1.039869e+03
2.264986e+03,1.039485e+03
2.267879e+03,1.022939e+03
2.270771e+03,1.030830e+03
2.273664e+03,1.009930e+03
2.276557e+03,1.015651e+03
2.279449e+03,1.003871e+03
2.282342e+03,1.019842e+03
2.285235e+03,1.002946e+03
2.288127e+03,1.005338e+03
2.291020e+03,1.001099e+03
2.293913e+03,1.002157e+03
2.296805e+03,1.004818e+03
2.299698e+03,1.001198e+03
2.302591e+03,9.879807e+02
2.305484e+03,9.914373e+02
2.308376e+03,9.790870e+02
2.311269e+03,9.792474e+02
2.314162e+03,9.776957e+02
2.317054e+03,9.829609e+02
2.319947e+03,9.836990e+02
2.322840e+03,9.727144e+02
2.325733e+03,9.673583e+02
2.328625e+03,9.720499e+02
2.331518e+03,9.513770e+02
2.334411e+03,9.504861e+02
2.337303e+03,9.551042e+02
2.340196e+03,9.588323e+02
2.343089e+03,9.491857e+02
2.345981e+03,9.477013e+02
2.348874e+03,9.521736e+02
2.351767e+03,9.503740e+02
2.354659e+03,9.416405e+02
2.357552e+03,9.455012e+02
2.360445e+03,9.341998e+02
2.363338e+03,9.423273e+02
2.366230e+03,9.271605e+02
2.369123e+03,9.237903e+02
2.372016e+03,9.205923e+02
2.374908e+03,9.313545e+02
2.377801e+03,9.292986e+02
2.380694e+03,9.105521e+02
2.383587e+03,9.132266e+02
2.386479e+03,9.161263e+02
2.389372e+03,9.032488e+02
2.392265e+03,9.091097e+02
2.395157e+03,9.085429e+02
2.398050e+03,9.034610e+02
2.400943e+03,9.005685e+02
2.403835e+03,9.020343e+02
2.406728e+03,8.968629e+02
2.409621e+03,8.998275e+02
2.412513e+03,8.859082e+02
2.415406e+03,8.863820e+02
2.418299e+03,8.790990e+02
2.421192e+03,8.828821e+02
2.424084e+03,8.778271e+02
2.426977e+03,8.835824e+02
2.429870e+03,8.775886e+02
2.432762e+03,8.787785e+02
2.435655e+03,8.781221e+02
2.438548e+03,8.731417e+02
2.441441e+03,8.592958e+02
2.444333e+03,8.718316e+02
2.447226e+03,8.689258e+02
2.450119e+03,8.567633e+02
2.453011e+03,8.595186e+02
2.455904e+03,8.446697e+02
2.458797e+03,8.623512e+02
2.461689e+03,8.439895e+02
2.464582e+03,8.386812e+02
2.467475e+03,8.416486e+02
2.470367e+03,8.426434e+02
2.473260e+03,8.388606e+02
2.476153e+03,8.292276e+02
2.479046e+03,8.325239e+02
2.481938e+03,8.243337e+02
2.484831e+03,8.344962e+02
2.487724e+03,8.316152e+02
2.490616e+03,8.220295e+02
2.493509e+03,8.238471e+02
2.496402e+03,8.160472e+02
2.499295e+03,8.175192e+02
2.502187e+03,8.198656e+02
2.505080e+03,8.119276e+02
2.507973e+03,8.222655e+02
2.510865e+03,8.075344e+02
2.513758e+03,8.100154e+02
2.516651e+03,8.034626e+02
2.519543e+03,7.938607e+02
2.522436e+03,7.927091e+02
2.525329e+03,7.942122e+02
2.528221e+03,7.952416e+02
2.531114e+03,7.952985e+02
2.534007e+03,8.024257e+02
2.536900e+03,7.942850e+02
2.539792e+03,7.794074e+02
2.542685e+03,7.885013e+02
2.545578e+03,7.872133e+02
2.548470e+03,7.946188e+02
2.551363e+03,7.864606e+02
2.554256e+03,7.902618e+02
2.557149e+03,7.846267e+02
2.560041e+03,7.967057e+02
2.562934e+03,7.879705e+02
2.565827e+03,7.792266e+02
2.568719e+03,7.783448e+02
2.571612e+03,7.656367e+02
2.574505e+03,7.795576e+02
2.577397e+03,7.645695e+02
2.580290e+03,7.571564e+02
2.583183e+03,7.602479e+02
2.586075e+03,7.557277e+02
2.588968e+03,7.642744e+02
2.591861e+03,7.660858e+02
2.594754e+03,7.463782e+02
2.597646e+03,7.521283e+02
2.600539e+03,7.449149e+02
2.603432e+03,7.563113e+02
2.606324e+03,7.330828e+02
2.609217e+03,7.562659e+02
2.612110e+03,7.377940e+02
2.615003e+03,7.409322e+02
2.617895e+03,7.426521e+02
2.620788e+03,7.386976e+02
2.623681e+03,7.522574e+02
2.626573e+03,7.256721e+02
2.629466e+03,7.425702e+02
2.632359e+03,7.333183e+02
2.635251e+03,7.375911e+02
2.638144e+03,7.405650e+02
2.641037e+03,7.446236e+02
2.643929e+03,7.206482e+02
2.646822e+03,7.258967e+02
2.649715e+03,7.254896e+02
2.652608e+03,7.106644e+02
2.655500e+03,7.183600e+02
2.658393e+03,7.169328e+02
2.661286e+03,7.278314e+02
2.664178e+03,7.094540e+02
2.667071e+03,7.152346e+02
2.669964e+03,7.121228e+02
2.672857e+03,7.185842e+02
2.675749e+03,7.135166e+02
2.678642e+03,7.110634e+02
2.681535e+03,7.119906e+02
2.684427e+03,6.988289e+02
2.687320e+03,7.182791e+02
2.690213e+03,6.954730e+02
2.693105e+03,6.866820e+02
2.695998e+03,6.880117e+02
2.698891e+03,7.039399e+02
2.701783e+03,7.054905e+02
2.704676e+03,6.897159e+02
2.707569e+03,7.173639e+02
2.710462e+03,6.927097e+02
2.713354e+03,6.902743e+02
2.716247e+03,6.921015e+02
2.719140e+03,6.930558e+02
2.722032e+03,6.769540e+02
2.724925e+03,6.817926e+02
2.727818e+03,6.875109e+02
2.730711e+03,6.783846e+02
2.733603e+03,6.810414e+02
2.736496e+03,6.807706e+02
2.739389e+03,6.760025e+02
2.742281e+03,6.706016e+02
2.745174e+03,6.713965e+02
2.748067e+03,6.725358e+02
2.750959e+03,6.779152e+02
2.753852e+03,6.699499e+02
2.756745e+03,6.702405e+02
2.759637e+03,6.682296e+02
2.762530e+03,6.760529e+02
2.765423e+03,6.565596e+02
2.768316e+03,6.570183e+02
2.771208e+03,6.515299e+02
2.774101e+03,6.601382e+02
2.776994e+03,6.619058e+02
2.779886e+03,6.645300e+02
2.782779e+03,6.526804e+02
2.785672e+03,6.638196e+02
2.788565e+03,6.618494e+02
2.791457e+03,6.573561e+02
2.794350e+03,6.513484e+02
2.797243e+03,6.543441e+02
2.800135e+03,6.557084e+02
2.803028e+03,6.339667e+02
2.805921e+03,6.435724e+02
2.808813e+03,6.448159e+02
2.811706e+03,6.473400e+02
2.814599e+03,6.191004e+02
2.817491e+03,6.588546e+02
2.820384e+03,6.360261e+02
2.823277e+03,6.482705e+02
2.826170e+03,6.406060e+02
2.829062e+03,6.286832e+02
2.831955e+03,6.372401e+02
2.834848e+03,6.374738e+02
2.837740e+03,6.287767e+02
2.840633e+03,6.320430e+02
2.843526e+03,6.409523e+02
2.846419e+03,6.272383e+02
2.849311e+03,6.441932e+02
2.852204e+03,6.476140e+02
2.855097e+03,6.433616e+02
2.857990e+03,6.597494e+02
2.860882e+03,6.443158e+02
2.863775e+03,6.477289e+02
2.866667e+03,6.455799e+02
2.869560e+03,6.445085e+02
2.872453e+03,6.500186e+02
2.875345e+03,6.470644e+02
2.878238e+03,6.424883e+02
2.881131e+03,6.418714e+02
2.884024e+03,6.480393e+02
2.886916e+03,6.393380e+02
2.889809e+03,6.545261e+02
2.892702e+03,6.585727e+02
2.895594e+03,6.653796e+02
2.898487e+03,6.386866e+02
2.901380e+03,6.524882e+02
2.904273e+03,6.408581e+02
2.907165e+03,6.648551e+02
2.910058e+03,6.486219e+02
2.912951e+03,6.342253e+02
2.915844e+03,6.379178e+02
2.918736e+03,6.491450e+02
2.921629e+03,6.351328e+02
2.924521e+03,6.129149e+02
2.927414e+03,6.259969e+02
2.930307e+03,6.162067e+02
2.933199e+03,6.291967e+02
2.936092e+03,6.080159e+02
2.938985e+03,6.121030e+02
2.941878e+03,6.270365e+02
2.944770e+03,6.081245e+02
2.947663e+03,6.162015e+02
2.950556e+03,6.333642e+02
2.953448e+03,6.321625e+02
2.956341e+03,6.269915e+02
2.959234e+03,6.508154e+02
2.962127e+03,5.989282e+02
2.965019e+03,5.969885e+02
2.967912e+03,6.000914e+02
2.970805e+03,5.884410e+02
2.973698e+03,5.650297e+02
2.976590e+03,6.056823e+02
2.979483e+03,5.832662e+02
2.982375e+03,5.764068e+02
2.985268e+03,5.851185e+02
2.988161e+03,5.724207e+02
2.991053e+03,5.767316e+02
2.993946e+03,5.888574e+02
2.996839e+03,5.814603e+02
2.999732e+03,5.735019e+02
3.002624e+03,5.657937e+02
3.005517e+03,5.745494e+02
3.008410e+03,5.754632e+02
3.011302e+03,5.723137e+02
3.014195e+03,5.626159e+02
3.017088e+03,5.679792e+02
3.019981e+03,5.803693e+02
3.022873e+03,5.791690e+02
3.025766e+03,5.798008e+02
3.028659e+03,5.569031e+02
3.031552e+03,5.670804e+02
3.034444e+03,5.862499e+02
3.037337e+03,5.610791e+02
3.040229e+03,5.807285e+02
3.043122e+03,5.706030e+02
3.046015e+03,5.520656e+02
3.048907e+03,5.379760e+02
3.051800e+03,5.502582e+02
3.054693e+03,5.582337e+02
3.057586e+03,5.708719e+02
3.060478e+03,5.793756e+02
3.063371e+03,5.665461e+02
3.066264e+03,5.399448e+02
3.069156e+03,5.691969e+02
3.072049e+03,5.686380e+02
3.074942e+03,5.594238e+02
3.077835e+03,5.398549e+02
3.080727e+03,5.462743e+02
3.083620e+03,5.574777e+02
3.086513e+03,5.579357e+02
3.089406e+03,5.614324e+02
3.092298e+03,5.559290e+02
3.095191e+03,5.739706e+02
3.098083e+03,5.722927e+02
3.100976e+03,5.817138e+02
3.103869e+03,5.347451e+02
3.106761e+03,5.584062e+02
3.109654e+03,5.666120e+02
3.112547e+03,5.436958e+02
3.115440e+03,5.690809e+02
3.118332e+03,5.479147e+02
3.121225e+03,5.780884e+02
3.124118e+03,5.833057e+02
3.127010e+03,5.332495e+02
3.129903e+03,5.674850e+02
3.132796e+03,5.525471e+02
3.135689e+03,5.437419e+02
3.138581e+03,5.384195e+02
3.141474e+03,5.644200e+02
3.144367e+03,5.604897e+02
3.147260e+03,5.298421e+02
3.150152e+03,5.506229e+02
3.153045e+03,5.549866e+02
3.155938e+03,5.866674e+02
3.158830e+03,5.698780e+02
3.161723e+03,5.590232e+02
3.164615e+03,5.573529e+02
3.167508e+03,5.775360e+02
3.170401e+03,5.650576e+02
3.173294e+03,5.354936e+02
3.176186e+03,5.640229e+02
3.179079e+03,5.434685e+02
3.181972e+03,5.637379e+02
3.184865e+03,5.420985e+02
3.187757e+03,5.692422e+02
3.190650e+03,5.425257e+02
3.193543e+03,5.342217e+02
3.196435e+03,5.487689e+02
3.199328e+03,5.902820e+02
3.200292e+03,5.881885e+02