File: RAMAN_data/20012023_r1/blue fibre13.CSV
1.995979e+02,9.628316e+03
2.024906e+02,9.655094e+03
2.053833e+02,9.695999e+03
2.082760e+02,9.715448e+03
2.111687e+02,9.703794e+03
2.140614e+02,9.709656e+03
2.169541e+02,9.739863e+03
2.198468e+02,9.764155e+03
2.227395e+02,9.781318e+03
2.256322e+02,9.786387e+03
2.285249e+02,9.760760e+03
2.314176e+02,9.785431e+03
2.343103e+02,9.838951e+03
2.372030e+02,9.879288e+03
2.400957e+02,9.857775e+03
2.429884e+02,9.837588e+03
2.458811e+02,9.874303e+03
2.487738e+02,9.901904e+03
2.516665e+02,9.928345e+03
2.545592e+02,9.943435e+03
2.574519e+02,9.933679e+03
2.603446e+02,9.943595e+03
2.632373e+02,9.938326e+03
2.661300e+02,9.963524e+03
2.690227e+02,9.989397e+03
2.719154e+02,9.972026e+03
2.748081e+02,9.983868e+03
2.777008e+02,1.001221e+04
2.805935e+02,1.004121e+04
2.834862e+02,1.005532e+04
2.863789e+02,1.003809e+04
2.892716e+02,1.000972e+04
2.921643e+02,1.004469e+04
2.950570e+02,1.004385e+04
2.979497e+02,1.005172e+04
3.008424e+02,1.004379e+04
3.037351e+02,1.004888e+04
3.066278e+02,1.003629e+04
3.095205e+02,1.003632e+04
3.124132e+02,1.003262e+04
3.153059e+02,1.007678e+04
3.181986e+02,1.006520e+04
3.210913e+02,1.008290e+04
3.239840e+02,1.008947e+04
3.268767e+02,1.008635e+04
3.297694e+02,1.007605e+04
3.326621e+02,1.008058e+04
3.355548e+02,1.008778e+04
3.384475e+02,1.004414e+04
3.413402e+02,1.007571e+04
3.442329e+02,1.007873e+04
3.471256e+02,1.008293e+04
3.500183e+02,1.006660e+04
3.529110e+02,1.010512e+04
3.558037e+02,1.007784e+04
3.586964e+02,1.011464e+04
3.615891e+02,1.014878e+04
3.644818e+02,1.014343e+04
3.673745e+02,1.007961e+04
3.702672e+02,1.010604e+04
3.731599e+02,1.014017e+04
3.760526e+02,1.012642e+04
3.789453e+02,1.010129e+04
3.818380e+02,1.012244e+04
3.847307e+02,1.007377e+04
3.876234e+02,1.010377e+04
3.905161e+02,1.010183e+04
3.934088e+02,1.010517e+04
3.963015e+02,1.008409e+04
3.991942e+02,1.003457e+04
4.020869e+02,1.010247e+04
4.049796e+02,1.005233e+04
4.078723e+02,1.006869e+04
4.107650e+02,1.005616e+04
4.136577e+02,1.005245e+04
4.165504e+02,1.005122e+04
4.194431e+02,1.005382e+04
4.223358e+02,1.007279e+04
4.252285e+02,1.004720e+04
4.281212e+02,1.003415e+04
4.310139e+02,1.005560e+04
4.339066e+02,1.002757e+04
4.367993e+02,1.004297e+04
4.396920e+02,1.003253e+04
4.425847e+02,1.001667e+04
4.454774e+02,1.002330e+04
4.483701e+02,1.000922e+04
4.512628e+02,1.004741e+04
4.541555e+02,1.002418e+04
4.570482e+02,1.001969e+04
4.599409e+02,9.971954e+03
4.628336e+02,9.992309e+03
4.657263e+02,9.955764e+03
4.686190e+02,9.985185e+03
4.715117e+02,9.955372e+03
4.744044e+02,9.941687e+03
4.772971e+02,9.967078e+03
4.801898e+02,9.949663e+03
4.830825e+02,9.980687e+03
4.859752e+02,9.989987e+03
4.888679e+02,1.000589e+04
4.917606e+02,9.979374e+03
4.946533e+02,9.941619e+03
4.975460e+02,9.934547e+03
5.004387e+02,9.935627e+03
5.033314e+02,9.895988e+03
5.062241e+02,9.884476e+03
5.091168e+02,9.889246e+03
5.120095e+02,9.877259e+03
5.149022e+02,9.859969e+03
5.177949e+02,9.871333e+03
5.206876e+02,9.863751e+03
5.235803e+02,9.842396e+03
5.264730e+02,9.828404e+03
5.293657e+02,9.828612e+03
5.322584e+02,9.801949e+03
5.351511e+02,9.785412e+03
5.380438e+02,9.769824e+03
5.409365e+02,9.790347e+03
5.438292e+02,9.779337e+03
5.467219e+02,9.798795e+03
5.496146e+02,9.769513e+03
5.525073e+02,9.734888e+03
5.554000e+02,9.709722e+03
5.582927e+02,9.728188e+03
5.611854e+02,9.750469e+03
5.640781e+02,9.742971e+03
5.669708e+02,9.694200e+03
5.698635e+02,9.636896e+03
5.727562e+02,9.661010e+03
5.756489e+02,9.666078e+03
5.785416e+02,9.667417e+03
5.814343e+02,9.648513e+03
5.843270e+02,9.651361e+03
5.872197e+02,9.628474e+03
5.901124e+02,9.633607e+03
5.930051e+02,9.633885e+03
5.958978e+02,9.612929e+03
5.987905e+02,9.609762e+03
6.016832e+02,9.583129e+03
6.045759e+02,9.617017e+03
6.074686e+02,9.607393e+03
6.103613e+02,9.580802e+03
6.132540e+02,9.553981e+03
6.161467e+02,9.554525e+03
6.190394e+02,9.538344e+03
6.219321e+02,9.550771e+03
6.248248e+02,9.543368e+03
6.277175e+02,9.485393e+03
6.306102e+02,9.476615e+03
6.335029e+02,9.485604e+03
6.363956e+02,9.464530e+03
6.392883e+02,9.433106e+03
6.421810e+02,9.439245e+03
6.450737e+02,9.442146e+03
6.479664e+02,9.425560e+03
6.508591e+02,9.400113e+03
6.537518e+02,9.401487e+03
6.566445e+02,9.387641e+03
6.595372e+02,9.381481e+03
6.624299e+02,9.333306e+03
6.653226e+02,9.343975e+03
6.682153e+02,9.349015e+03
6.711080e+02,9.336737e+03
6.740007e+02,9.293317e+03
6.768934e+02,9.288691e+03
6.797861e+02,9.298567e+03
6.826788e+02,9.318318e+03
6.855715e+02,9.270582e+03
6.884642e+02,9.239748e+03
6.913569e+02,9.233370e+03
6.942496e+02,9.210421e+03
6.971423e+02,9.221685e+03
7.000350e+02,9.222608e+03
7.029277e+02,9.214787e+03
7.058204e+02,9.182044e+03
7.087131e+02,9.139240e+03
7.116058e+02,9.157608e+03
7.144985e+02,9.143438e+03
7.173912e+02,9.152040e+03
7.202839e+02,9.132331e+03
7.231766e+02,9.148285e+03
7.260693e+02,9.108119e+03
7.289620e+02,9.106012e+03
7.318547e+02,9.085322e+03
7.347474e+02,9.024101e+03
7.376401e+02,8.986466e+03
7.405328e+02,9.028853e+03
7.434255e+02,9.022864e+03
7.463182e+02,9.020361e+03
7.492109e+02,9.015156e+03
7.521036e+02,9.003481e+03
7.549963e+02,8.944338e+03
7.578890e+02,8.947357e+03
7.607817e+02,8.934047e+03
7.636744e+02,8.900196e+03
7.665671e+02,8.907841e+03
7.694598e+02,8.912729e+03
7.723525e+02,8.881787e+03
7.752452e+02,8.887006e+03
7.781379e+02,8.883944e+03
7.810306e+02,8.863506e+03
7.839233e+02,8.833729e+03
7.868160e+02,8.810089e+03
7.897087e+02,8.814254e+03
7.926014e+02,8.815506e+03
7.954941e+02,8.793565e+03
7.983868e+02,8.752219e+03
8.012795e+02,8.751355e+03
8.041722e+02,8.755464e+03
8.070649e+02,8.754210e+03
8.099576e+02,8.702803e+03
8.128503e+02,8.703971e+03
8.157430e+02,8.696513e+03
8.186357e+02,8.682062e+03
8.215284e+02,8.658743e+03
8.244211e+02,8.660929e+03
8.273138e+02,8.655407e+03
8.302065e+02,8.610172e+03
8.330992e+02,8.618024e+03
8.359919e+02,8.609319e+03
8.388846e+02,8.615733e+03
8.417773e+02,8.582675e+03
8.446700e+02,8.557341e+03
8.475627e+02,8.543221e+03
8.504554e+02,8.541473e+03
8.533481e+02,8.545674e+03
8.562408e+02,8.537519e+03
8.591335e+02,8.488553e+03
8.620262e+02,8.484943e+03
8.649189e+02,8.464166e+03
8.678116e+02,8.459204e+03
8.707043e+02,8.441372e+03
8.735970e+02,8.432450e+03
8.764897e+02,8.393751e+03
8.793824e+02,8.394483e+03
8.822751e+02,8.399661e+03
8.851678e+02,8.399830e+03
8.880605e+02,8.349352e+03
8.909532e+02,8.352043e+03
8.938459e+02,8.347889e+03
8.967386e+02,8.310993e+03
8.996313e+02,8.332824e+03
9.025240e+02,8.332310e+03
9.054167e+02,8.286624e+03
9.083094e+02,8.262632e+03
9.112021e+02,8.250456e+03
9.140948e+02,8.259514e+03
9.169875e+02,8.256939e+03
9.198802e+02,8.164456e+03
9.227729e+02,8.167364e+03
9.256656e+02,8.168136e+03
9.285583e+02,8.181580e+03
9.314510e+02,8.139396e+03
9.343438e+02,8.166405e+03
9.372365e+02,8.135111e+03
9.401292e+02,8.102221e+03
9.430219e+02,8.089183e+03
9.459146e+02,8.065288e+03
9.488073e+02,8.109060e+03
9.517000e+02,8.043262e+03
9.545927e+02,8.017541e+03
9.574854e+02,8.001016e+03
9.603781e+02,8.041694e+03
9.632708e+02,8.014819e+03
9.661635e+02,8.002277e+03
9.690562e+02,7.996661e+03
9.719489e+02,7.948464e+03
9.748416e+02,7.915918e+03
9.777343e+02,7.918436e+03
9.806270e+02,7.936159e+03
9.835197e+02,7.870912e+03
9.864124e+02,7.892342e+03
9.893051e+02,7.860878e+03
9.921978e+02,7.878069e+03
9.950905e+02,7.869736e+03
9.979832e+02,7.845019e+03
1.000876e+03,7.832764e+03
1.003769e+03,7.835912e+03
1.006661e+03,7.831870e+03
1.009554e+03,7.808228e+03
1.012447e+03,7.775042e+03
1.015339e+03,7.751737e+03
1.018232e+03,7.749079e+03
1.021125e+03,7.736157e+03
1.024017e+03,7.733164e+03
1.026910e+03,7.691284e+03
1.029803e+03,7.679349e+03
1.032696e+03,7.661724e+03
1.035588e+03,7.691154e+03
1.038481e+03,7.712498e+03
1.041374e+03,7.699129e+03
1.044266e+03,7.674854e+03
1.047159e+03,7.639086e+03
1.050052e+03,7.610541e+03
1.052944e+03,7.612874e+03
1.055837e+03,7.620417e+03
1.058730e+03,7.595258e+03
1.061623e+03,7.582409e+03
1.064515e+03,7.571135e+03
1.067408e+03,7.548994e+03
1.070301e+03,7.546533e+03
1.073193e+03,7.544792e+03
1.076086e+03,7.505477e+03
1.078979e+03,7.492407e+03
1.081871e+03,7.514073e+03
1.084764e+03,7.548981e+03
1.087657e+03,7.533510e+03
1.090550e+03,7.524280e+03
1.093442e+03,7.500540e+03
1.096335e+03,7.473979e+03
1.099228e+03,7.440070e+03
1.102120e+03,7.466058e+03
1.105013e+03,7.438735e+03
1.107906e+03,7.389800e+03
1.110798e+03,7.392965e+03
1.113691e+03,7.417577e+03
1.116584e+03,7.407024e+03
1.119477e+03,7.419917e+03
1.122369e+03,7.420695e+03
1.125262e+03,7.384127e+03
1.128155e+03,7.370546e+03
1.131047e+03,7.372946e+03
1.133940e+03,7.365621e+03
1.136833e+03,7.317174e+03
1.139725e+03,7.296839e+03
1.142618e+03,7.294783e+03
1.145511e+03,7.303249e+03
1.148404e+03,7.292409e+03
1.151296e+03,7.316948e+03
1.154189e+03,7.282002e+03
1.157082e+03,7.265437e+03
1.159974e+03,7.217688e+03
1.162867e+03,7.221036e+03
1.165760e+03,7.207547e+03
1.168652e+03,7.183490e+03
1.171545e+03,7.156847e+03
1.174438e+03,7.166541e+03
1.177331e+03,7.142047e+03
1.180223e+03,7.140808e+03
1.183116e+03,7.143326e+03
1.186009e+03,7.121029e+03
1.188901e+03,7.098482e+03
1.191794e+03,7.098625e+03
1.194687e+03,7.084059e+03
1.197579e+03,7.092869e+03
1.200472e+03,7.068479e+03
1.203365e+03,7.019589e+03
1.206258e+03,7.065756e+03
1.209150e+03,7.049115e+03
1.212043e+03,7.048108e+03
1.214936e+03,7.018365e+03
1.217828e+03,7.027792e+03
1.220721e+03,7.013701e+03
1.223614e+03,6.971729e+03
1.226506e+03,6.975432e+03
1.229399e+03,6.968063e+03
1.232292e+03,6.946222e+03
1.235185e+03,6.897034e+03
1.238077e+03,6.924014e+03
1.240970e+03,6.902171e+03
1.243863e+03,6.891783e+03
1.246755e+03,6.881189e+03
1.249648e+03,6.843881e+03
1.252541e+03,6.856212e+03
1.255433e+03,6.830197e+03
1.258326e+03,6.831310e+03
1.261219e+03,6.820057e+03
1.264112e+03,6.801860e+03
1.267004e+03,6.801396e+03
1.269897e+03,6.812504e+03
1.272790e+03,6.825195e+03
1.275682e+03,6.853200e+03
1.278575e+03,6.828896e+03
1.281468e+03,6.809971e+03
1.284360e+03,6.788673e+03
1.287253e+03,6.785123e+03
1.290146e+03,6.762271e+03
1.293039e+03,6.757947e+03
1.295931e+03,6.714172e+03
1.298824e+03,6.695585e+03
1.301717e+03,6.697109e+03
1.304609e+03,6.702679e+03
1.307502e+03,6.678726e+03
1.310395e+03,6.662628e+03
1.313287e+03,6.642019e+03
1.316180e+03,6.636593e+03
1.319073e+03,6.648903e+03
1.321966e+03,6.643654e+03
1.324858e+03,6.627632e+03
1.327751e+03,6.611095e+03
1.330644e+03,6.605203e+03
1.333536e+03,6.622837e+03
1.336429e+03,6.618503e+03
1.339322e+03,6.604977e+03
1.342214e+03,6.600695e+03
1.345107e+03,6.586502e+03
1.348000e+03,6.568735e+03
1.350893e+03,6.566209e+03
1.353785e+03,6.544511e+03
1.356678e+03,6.544803e+03
1.359571e+03,6.511513e+03
1.362463e+03,6.504806e+03
1.365356e+03,6.524656e+03
1.368249e+03,6.479773e+03
1.371141e+03,6.484204e+03
1.374034e+03,6.433794e+03
1.376927e+03,6.445963e+03
1.379820e+03,6.440898e+03
1.382712e+03,6.415346e+03
1.385605e+03,6.398649e+03
1.388498e+03,6.368823e+03
1.391390e+03,6.369833e+03
1.394283e+03,6.367813e+03
1.397176e+03,6.368861e+03
1.400068e+03,6.381157e+03
1.402961e+03,6.354885e+03
1.405854e+03,6.328609e+03
1.408747e+03,6.305764e+03
1.411639e+03,6.318872e+03
1.414532e+03,6.308288e+03
1.417425e+03,6.292950e+03
1.420317e+03,6.282432e+03
1.423210e+03,6.253804e+03
1.426103e+03,6.252745e+03
1.428995e+03,6.259521e+03
1.431888e+03,6.232088e+03
1.434781e+03,6.215876e+03
1.437674e+03,6.199332e+03
1.440566e+03,6.153634e+03
1.443459e+03,6.163671e+03
1.446352e+03,6.173520e+03
1.449244e+03,6.161819e+03
1.452137e+03,6.120797e+03
1.455030e+03,6.129100e+03
1.457922e+03,6.124261e+03
1.460815e+03,6.105633e+03
1.463708e+03,6.101437e+03
1.466601e+03,6.065240e+03
1.469493e+03,6.070125e+03
1.472386e+03,6.053296e+03
1.475279e+03,6.079026e+03
1.478171e+03,6.060372e+03
1.481064e+03,6.032240e+03
1.483957e+03,6.003710e+03
1.486849e+03,6.035502e+03
1.489742e+03,6.009903e+03
1.492635e+03,5.994231e+03
1.495528e+03,5.992300e+03
1.498420e+03,5.974647e+03
1.501313e+03,5.949859e+03
1.504206e+03,5.955407e+03
1.507098e+03,5.955370e+03
1.509991e+03,5.926553e+03
1.512884e+03,5.921944e+03
1.515776e+03,5.925437e+03
1.518669e+03,5.905635e+03
1.521562e+03,5.883741e+03
1.524455e+03,5.886638e+03
1.527347e+03,5.881533e+03
1.530240e+03,5.860430e+03
1.533133e+03,5.846722e+03
1.536025e+03,5.828675e+03
1.538918e+03,5.806859e+03
1.541811e+03,5.822072e+03
1.544703e+03,5.816669e+03
1.547596e+03,5.791389e+03
1.550489e+03,5.802484e+03
1.553382e+03,5.790761e+03
1.556274e+03,5.751426e+03
1.559167e+03,5.779587e+03
1.562060e+03,5.746242e+03
1.564952e+03,5.787897e+03
1.567845e+03,5.773157e+03
1.570738e+03,5.745943e+03
1.573630e+03,5.741404e+03
1.576523e+03,5.729251e+03
1.579416e+03,5.738540e+03
1.582309e+03,5.736577e+03
1.585201e+03,5.736155e+03
1.588094e+03,5.701805e+03
1.590987e+03,5.662062e+03
1.593879e+03,5.667866e+03
1.596772e+03,5.680037e+03
1.599665e+03,5.642354e+03
1.602557e+03,5.612720e+03
1.605450e+03,5.613657e+03
1.608343e+03,5.578781e+03
1.611236e+03,5.599665e+03
1.614128e+03,5.617044e+03
1.617021e+03,5.571164e+03
1.619914e+03,5.588468e+03
1.622806e+03,5.551626e+03
1.625699e+03,5.521850e+03
1.628592e+03,5.523688e+03
1.631484e+03,5.509055e+03
1.634377e+03,5.478672e+03
1.637270e+03,5.476396e+03
1.640163e+03,5.461303e+03
1.643055e+03,5.486630e+03
1.645948e+03,5.441749e+03
1.648841e+03,5.445742e+03
1.651733e+03,5.406079e+03
1.654626e+03,5.415831e+03
1.657519e+03,5.396342e+03
1.660411e+03,5.398319e+03
1.663304e+03,5.355825e+03
1.666197e+03,5.370172e+03
1.669090e+03,5.346000e+03
1.671982e+03,5.353702e+03
1.674875e+03,5.364458e+03
1.677768e+03,5.321000e+03
1.680660e+03,5.316211e+03
1.683553e+03,5.282607e+03
1.686446e+03,5.285049e+03
1.689339e+03,5.286989e+03
1.692231e+03,5.278305e+03
1.695124e+03,5.278158e+03
1.698017e+03,5.264447e+03
1.700909e+03,5.267512e+03
1.703802e+03,5.233740e+03
1.706695e+03,5.239040e+03
1.709587e+03,5.202999e+03
1.712480e+03,5.188369e+03
1.715373e+03,5.168607e+03
1.718266e+03,5.159968e+03
1.721158e+03,5.162456e+03
1.724051e+03,5.179130e+03
1.726944e+03,5.141575e+03
1.729836e+03,5.127322e+03
1.732729e+03,5.114410e+03
1.735622e+03,5.118992e+03
1.738514e+03,5.093890e+03
1.741407e+03,5.102325e+03
1.744300e+03,5.074481e+03
1.747193e+03,5.044203e+03
1.750085e+03,5.059307e+03
1.752978e+03,5.020279e+03
1.755871e+03,5.057745e+03
1.758763e+03,5.012464e+03
1.761656e+03,5.001215e+03
1.764549e+03,4.998429e+03
1.767441e+03,4.995249e+03
1.770334e+03,4.996102e+03
1.773227e+03,4.971175e+03
1.776120e+03,4.954697e+03
1.779012e+03,4.925825e+03
1.781905e+03,4.948021e+03
1.784798e+03,4.963326e+03
1.787690e+03,4.909115e+03
1.790583e+03,4.912869e+03
1.793476e+03,4.872844e+03
1.796368e+03,4.877044e+03
1.799261e+03,4.898267e+03
1.802154e+03,4.872125e+03
1.805047e+03,4.834943e+03
1.807939e+03,4.832255e+03
1.810832e+03,4.835665e+03
1.813725e+03,4.821602e+03
1.816617e+03,4.786728e+03
1.819510e+03,4.797962e+03
1.822403e+03,4.779289e+03
1.825295e+03,4.764441e+03
1.828188e+03,4.777574e+03
1.831081e+03,4.787063e+03
1.833974e+03,4.760206e+03
1.836866e+03,4.712179e+03
1.839759e+03,4.712115e+03
1.842652e+03,4.722664e+03
1.845544e+03,4.694117e+03
1.848437e+03,4.687877e+03
1.851330e+03,4.658267e+03
1.854222e+03,4.653576e+03
1.857115e+03,4.661755e+03
1.860008e+03,4.634407e+03
1.862901e+03,4.663727e+03
1.865793e+03,4.629638e+03
1.868686e+03,4.612016e+03
1.871579e+03,4.591080e+03
1.874471e+03,4.614768e+03
1.877364e+03,4.553991e+03
1.880257e+03,4.577758e+03
1.883149e+03,4.541699e+03
1.886042e+03,4.536674e+03
1.888935e+03,4.512925e+03
1.891828e+03,4.539686e+03
1.894720e+03,4.516876e+03
1.897613e+03,4.492154e+03
1.900506e+03,4.491258e+03
1.903398e+03,4.457225e+03
1.906291e+03,4.452603e+03
1.909184e+03,4.457641e+03
1.912076e+03,4.396172e+03
1.914969e+03,4.403724e+03
1.917862e+03,4.402037e+03
1.920755e+03,4.405744e+03
1.923647e+03,4.386820e+03
1.926540e+03,4.420736e+03
1.929433e+03,4.370798e+03
1.932325e+03,4.343999e+03
1.935218e+03,4.332417e+03
1.938111e+03,4.367954e+03
1.941003e+03,4.353089e+03
1.943896e+03,4.286338e+03
1.946789e+03,4.297112e+03
1.949682e+03,4.290839e+03
1.952574e+03,4.278204e+03
1.955467e+03,4.260292e+03
1.958360e+03,4.248423e+03
1.961252e+03,4.241131e+03
1.964145e+03,4.217209e+03
1.967038e+03,4.234816e+03
1.969930e+03,4.241669e+03
1.972823e+03,4.197993e+03
1.975716e+03,4.197534e+03
1.978609e+03,4.153885e+03
1.981501e+03,4.170338e+03
1.984394e+03,4.146515e+03
1.987287e+03,4.199400e+03
1.990179e+03,4.144821e+03
1.993072e+03,4.145223e+03
1.995965e+03,4.106140e+03
1.998857e+03,4.101971e+03
2.001750e+03,4.104034e+03
2.004643e+03,4.091068e+03
2.007536e+03,4.088802e+03
2.010428e+03,4.047751e+03
2.013321e+03,4.018733e+03
2.016214e+03,4.042358e+03
2.019106e+03,4.035814e+03
2.021999e+03,4.022627e+03
2.024892e+03,3.991613e+03
2.027784e+03,3.983525e+03
2.030677e+03,3.964954e+03
2.033570e+03,3.980327e+03
2.036463e+03,3.966133e+03
2.039355e+03,3.922481e+03
2.042248e+03,3.907986e+03
2.045141e+03,3.908326e+03
2.048033e+03,3.913234e+03
2.050926e+03,3.887760e+03
2.053819e+03,3.882104e+03
2.056711e+03,3.877364e+03
2.059604e+03,3.855067e+03
2.062497e+03,3.852741e+03
2.065390e+03,3.850286e+03
2.068282e+03,3.811439e+03
2.071175e+03,3.821237e+03
2.074068e+03,3.807930e+03
2.076960e+03,3.806987e+03
2.079853e+03,3.804117e+03
2.082746e+03,3.776142e+03
2.085638e+03,3.766948e+03
2.088531e+03,3.734031e+03
2.091424e+03,3.736950e+03
2.094316e+03,3.762570e+03
2.097209e+03,3.721819e+03
2.100102e+03,3.733532e+03
2.102995e+03,3.699852e+03
2.105887e+03,3.650073e+03
2.108780e+03,3.695092e+03
2.111673e+03,3.659793e+03
2.114565e+03,3.655252e+03
2.117458e+03,3.618662e+03
2.120351e+03,3.645251e+03
2.123244e+03,3.675629e+03
2.126136e+03,3.606944e+03
2.129029e+03,3.577480e+03
2.131922e+03,3.582742e+03
2.134814e+03,3.585681e+03
2.137707e+03,3.569606e+03
2.140600e+03,3.578926e+03
2.143492e+03,3.545562e+03
2.146385e+03,3.536447e+03
2.149278e+03,3.502343e+03
2.152170e+03,3.522122e+03
2.155063e+03,3.534064e+03
2.157956e+03,3.487401e+03
2.160849e+03,3.481571e+03
2.163741e+03,3.487138e+03
2.166634e+03,3.440284e+03
2.169527e+03,3.466170e+03
2.172419e+03,3.442783e+03
2.175312e+03,3.425288e+03
2.178205e+03,3.413490e+03
2.181098e+03,3.395704e+03
2.183990e+03,3.392528e+03
2.186883e+03,3.387714e+03
2.189776e+03,3.364278e+03
2.192668e+03,3.355703e+03
2.195561e+03,3.347895e+03
2.198454e+03,3.351042e+03
2.201346e+03,3.329658e+03
2.204239e+03,3.341263e+03
2.207132e+03,3.329353e+03
2.210024e+03,3.301852e+03
2.212917e+03,3.270353e+03
2.215810e+03,3.321737e+03
2.218703e+03,3.291637e+03
2.221595e+03,3.261956e+03
2.224488e+03,3.226412e+03
2.227381e+03,3.231446e+03
2.230273e+03,3.230664e+03
2.233166e+03,3.208528e+03
2.236059e+03,3.214875e+03
2.238952e+03,3.189030e+03
2.241844e+03,3.149113e+03
2.244737e+03,3.163629e+03
2.247630e+03,3.179705e+03
2.250522e+03,3.131154e+03
2.253415e+03,3.171324e+03
2.256308e+03,3.126010e+03
2.259200e+03,3.114531e+03
2.262093e+03,3.130650e+03
2.264986e+03,3.080107e+03
2.267879e+03,3.093873e+03
2.270771e+03,3.061919e+03
2.273664e+03,3.072373e+03
2.276557e+03,3.082921e+03
2.279449e+03,3.041201e+03
2.282342e+03,3.065866e+03
2.285235e+03,3.037698e+03
2.288127e+03,3.023242e+03
2.291020e+03,3.038624e+03
2.293913e+03,3.004570e+03
2.296805e+03,3.026732e+03
2.299698e+03,2.976076e+03
2.302591e+03,2.962293e+03
2.305484e+03,2.948230e+03
2.308376e+03,2.956018e+03
2.311269e+03,2.943428e+03
2.314162e+03,2.960994e+03
2.317054e+03,2.947145e+03
2.319947e+03,2.903657e+03
2.322840e+03,2.903514e+03
2.325733e+03,2.918762e+03
2.328625e+03,2.896460e+03
2.331518e+03,2.887812e+03
2.334411e+03,2.864018e+03
2.337303e+03,2.858568e+03
2.340196e+03,2.836655e+03
2.343089e+03,2.848758e+03
2.345981e+03,2.851115e+03
2.348874e+03,2.817687e+03
2.351767e+03,2.807935e+03
2.354659e+03,2.818478e+03
2.357552e+03,2.798517e+03
2.360445e+03,2.802863e+03
2.363338e+03,2.790053e+03
2.366230e+03,2.755167e+03
2.369123e+03,2.744449e+03
2.372016e+03,2.760950e+03
2.374908e+03,2.755752e+03
2.377801e+03,2.729928e+03
2.380694e+03,2.708436e+03
2.383587e+03,2.729008e+03
2.386479e+03,2.712698e+03
2.389372e+03,2.698579e+03
2.392265e+03,2.673890e+03
2.395157e+03,2.687638e+03
2.398050e+03,2.672168e+03
2.400943e+03,2.662580e+03
2.403835e+03,2.651897e+03
2.406728e+03,2.667833e+03
2.409621e+03,2.637023e+03
2.412513e+03,2.637368e+03
2.415406e+03,2.647553e+03
2.418299e+03,2.623185e+03
2.421192e+03,2.638706e+03
2.424084e+03,2.625192e+03
2.426977e+03,2.625208e+03
2.429870e+03,2.581827e+03
2.432762e+03,2.599134e+03
2.435655e+03,2.572948e+03
2.438548e+03,2.577836e+03
2.441441e+03,2.548485e+03
2.444333e+03,2.558820e+03
2.447226e+03,2.540137e+03
2.450119e+03,2.539863e+03
2.453011e+03,2.539808e+03
2.455904e+03,2.517414e+03
2.458797e+03,2.494448e+03
2.461689e+03,2.507992e+03
2.464582e+03,2.491449e+03
2.467475e+03,2.500522e+03
2.470367e+03,2.492605e+03
2.473260e+03,2.489211e+03
2.476153e+03,2.481966e+03
2.479046e+03,2.477081e+03
2.481938e+03,2.470113e+03
2.484831e+03,2.453975e+03
2.487724e+03,2.465427e+03
2.490616e+03,2.446971e+03
2.493509e+03,2.414653e+03
2.496402e+03,2.412076e+03
2.499295e+03,2.430990e+03
2.502187e+03,2.399226e+03
2.505080e+03,2.392360e+03
2.507973e+03,2.362219e+03
2.510865e+03,2.365458e+03
2.513758e+03,2.394606e+03
2.516651e+03,2.354712e+03
2.519543e+03,2.379885e+03
2.522436e+03,2.396404e+03
2.525329e+03,2.338621e+03
2.528221e+03,2.337351e+03
2.531114e+03,2.348799e+03
2.534007e+03,2.353031e+03
2.536900e+03,2.321459e+03
2.539792e+03,2.320726e+03
2.542685e+03,2.323403e+03
2.545578e+03,2.326733e+03
2.548470e+03,2.320529e+03
2.551363e+03,2.324446e+03
2.554256e+03,2.281063e+03
2.557149e+03,2.298766e+03
2.560041e+03,2.290465e+03
2.562934e+03,2.284154e+03
2.565827e+03,2.277012e+03
2.568719e+03,2.275972e+03
2.571612e+03,2.277722e+03
2.574505e+03,2.253988e+03
2.577397e+03,2.243394e+03
2.580290e+03,2.229387e+03
2.583183e+03,2.219571e+03
2.586075e+03,2.233419e+03
2.588968e+03,2.211501e+03
2.591861e+03,2.212387e+03
2.594754e+03,2.206541e+03
2.597646e+03,2.213872e+03
2.600539e+03,2.195575e+03
2.603432e+03,2.171490e+03
2.606324e+03,2.171747e+03
2.609217e+03,2.174018e+03
2.612110e+03,2.173929e+03
2.615003e+03,2.156217e+03
2.617895e+03,2.125626e+03
2.620788e+03,2.144905e+03
2.623681e+03,2.136244e+03
2.626573e+03,2.142627e+03
2.629466e+03,2.150100e+03
2.632359e+03,2.131508e+03
2.635251e+03,2.124131e+03
2.638144e+03,2.129477e+03
2.641037e+03,2.108853e+03
2.643929e+03,2.094988e+03
2.646822e+03,2.109265e+03
2.649715e+03,2.101067e+03
2.652608e+03,2.086206e+03
2.655500e+03,2.100441e+03
2.658393e+03,2.089607e+03
2.661286e+03,2.063895e+03
2.664178e+03,2.061722e+03
2.667071e+03,2.064738e+03
2.669964e+03,2.056641e+03
2.672857e+03,2.069828e+03
2.675749e+03,2.051517e+03
2.678642e+03,2.041691e+03
2.681535e+03,2.038729e+03
2.684427e+03,2.057075e+03
2.687320e+03,2.026527e+03
2.690213e+03,2.015713e+03
2.693105e+03,2.030340e+03
2.695998e+03,2.027527e+03
2.698891e+03,2.001918e+03
2.701783e+03,2.010360e+03
2.704676e+03,1.995418e+03
2.707569e+03,1.985938e+03
2.710462e+03,1.977960e+03
2.713354e+03,1.983002e+03
2.716247e+03,1.992953e+03
2.719140e+03,1.974391e+03
2.722032e+03,1.942706e+03
2.724925e+03,1.946043e+03
2.727818e+03,1.947657e+03
2.730711e+03,1.973832e+03
2.733603e+03,1.944693e+03
2.736496e+03,1.946218e+03
2.739389e+03,1.933479e+03
2.742281e+03,1.933242e+03
2.745174e+03,1.963510e+03
2.748067e+03,1.945123e+03
2.750959e+03,1.909785e+03
2.753852e+03,1.896972e+03
2.756745e+03,1.913637e+03
2.759637e+03,1.903549e+03
2.762530e+03,1.910667e+03
2.765423e+03,1.891821e+03
2.768316e+03,1.892879e+03
2.771208e+03,1.898147e+03
2.774101e+03,1.841938e+03
2.776994e+03,1.872811e+03
2.779886e+03,1.878795e+03
2.782779e+03,1.878775e+03
2.785672e+03,1.873177e+03
2.788565e+03,1.872243e+03
2.791457e+03,1.896864e+03
2.794350e+03,1.851073e+03
2.797243e+03,1.885438e+03
2.800135e+03,1.873106e+03
2.803028e+03,1.842932e+03
2.805921e+03,1.839813e+03
2.808813e+03,1.833156e+03
2.811706e+03,1.821204e+03
2.814599e+03,1.817292e+03
2.817491e+03,1.837286e+03
2.820384e+03,1.829178e+03
2.823277e+03,1.820660e+03
2.826170e+03,1.788537e+03
2.829062e+03,1.811521e+03
2.831955e+03,1.804371e+03
2.834848e+03,1.819332e+03
2.837740e+03,1.831090e+03
2.840633e+03,1.790893e+03
2.843526e+03,1.779042e+03
2.846419e+03,1.791951e+03
2.849311e+03,1.769838e+03
2.852204e+03,1.787833e+03
2.855097e+03,1.796506e+03
2.857990e+03,1.777483e+03
2.860882e+03,1.785717e+03
2.863775e+03,1.789256e+03
2.866667e+03,1.769146e+03
2.869560e+03,1.786419e+03
2.872453e+03,1.805964e+03
2.875345e+03,1.758933e+03
2.878238e+03,1.799781e+03
2.881131e+03,1.788094e+03
2.884024e+03,1.747832e+03
2.886916e+03,1.776871e+03
2.889809e+03,1.824571e+03
2.892702e+03,1.802728e+03
2.895594e+03,1.783979e+03
2.898487e+03,1.777603e+03
2.901380e+03,1.733804e+03
2.904273e+03,1.762506e+03
2.907165e+03,1.739766e+03
2.910058e+03,1.739434e+03
2.912951e+03,1.723144e+03
2.915844e+03,1.782159e+03
2.918736e+03,1.715234e+03
2.921629e+03,1.731229e+03
2.924521e+03,1.711473e+03
2.927414e+03,1.733309e+03
2.930307e+03,1.731502e+03
2.933199e+03,1.698935e+03
2.936092e+03,1.676909e+03
2.938985e+03,1.674668e+03
2.941878e+03,1.685879e+03
2.944770e+03,1.687341e+03
2.947663e+03,1.703593e+03
2.950556e+03,1.680429e+03
2.953448e+03,1.659423e+03
2.956341e+03,1.705771e+03
2.959234e+03,1.740746e+03
2.962127e+03,1.650535e+03
2.965019e+03,1.657834e+03
2.967912e+03,1.661744e+03
2.970805e+03,1.658090e+03
2.973698e+03,1.623688e+03
2.976590e+03,1.662467e+03
2.979483e+03,1.607042e+03
2.982375e+03,1.639600e+03
2.985268e+03,1.619899e+03
2.988161e+03,1.627291e+03
2.991053e+03,1.600929e+03
2.993946e+03,1.610105e+03
2.996839e+03,1.646478e+03
2.999732e+03,1.629961e+03
3.002624e+03,1.566058e+03
3.005517e+03,1.612429e+03
3.008410e+03,1.591060e+03
3.011302e+03,1.563400e+03
3.014195e+03,1.607789e+03
3.017088e+03,1.575602e+03
3.019981e+03,1.560596e+03
3.022873e+03,1.609800e+03
3.025766e+03,1.590802e+03
3.028659e+03,1.595073e+03
3.031552e+03,1.587376e+03
3.034444e+03,1.600007e+03
3.037337e+03,1.574190e+03
3.040229e+03,1.592843e+03
3.043122e+03,1.578989e+03
3.046015e+03,1.561018e+03
3.048907e+03,1.565811e+03
3.051800e+03,1.543550e+03
3.054693e+03,1.536326e+03
3.057586e+03,1.585016e+03
3.060478e+03,1.583142e+03
3.063371e+03,1.556941e+03
3.066264e+03,1.537689e+03
3.069156e+03,1.554186e+03
3.072049e+03,1.591800e+03
3.074942e+03,1.550781e+03
3.077835e+03,1.527427e+03
3.080727e+03,1.537997e+03
3.083620e+03,1.534467e+03
3.086513e+03,1.582963e+03
3.089406e+03,1.563061e+03
3.092298e+03,1.553562e+03
3.095191e+03,1.542247e+03
3.098083e+03,1.527620e+03
3.100976e+03,1.545008e+03
3.103869e+03,1.522682e+03
3.106761e+03,1.533183e+03
3.109654e+03,1.540919e+03
3.112547e+03,1.560119e+03
3.115440e+03,1.546995e+03
3.118332e+03,1.554556e+03
3.121225e+03,1.513902e+03
3.124118e+03,1.544826e+03
3.127010e+03,1.535289e+03
3.129903e+03,1.547022e+03
3.132796e+03,1.531512e+03
3.135689e+03,1.477482e+03
3.138581e+03,1.536921e+03
3.141474e+03,1.539267e+03
3.144367e+03,1.528405e+03
3.147260e+03,1.537835e+03
3.150152e+03,1.551839e+03
3.153045e+03,1.508958e+03
3.155938e+03,1.499754e+03
3.158830e+03,1.490674e+03
3.161723e+03,1.603074e+03
3.164615e+03,1.547203e+03
3.167508e+03,1.564141e+03
3.170401e+03,1.514639e+03
3.173294e+03,1.539475e+03
3.176186e+03,1.523727e+03
3.179079e+03,1.492727e+03
3.181972e+03,1.510727e+03
3.184865e+03,1.557837e+03
3.187757e+03,1.532246e+03
3.190650e+03,1.513489e+03
3.193543e+03,1.495549e+03
3.196435e+03,1.520640e+03
3.199328e+03,1.602215e+03
3.200292e+03,1.605389e+03