File: RAMAN_data/20012023_r1/blue fibre1.CSV
1.995979e+02,1.046964e+04
2.024906e+02,1.050564e+04
2.053833e+02,1.054303e+04
2.082760e+02,1.055275e+04
2.111687e+02,1.054622e+04
2.140614e+02,1.057110e+04
2.169541e+02,1.059435e+04
2.198468e+02,1.064671e+04
2.227395e+02,1.067257e+04
2.256322e+02,1.068503e+04
2.285249e+02,1.070199e+04
2.314176e+02,1.075159e+04
2.343103e+02,1.078854e+04
2.372030e+02,1.082920e+04
2.400957e+02,1.083586e+04
2.429884e+02,1.084039e+04
2.458811e+02,1.087555e+04
2.487738e+02,1.091119e+04
2.516665e+02,1.094691e+04
2.545592e+02,1.097477e+04
2.574519e+02,1.097223e+04
2.603446e+02,1.100378e+04
2.632373e+02,1.105562e+04
2.661300e+02,1.109288e+04
2.690227e+02,1.111871e+04
2.719154e+02,1.114331e+04
2.748081e+02,1.116541e+04
2.777008e+02,1.121963e+04
2.805935e+02,1.124688e+04
2.834862e+02,1.127886e+04
2.863789e+02,1.128756e+04
2.892716e+02,1.130667e+04
2.921643e+02,1.133578e+04
2.950570e+02,1.137532e+04
2.979497e+02,1.141115e+04
3.008424e+02,1.142350e+04
3.037351e+02,1.145768e+04
3.066278e+02,1.148101e+04
3.095205e+02,1.151189e+04
3.124132e+02,1.156491e+04
3.153059e+02,1.159377e+04
3.181986e+02,1.160278e+04
3.210913e+02,1.162868e+04
3.239840e+02,1.167008e+04
3.268767e+02,1.171076e+04
3.297694e+02,1.174823e+04
3.326621e+02,1.177917e+04
3.355548e+02,1.179020e+04
3.384475e+02,1.182536e+04
3.413402e+02,1.187475e+04
3.442329e+02,1.193150e+04
3.471256e+02,1.197256e+04
3.500183e+02,1.198235e+04
3.529110e+02,1.201902e+04
3.558037e+02,1.207473e+04
3.586964e+02,1.211193e+04
3.615891e+02,1.215814e+04
3.644818e+02,1.215827e+04
3.673745e+02,1.215997e+04
3.702672e+02,1.222116e+04
3.731599e+02,1.226728e+04
3.760526e+02,1.229588e+04
3.789453e+02,1.234456e+04
3.818380e+02,1.236471e+04
3.847307e+02,1.239503e+04
3.876234e+02,1.244819e+04
3.905161e+02,1.250335e+04
3.934088e+02,1.253735e+04
3.963015e+02,1.256595e+04
3.991942e+02,1.258175e+04
4.020869e+02,1.263801e+04
4.049796e+02,1.267012e+04
4.078723e+02,1.271719e+04
4.107650e+02,1.273667e+04
4.136577e+02,1.276351e+04
4.165504e+02,1.279876e+04
4.194431e+02,1.284042e+04
4.223358e+02,1.287724e+04
4.252285e+02,1.290059e+04
4.281212e+02,1.293422e+04
4.310139e+02,1.297290e+04
4.339066e+02,1.302397e+04
4.367993e+02,1.308250e+04
4.396920e+02,1.312154e+04
4.425847e+02,1.316490e+04
4.454774e+02,1.320192e+04
4.483701e+02,1.325284e+04
4.512628e+02,1.328288e+04
4.541555e+02,1.331778e+04
4.570482e+02,1.332676e+04
4.599409e+02,1.336213e+04
4.628336e+02,1.339856e+04
4.657263e+02,1.341577e+04
4.686190e+02,1.345959e+04
4.715117e+02,1.350331e+04
4.744044e+02,1.352671e+04
4.772971e+02,1.355213e+04
4.801898e+02,1.358607e+04
4.830825e+02,1.363477e+04
4.859752e+02,1.367048e+04
4.888679e+02,1.369953e+04
4.917606e+02,1.373081e+04
4.946533e+02,1.377487e+04
4.975460e+02,1.382020e+04
5.004387e+02,1.385327e+04
5.033314e+02,1.386479e+04
5.062241e+02,1.388943e+04
5.091168e+02,1.390177e+04
5.120095e+02,1.393477e+04
5.149022e+02,1.397866e+04
5.177949e+02,1.401878e+04
5.206876e+02,1.400367e+04
5.235803e+02,1.404020e+04
5.264730e+02,1.408429e+04
5.293657e+02,1.412550e+04
5.322584e+02,1.412197e+04
5.351511e+02,1.414131e+04
5.380438e+02,1.416168e+04
5.409365e+02,1.420013e+04
5.438292e+02,1.425011e+04
5.467219e+02,1.427737e+04
5.496146e+02,1.428900e+04
5.525073e+02,1.427654e+04
5.554000e+02,1.430265e+04
5.582927e+02,1.434608e+04
5.611854e+02,1.438454e+04
5.640781e+02,1.440638e+04
5.669708e+02,1.440352e+04
5.698635e+02,1.440597e+04
5.727562e+02,1.444706e+04
5.756489e+02,1.450327e+04
5.785416e+02,1.453512e+04
5.814343e+02,1.455359e+04
5.843270e+02,1.456812e+04
5.872197e+02,1.460200e+04
5.901124e+02,1.464325e+04
5.930051e+02,1.468703e+04
5.958978e+02,1.471322e+04
5.987905e+02,1.471903e+04
6.016832e+02,1.473596e+04
6.045759e+02,1.478114e+04
6.074686e+02,1.480414e+04
6.103613e+02,1.480117e+04
6.132540e+02,1.479843e+04
6.161467e+02,1.479927e+04
6.190394e+02,1.483061e+04
6.219321e+02,1.486313e+04
6.248248e+02,1.490432e+04
6.277175e+02,1.490618e+04
6.306102e+02,1.490276e+04
6.335029e+02,1.493296e+04
6.363956e+02,1.497678e+04
6.392883e+02,1.499267e+04
6.421810e+02,1.500636e+04
6.450737e+02,1.500892e+04
6.479664e+02,1.503492e+04
6.508591e+02,1.508725e+04
6.537518e+02,1.510643e+04
6.566445e+02,1.509975e+04
6.595372e+02,1.509648e+04
6.624299e+02,1.510049e+04
6.653226e+02,1.513308e+04
6.682153e+02,1.517125e+04
6.711080e+02,1.518883e+04
6.740007e+02,1.517525e+04
6.768934e+02,1.515402e+04
6.797861e+02,1.515445e+04
6.826788e+02,1.519640e+04
6.855715e+02,1.520678e+04
6.884642e+02,1.519484e+04
6.913569e+02,1.519876e+04
6.942496e+02,1.520564e+04
6.971423e+02,1.525153e+04
7.000350e+02,1.528018e+04
7.029277e+02,1.526464e+04
7.058204e+02,1.526622e+04
7.087131e+02,1.524811e+04
7.116058e+02,1.527457e+04
7.144985e+02,1.528268e+04
7.173912e+02,1.529331e+04
7.202839e+02,1.528187e+04
7.231766e+02,1.526684e+04
7.260693e+02,1.527049e+04
7.289620e+02,1.527202e+04
7.318547e+02,1.527851e+04
7.347474e+02,1.527569e+04
7.376401e+02,1.525925e+04
7.405328e+02,1.526814e+04
7.434255e+02,1.525636e+04
7.463182e+02,1.529385e+04
7.492109e+02,1.528047e+04
7.521036e+02,1.525320e+04
7.549963e+02,1.525090e+04
7.578890e+02,1.524240e+04
7.607817e+02,1.528174e+04
7.636744e+02,1.525475e+04
7.665671e+02,1.525236e+04
7.694598e+02,1.523354e+04
7.723525e+02,1.518254e+04
7.752452e+02,1.521344e+04
7.781379e+02,1.524892e+04
7.810306e+02,1.521699e+04
7.839233e+02,1.517846e+04
7.868160e+02,1.516677e+04
7.897087e+02,1.514275e+04
7.926014e+02,1.516737e+04
7.954941e+02,1.514923e+04
7.983868e+02,1.511434e+04
8.012795e+02,1.511676e+04
8.041722e+02,1.510259e+04
8.070649e+02,1.512649e+04
8.099576e+02,1.511368e+04
8.128503e+02,1.510524e+04
8.157430e+02,1.509608e+04
8.186357e+02,1.506969e+04
8.215284e+02,1.508409e+04
8.244211e+02,1.507599e+04
8.273138e+02,1.505855e+04
8.302065e+02,1.501106e+04
8.330992e+02,1.500665e+04
8.359919e+02,1.500431e+04
8.388846e+02,1.498766e+04
8.417773e+02,1.496403e+04
8.446700e+02,1.492651e+04
8.475627e+02,1.489637e+04
8.504554e+02,1.485796e+04
8.533481e+02,1.485192e+04
8.562408e+02,1.484545e+04
8.591335e+02,1.481177e+04
8.620262e+02,1.478606e+04
8.649189e+02,1.477040e+04
8.678116e+02,1.475676e+04
8.707043e+02,1.477327e+04
8.735970e+02,1.472187e+04
8.764897e+02,1.468207e+04
8.793824e+02,1.468172e+04
8.822751e+02,1.466579e+04
8.851678e+02,1.467146e+04
8.880605e+02,1.465300e+04
8.909532e+02,1.459730e+04
8.938459e+02,1.457673e+04
8.967386e+02,1.456069e+04
8.996313e+02,1.452496e+04
9.025240e+02,1.452712e+04
9.054167e+02,1.450319e+04
9.083094e+02,1.445947e+04
9.112021e+02,1.444510e+04
9.140948e+02,1.441661e+04
9.169875e+02,1.442994e+04
9.198802e+02,1.437926e+04
9.227729e+02,1.433191e+04
9.256656e+02,1.431909e+04
9.285583e+02,1.432151e+04
9.314510e+02,1.430841e+04
9.343438e+02,1.429789e+04
9.372365e+02,1.426897e+04
9.401292e+02,1.422962e+04
9.430219e+02,1.421133e+04
9.459146e+02,1.418399e+04
9.488073e+02,1.418936e+04
9.517000e+02,1.412447e+04
9.545927e+02,1.407620e+04
9.574854e+02,1.402200e+04
9.603781e+02,1.401045e+04
9.632708e+02,1.397930e+04
9.661635e+02,1.395200e+04
9.690562e+02,1.391784e+04
9.719489e+02,1.385578e+04
9.748416e+02,1.382681e+04
9.777343e+02,1.383521e+04
9.806270e+02,1.381314e+04
9.835197e+02,1.375511e+04
9.864124e+02,1.370741e+04
9.893051e+02,1.367814e+04
9.921978e+02,1.368226e+04
9.950905e+02,1.366892e+04
9.979832e+02,1.362702e+04
1.000876e+03,1.355446e+04
1.003769e+03,1.352240e+04
1.006661e+03,1.352168e+04
1.009554e+03,1.352874e+04
1.012447e+03,1.349048e+04
1.015339e+03,1.342581e+04
1.018232e+03,1.339959e+04
1.021125e+03,1.337592e+04
1.024017e+03,1.337980e+04
1.026910e+03,1.335846e+04
1.029803e+03,1.329977e+04
1.032696e+03,1.326776e+04
1.035588e+03,1.323795e+04
1.038481e+03,1.323512e+04
1.041374e+03,1.320767e+04
1.044266e+03,1.317886e+04
1.047159e+03,1.313289e+04
1.050052e+03,1.309618e+04
1.052944e+03,1.310096e+04
1.055837e+03,1.310048e+04
1.058730e+03,1.306401e+04
1.061623e+03,1.303081e+04
1.064515e+03,1.300896e+04
1.067408e+03,1.299428e+04
1.070301e+03,1.300772e+04
1.073193e+03,1.299277e+04
1.076086e+03,1.294577e+04
1.078979e+03,1.290034e+04
1.081871e+03,1.290441e+04
1.084764e+03,1.289094e+04
1.087657e+03,1.287397e+04
1.090550e+03,1.282595e+04
1.093442e+03,1.275942e+04
1.096335e+03,1.273574e+04
1.099228e+03,1.273254e+04
1.102120e+03,1.271967e+04
1.105013e+03,1.269134e+04
1.107906e+03,1.265762e+04
1.110798e+03,1.262938e+04
1.113691e+03,1.261279e+04
1.116584e+03,1.262312e+04
1.119477e+03,1.261465e+04
1.122369e+03,1.257191e+04
1.125262e+03,1.252245e+04
1.128155e+03,1.251135e+04
1.131047e+03,1.251886e+04
1.133940e+03,1.250538e+04
1.136833e+03,1.246081e+04
1.139725e+03,1.242496e+04
1.142618e+03,1.241501e+04
1.145511e+03,1.240400e+04
1.148404e+03,1.239220e+04
1.151296e+03,1.239692e+04
1.154189e+03,1.235424e+04
1.157082e+03,1.230447e+04
1.159974e+03,1.231113e+04
1.162867e+03,1.232622e+04
1.165760e+03,1.230042e+04
1.168652e+03,1.226258e+04
1.171545e+03,1.222835e+04
1.174438e+03,1.221942e+04
1.177331e+03,1.221896e+04
1.180223e+03,1.222434e+04
1.183116e+03,1.220226e+04
1.186009e+03,1.216541e+04
1.188901e+03,1.215480e+04
1.191794e+03,1.215878e+04
1.194687e+03,1.215199e+04
1.197579e+03,1.216367e+04
1.200472e+03,1.212476e+04
1.203365e+03,1.207488e+04
1.206258e+03,1.207408e+04
1.209150e+03,1.210635e+04
1.212043e+03,1.210827e+04
1.214936e+03,1.207852e+04
1.217828e+03,1.206533e+04
1.220721e+03,1.206292e+04
1.223614e+03,1.208614e+04
1.226506e+03,1.208992e+04
1.229399e+03,1.209398e+04
1.232292e+03,1.205400e+04
1.235185e+03,1.203624e+04
1.238077e+03,1.206109e+04
1.240970e+03,1.209601e+04
1.243863e+03,1.208701e+04
1.246755e+03,1.206604e+04
1.249648e+03,1.205246e+04
1.252541e+03,1.206874e+04
1.255433e+03,1.208109e+04
1.258326e+03,1.210036e+04
1.261219e+03,1.208576e+04
1.264112e+03,1.206358e+04
1.267004e+03,1.206713e+04
1.269897e+03,1.208969e+04
1.272790e+03,1.213244e+04
1.275682e+03,1.211832e+04
1.278575e+03,1.210388e+04
1.281468e+03,1.208050e+04
1.284360e+03,1.211078e+04
1.287253e+03,1.213897e+04
1.290146e+03,1.213952e+04
1.293039e+03,1.213763e+04
1.295931e+03,1.212777e+04
1.298824e+03,1.214152e+04
1.301717e+03,1.217306e+04
1.304609e+03,1.220968e+04
1.307502e+03,1.219931e+04
1.310395e+03,1.220083e+04
1.313287e+03,1.220867e+04
1.316180e+03,1.222983e+04
1.319073e+03,1.227336e+04
1.321966e+03,1.226999e+04
1.324858e+03,1.225254e+04
1.327751e+03,1.227167e+04
1.330644e+03,1.230208e+04
1.333536e+03,1.233858e+04
1.336429e+03,1.235397e+04
1.339322e+03,1.236213e+04
1.342214e+03,1.236083e+04
1.345107e+03,1.237413e+04
1.348000e+03,1.240926e+04
1.350893e+03,1.242690e+04
1.353785e+03,1.245105e+04
1.356678e+03,1.244352e+04
1.359571e+03,1.245997e+04
1.362463e+03,1.247704e+04
1.365356e+03,1.252285e+04
1.368249e+03,1.254573e+04
1.371141e+03,1.256569e+04
1.374034e+03,1.257515e+04
1.376927e+03,1.259968e+04
1.379820e+03,1.264369e+04
1.382712e+03,1.268462e+04
1.385605e+03,1.272639e+04
1.388498e+03,1.273648e+04
1.391390e+03,1.275552e+04
1.394283e+03,1.279445e+04
1.397176e+03,1.285091e+04
1.400068e+03,1.290108e+04
1.402961e+03,1.291931e+04
1.405854e+03,1.292941e+04
1.408747e+03,1.296993e+04
1.411639e+03,1.304413e+04
1.414532e+03,1.306945e+04
1.417425e+03,1.311092e+04
1.420317e+03,1.312560e+04
1.423210e+03,1.314874e+04
1.426103e+03,1.321487e+04
1.428995e+03,1.326814e+04
1.431888e+03,1.330421e+04
1.434781e+03,1.331469e+04
1.437674e+03,1.334780e+04
1.440566e+03,1.339520e+04
1.443459e+03,1.346514e+04
1.446352e+03,1.350880e+04
1.449244e+03,1.350886e+04
1.452137e+03,1.355963e+04
1.455030e+03,1.361478e+04
1.457922e+03,1.368887e+04
1.460815e+03,1.376501e+04
1.463708e+03,1.378466e+04
1.466601e+03,1.380993e+04
1.469493e+03,1.387589e+04
1.472386e+03,1.393552e+04
1.475279e+03,1.401144e+04
1.478171e+03,1.405714e+04
1.481064e+03,1.409178e+04
1.483957e+03,1.414603e+04
1.486849e+03,1.423150e+04
1.489742e+03,1.428720e+04
1.492635e+03,1.432543e+04
1.495528e+03,1.440002e+04
1.498420e+03,1.444047e+04
1.501313e+03,1.450363e+04
1.504206e+03,1.459644e+04
1.507098e+03,1.466777e+04
1.509991e+03,1.472057e+04
1.512884e+03,1.476067e+04
1.515776e+03,1.484341e+04
1.518669e+03,1.492455e+04
1.521562e+03,1.502356e+04
1.524455e+03,1.509408e+04
1.527347e+03,1.513669e+04
1.530240e+03,1.520770e+04
1.533133e+03,1.529737e+04
1.536025e+03,1.537480e+04
1.538918e+03,1.543901e+04
1.541811e+03,1.551598e+04
1.544703e+03,1.556569e+04
1.547596e+03,1.564567e+04
1.550489e+03,1.576045e+04
1.553382e+03,1.585137e+04
1.556274e+03,1.592042e+04
1.559167e+03,1.598767e+04
1.562060e+03,1.604976e+04
1.564952e+03,1.613785e+04
1.567845e+03,1.624655e+04
1.570738e+03,1.632206e+04
1.573630e+03,1.637573e+04
1.576523e+03,1.644279e+04
1.579416e+03,1.655654e+04
1.582309e+03,1.663936e+04
1.585201e+03,1.671760e+04
1.588094e+03,1.679502e+04
1.590987e+03,1.685516e+04
1.593879e+03,1.698076e+04
1.596772e+03,1.707107e+04
1.599665e+03,1.715709e+04
1.602557e+03,1.724080e+04
1.605450e+03,1.731072e+04
1.608343e+03,1.739321e+04
1.611236e+03,1.749376e+04
1.614128e+03,1.758921e+04
1.617021e+03,1.770364e+04
1.619914e+03,1.777642e+04
1.622806e+03,1.783799e+04
1.625699e+03,1.795261e+04
1.628592e+03,1.806086e+04
1.631484e+03,1.814701e+04
1.634377e+03,1.825350e+04
1.637270e+03,1.834828e+04
1.640163e+03,1.842767e+04
1.643055e+03,1.856513e+04
1.645948e+03,1.867320e+04
1.648841e+03,1.873271e+04
1.651733e+03,1.883511e+04
1.654626e+03,1.895672e+04
1.657519e+03,1.903647e+04
1.660411e+03,1.914652e+04
1.663304e+03,1.921766e+04
1.666197e+03,1.932018e+04
1.669090e+03,1.941108e+04
1.671982e+03,1.951101e+04
1.674875e+03,1.964971e+04
1.677768e+03,1.973533e+04
1.680660e+03,1.985050e+04
1.683553e+03,1.992278e+04
1.686446e+03,2.003436e+04
1.689339e+03,2.015400e+04
1.692231e+03,2.027444e+04
1.695124e+03,2.039503e+04
1.698017e+03,2.051628e+04
1.700909e+03,2.061553e+04
1.703802e+03,2.074093e+04
1.706695e+03,2.084594e+04
1.709587e+03,2.096054e+04
1.712480e+03,2.108081e+04
1.715373e+03,2.114628e+04
1.718266e+03,2.126136e+04
1.721158e+03,2.140798e+04
1.724051e+03,2.150703e+04
1.726944e+03,2.159301e+04
1.729836e+03,2.172187e+04
1.732729e+03,2.182660e+04
1.735622e+03,2.194933e+04
1.738514e+03,2.207526e+04
1.741407e+03,2.218816e+04
1.744300e+03,2.227927e+04
1.747193e+03,2.233284e+04
1.750085e+03,2.249852e+04
1.752978e+03,2.261515e+04
1.755871e+03,2.275581e+04
1.758763e+03,2.277050e+04
1.761656e+03,2.284501e+04
1.764549e+03,2.300231e+04
1.767441e+03,2.310312e+04
1.770334e+03,2.322871e+04
1.773227e+03,2.333476e+04
1.776120e+03,2.341055e+04
1.779012e+03,2.347388e+04
1.781905e+03,2.363033e+04
1.784798e+03,2.375264e+04
1.787690e+03,2.381703e+04
1.790583e+03,2.386369e+04
1.793476e+03,2.394513e+04
1.796368e+03,2.408406e+04
1.799261e+03,2.419110e+04
1.802154e+03,2.425899e+04
1.805047e+03,2.428154e+04
1.807939e+03,2.440076e+04
1.810832e+03,2.449952e+04
1.813725e+03,2.460754e+04
1.816617e+03,2.469773e+04
1.819510e+03,2.477828e+04
1.822403e+03,2.483762e+04
1.825295e+03,2.493806e+04
1.828188e+03,2.503820e+04
1.831081e+03,2.520150e+04
1.833974e+03,2.522142e+04
1.836866e+03,2.530555e+04
1.839759e+03,2.536313e+04
1.842652e+03,2.551486e+04
1.845544e+03,2.561935e+04
1.848437e+03,2.566866e+04
1.851330e+03,2.567389e+04
1.854222e+03,2.574513e+04
1.857115e+03,2.587970e+04
1.860008e+03,2.595329e+04
1.862901e+03,2.605221e+04
1.865793e+03,2.612380e+04
1.868686e+03,2.618116e+04
1.871579e+03,2.627705e+04
1.874471e+03,2.643689e+04
1.877364e+03,2.648042e+04
1.880257e+03,2.651814e+04
1.883149e+03,2.655729e+04
1.886042e+03,2.666502e+04
1.888935e+03,2.675318e+04
1.891828e+03,2.689672e+04
1.894720e+03,2.692222e+04
1.897613e+03,2.700878e+04
1.900506e+03,2.706147e+04
1.903398e+03,2.712598e+04
1.906291e+03,2.724303e+04
1.909184e+03,2.733522e+04
1.912076e+03,2.730016e+04
1.914969e+03,2.724732e+04
1.917862e+03,2.729350e+04
1.920755e+03,2.737400e+04
1.923647e+03,2.745314e+04
1.926540e+03,2.746339e+04
1.929433e+03,2.747659e+04
1.932325e+03,2.737003e+04
1.935218e+03,2.731094e+04
1.938111e+03,2.728235e+04
1.941003e+03,2.732775e+04
1.943896e+03,2.718504e+04
1.946789e+03,2.703608e+04
1.949682e+03,2.704772e+04
1.952574e+03,2.693374e+04
1.955467e+03,2.696778e+04
1.958360e+03,2.693683e+04
1.961252e+03,2.684019e+04
1.964145e+03,2.670503e+04
1.967038e+03,2.660146e+04
1.969930e+03,2.669579e+04
1.972823e+03,2.647058e+04
1.975716e+03,2.649085e+04
1.978609e+03,2.640537e+04
1.981501e+03,2.634533e+04
1.984394e+03,2.624606e+04
1.987287e+03,2.630070e+04
1.990179e+03,2.609588e+04
1.993072e+03,2.612851e+04
1.995965e+03,2.605746e+04
1.998857e+03,2.605111e+04
2.001750e+03,2.600614e+04
2.004643e+03,2.583032e+04
2.007536e+03,2.576437e+04
2.010428e+03,2.569297e+04
2.013321e+03,2.573763e+04
2.016214e+03,2.556606e+04
2.019106e+03,2.560261e+04
2.021999e+03,2.541744e+04
2.024892e+03,2.533115e+04
2.027784e+03,2.524551e+04
2.030677e+03,2.523537e+04
2.033570e+03,2.513252e+04
2.036463e+03,2.506746e+04
2.039355e+03,2.489983e+04
2.042248e+03,2.484596e+04
2.045141e+03,2.483359e+04
2.048033e+03,2.478131e+04
2.050926e+03,2.475055e+04
2.053819e+03,2.466428e+04
2.056711e+03,2.455249e+04
2.059604e+03,2.445071e+04
2.062497e+03,2.449018e+04
2.065390e+03,2.438249e+04
2.068282e+03,2.427692e+04
2.071175e+03,2.420901e+04
2.074068e+03,2.411596e+04
2.076960e+03,2.404818e+04
2.079853e+03,2.409581e+04
2.082746e+03,2.390500e+04
2.085638e+03,2.376032e+04
2.088531e+03,2.386678e+04
2.091424e+03,2.374529e+04
2.094316e+03,2.365428e+04
2.097209e+03,2.369503e+04
2.100102e+03,2.356256e+04
2.102995e+03,2.348561e+04
2.105887e+03,2.334875e+04
2.108780e+03,2.341825e+04
2.111673e+03,2.332270e+04
2.114565e+03,2.316419e+04
2.117458e+03,2.296118e+04
2.120351e+03,2.316064e+04
2.123244e+03,2.307444e+04
2.126136e+03,2.286256e+04
2.129029e+03,2.279581e+04
2.131922e+03,2.281751e+04
2.134814e+03,2.277481e+04
2.137707e+03,2.271599e+04
2.140600e+03,2.264824e+04
2.143492e+03,2.253380e+04
2.146385e+03,2.248517e+04
2.149278e+03,2.236341e+04
2.152170e+03,2.241500e+04
2.155063e+03,2.219008e+04
2.157956e+03,2.220535e+04
2.160849e+03,2.215758e+04
2.163741e+03,2.215008e+04
2.166634e+03,2.201157e+04
2.169527e+03,2.201402e+04
2.172419e+03,2.198982e+04
2.175312e+03,2.190250e+04
2.178205e+03,2.167582e+04
2.181098e+03,2.161687e+04
2.183990e+03,2.165913e+04
2.186883e+03,2.163374e+04
2.189776e+03,2.155882e+04
2.192668e+03,2.143121e+04
2.195561e+03,2.143442e+04
2.198454e+03,2.132669e+04
2.201346e+03,2.125151e+04
2.204239e+03,2.121374e+04
2.207132e+03,2.121975e+04
2.210024e+03,2.093926e+04
2.212917e+03,2.080947e+04
2.215810e+03,2.095421e+04
2.218703e+03,2.084773e+04
2.221595e+03,2.076511e+04
2.224488e+03,2.061350e+04
2.227381e+03,2.049214e+04
2.230273e+03,2.052535e+04
2.233166e+03,2.052292e+04
2.236059e+03,2.042265e+04
2.238952e+03,2.030073e+04
2.241844e+03,2.019865e+04
2.244737e+03,2.011498e+04
2.247630e+03,2.012740e+04
2.250522e+03,2.008149e+04
2.253415e+03,2.000830e+04
2.256308e+03,1.987563e+04
2.259200e+03,1.984098e+04
2.262093e+03,1.975937e+04
2.264986e+03,1.972164e+04
2.267879e+03,1.968773e+04
2.270771e+03,1.954911e+04
2.273664e+03,1.940452e+04
2.276557e+03,1.949832e+04
2.279449e+03,1.941449e+04
2.282342e+03,1.934267e+04
2.285235e+03,1.920444e+04
2.288127e+03,1.917771e+04
2.291020e+03,1.909122e+04
2.293913e+03,1.905475e+04
2.296805e+03,1.911506e+04
2.299698e+03,1.905030e+04
2.302591e+03,1.889839e+04
2.305484e+03,1.879985e+04
2.308376e+03,1.871654e+04
2.311269e+03,1.871035e+04
2.314162e+03,1.869270e+04
2.317054e+03,1.860895e+04
2.319947e+03,1.851434e+04
2.322840e+03,1.853307e+04
2.325733e+03,1.848760e+04
2.328625e+03,1.848891e+04
2.331518e+03,1.834749e+04
2.334411e+03,1.827319e+04
2.337303e+03,1.816671e+04
2.340196e+03,1.803681e+04
2.343089e+03,1.814608e+04
2.345981e+03,1.814024e+04
2.348874e+03,1.800601e+04
2.351767e+03,1.784765e+04
2.354659e+03,1.783568e+04
2.357552e+03,1.782125e+04
2.360445e+03,1.783056e+04
2.363338e+03,1.768315e+04
2.366230e+03,1.752191e+04
2.369123e+03,1.756677e+04
2.372016e+03,1.748206e+04
2.374908e+03,1.746533e+04
2.377801e+03,1.737599e+04
2.380694e+03,1.725595e+04
2.383587e+03,1.725413e+04
2.386479e+03,1.723249e+04
2.389372e+03,1.713119e+04
2.392265e+03,1.711217e+04
2.395157e+03,1.710473e+04
2.398050e+03,1.694529e+04
2.400943e+03,1.690329e+04
2.403835e+03,1.688600e+04
2.406728e+03,1.685958e+04
2.409621e+03,1.670730e+04
2.412513e+03,1.662801e+04
2.415406e+03,1.659272e+04
2.418299e+03,1.657738e+04
2.421192e+03,1.655569e+04
2.424084e+03,1.643033e+04
2.426977e+03,1.640627e+04
2.429870e+03,1.634545e+04
2.432762e+03,1.634302e+04
2.435655e+03,1.632769e+04
2.438548e+03,1.620144e+04
2.441441e+03,1.610818e+04
2.444333e+03,1.604884e+04
2.447226e+03,1.603208e+04
2.450119e+03,1.595100e+04
2.453011e+03,1.590502e+04
2.455904e+03,1.592717e+04
2.458797e+03,1.579188e+04
2.461689e+03,1.572352e+04
2.464582e+03,1.566725e+04
2.467475e+03,1.567671e+04
2.470367e+03,1.558225e+04
2.473260e+03,1.549599e+04
2.476153e+03,1.545094e+04
2.479046e+03,1.548791e+04
2.481938e+03,1.535180e+04
2.484831e+03,1.538340e+04
2.487724e+03,1.531296e+04
2.490616e+03,1.521482e+04
2.493509e+03,1.519158e+04
2.496402e+03,1.509924e+04
2.499295e+03,1.512570e+04
2.502187e+03,1.508618e+04
2.505080e+03,1.501396e+04
2.507973e+03,1.497650e+04
2.510865e+03,1.486540e+04
2.513758e+03,1.483277e+04
2.516651e+03,1.477242e+04
2.519543e+03,1.474517e+04
2.522436e+03,1.467953e+04
2.525329e+03,1.464869e+04
2.528221e+03,1.461522e+04
2.531114e+03,1.461421e+04
2.534007e+03,1.448553e+04
2.536900e+03,1.446888e+04
2.539792e+03,1.440282e+04
2.542685e+03,1.436820e+04
2.545578e+03,1.429918e+04
2.548470e+03,1.435201e+04
2.551363e+03,1.430509e+04
2.554256e+03,1.411458e+04
2.557149e+03,1.414206e+04
2.560041e+03,1.413267e+04
2.562934e+03,1.409800e+04
2.565827e+03,1.402000e+04
2.568719e+03,1.400774e+04
2.571612e+03,1.391754e+04
2.574505e+03,1.392372e+04
2.577397e+03,1.387713e+04
2.580290e+03,1.380576e+04
2.583183e+03,1.380428e+04
2.586075e+03,1.372323e+04
2.588968e+03,1.372181e+04
2.591861e+03,1.364808e+04
2.594754e+03,1.362098e+04
2.597646e+03,1.357134e+04
2.600539e+03,1.351226e+04
2.603432e+03,1.340999e+04
2.606324e+03,1.348232e+04
2.609217e+03,1.347153e+04
2.612110e+03,1.332958e+04
2.615003e+03,1.335827e+04
2.617895e+03,1.330582e+04
2.620788e+03,1.325061e+04
2.623681e+03,1.319532e+04
2.626573e+03,1.322531e+04
2.629466e+03,1.310874e+04
2.632359e+03,1.307153e+04
2.635251e+03,1.304321e+04
2.638144e+03,1.304096e+04
2.641037e+03,1.296128e+04
2.643929e+03,1.291625e+04
2.646822e+03,1.291009e+04
2.649715e+03,1.292330e+04
2.652608e+03,1.283201e+04
2.655500e+03,1.277510e+04
2.658393e+03,1.275374e+04
2.661286e+03,1.268833e+04
2.664178e+03,1.273619e+04
2.667071e+03,1.262242e+04
2.669964e+03,1.259798e+04
2.672857e+03,1.260011e+04
2.675749e+03,1.249744e+04
2.678642e+03,1.252171e+04
2.681535e+03,1.245449e+04
2.684427e+03,1.240292e+04
2.687320e+03,1.239502e+04
2.690213e+03,1.238043e+04
2.693105e+03,1.232404e+04
2.695998e+03,1.233487e+04
2.698891e+03,1.224413e+04
2.701783e+03,1.225025e+04
2.704676e+03,1.216356e+04
2.707569e+03,1.214418e+04
2.710462e+03,1.208844e+04
2.713354e+03,1.208945e+04
2.716247e+03,1.205692e+04
2.719140e+03,1.204476e+04
2.722032e+03,1.197037e+04
2.724925e+03,1.195266e+04
2.727818e+03,1.190512e+04
2.730711e+03,1.190371e+04
2.733603e+03,1.187533e+04
2.736496e+03,1.181238e+04
2.739389e+03,1.185153e+04
2.742281e+03,1.170030e+04
2.745174e+03,1.170694e+04
2.748067e+03,1.173630e+04
2.750959e+03,1.161296e+04
2.753852e+03,1.171206e+04
2.756745e+03,1.157741e+04
2.759637e+03,1.156253e+04
2.762530e+03,1.152204e+04
2.765423e+03,1.153522e+04
2.768316e+03,1.146756e+04
2.771208e+03,1.151714e+04
2.774101e+03,1.143018e+04
2.776994e+03,1.135843e+04
2.779886e+03,1.132788e+04
2.782779e+03,1.128947e+04
2.785672e+03,1.131792e+04
2.788565e+03,1.126668e+04
2.791457e+03,1.128170e+04
2.794350e+03,1.122346e+04
2.797243e+03,1.121063e+04
2.800135e+03,1.117093e+04
2.803028e+03,1.117146e+04
2.805921e+03,1.110999e+04
2.808813e+03,1.101245e+04
2.811706e+03,1.101055e+04
2.814599e+03,1.107693e+04
2.817491e+03,1.092769e+04
2.820384e+03,1.097390e+04
2.823277e+03,1.088805e+04
2.826170e+03,1.091136e+04
2.829062e+03,1.087388e+04
2.831955e+03,1.092404e+04
2.834848e+03,1.092140e+04
2.837740e+03,1.079025e+04
2.840633e+03,1.083298e+04
2.843526e+03,1.066558e+04
2.846419e+03,1.069464e+04
2.849311e+03,1.069323e+04
2.852204e+03,1.069390e+04
2.855097e+03,1.065794e+04
2.857990e+03,1.065686e+04
2.860882e+03,1.059139e+04
2.863775e+03,1.055359e+04
2.866667e+03,1.060406e+04
2.869560e+03,1.053038e+04
2.872453e+03,1.054367e+04
2.875345e+03,1.047942e+04
2.878238e+03,1.047376e+04
2.881131e+03,1.049884e+04
2.884024e+03,1.046126e+04
2.886916e+03,1.045653e+04
2.889809e+03,1.040390e+04
2.892702e+03,1.036301e+04
2.895594e+03,1.037340e+04
2.898487e+03,1.039178e+04
2.901380e+03,1.040116e+04
2.904273e+03,1.033062e+04
2.907165e+03,1.030415e+04
2.910058e+03,1.024081e+04
2.912951e+03,1.028332e+04
2.915844e+03,1.012175e+04
2.918736e+03,1.023694e+04
2.921629e+03,1.014241e+04
2.924521e+03,1.012133e+04
2.927414e+03,1.012632e+04
2.930307e+03,1.009026e+04
2.933199e+03,1.007759e+04
2.936092e+03,9.971466e+03
2.938985e+03,9.946770e+03
2.941878e+03,1.000584e+04
2.944770e+03,1.000875e+04
2.947663e+03,9.970882e+03
2.950556e+03,9.996884e+03
2.953448e+03,9.948388e+03
2.956341e+03,9.945314e+03
2.959234e+03,9.904728e+03
2.962127e+03,9.896073e+03
2.965019e+03,9.794076e+03
2.967912e+03,9.761556e+03
2.970805e+03,9.869256e+03
2.973698e+03,9.792412e+03
2.976590e+03,9.804884e+03
2.979483e+03,9.758021e+03
2.982375e+03,9.736719e+03
2.985268e+03,9.646170e+03
2.988161e+03,9.601807e+03
2.991053e+03,9.687458e+03
2.993946e+03,9.616052e+03
2.996839e+03,9.680127e+03
2.999732e+03,9.578326e+03
3.002624e+03,9.626519e+03
3.005517e+03,9.524495e+03
3.008410e+03,9.596497e+03
3.011302e+03,9.594401e+03
3.014195e+03,9.517361e+03
3.017088e+03,9.473737e+03
3.019981e+03,9.450591e+03
3.022873e+03,9.432156e+03
3.025766e+03,9.555677e+03
3.028659e+03,9.397344e+03
3.031552e+03,9.424547e+03
3.034444e+03,9.338415e+03
3.037337e+03,9.438206e+03
3.040229e+03,9.404293e+03
3.043122e+03,9.353121e+03
3.046015e+03,9.406679e+03
3.048907e+03,9.309674e+03
3.051800e+03,9.350058e+03
3.054693e+03,9.308296e+03
3.057586e+03,9.296653e+03
3.060478e+03,9.213493e+03
3.063371e+03,9.313384e+03
3.066264e+03,9.265553e+03
3.069156e+03,9.227542e+03
3.072049e+03,9.200264e+03
3.074942e+03,9.303563e+03
3.077835e+03,9.285679e+03
3.080727e+03,9.195777e+03
3.083620e+03,9.227719e+03
3.086513e+03,9.124857e+03
3.089406e+03,9.124829e+03
3.092298e+03,9.192940e+03
3.095191e+03,9.165960e+03
3.098083e+03,9.154868e+03
3.100976e+03,9.246677e+03
3.103869e+03,9.175544e+03
3.106761e+03,9.163435e+03
3.109654e+03,9.013946e+03
3.112547e+03,9.094216e+03
3.115440e+03,9.126099e+03
3.118332e+03,9.109254e+03
3.121225e+03,9.111038e+03
3.124118e+03,9.028519e+03
3.127010e+03,9.129894e+03
3.129903e+03,9.039786e+03
3.132796e+03,9.142196e+03
3.135689e+03,9.209966e+03
3.138581e+03,9.128473e+03
3.141474e+03,9.110700e+03
3.144367e+03,9.008240e+03
3.147260e+03,9.001866e+03
3.150152e+03,9.081776e+03
3.153045e+03,9.195327e+03
3.155938e+03,9.076284e+03
3.158830e+03,8.956348e+03
3.161723e+03,9.146344e+03
3.164615e+03,9.056611e+03
3.167508e+03,9.055652e+03
3.170401e+03,8.992753e+03
3.173294e+03,8.998229e+03
3.176186e+03,9.066885e+03
3.179079e+03,9.017495e+03
3.181972e+03,8.976837e+03
3.184865e+03,9.030928e+03
3.187757e+03,9.007989e+03
3.190650e+03,9.075467e+03
3.193543e+03,9.010346e+03
3.196435e+03,8.942476e+03
3.199328e+03,9.139865e+03
3.200292e+03,9.146331e+03