File: RAMAN_data/20012023_r1/blue fibre9.CSV
1.995979e+02,1.046964e+04
2.024906e+02,1.050564e+04
2.053833e+02,1.054303e+04
2.082760e+02,1.055275e+04
2.111687e+02,1.054622e+04
2.140614e+02,1.057110e+04
2.169541e+02,1.059435e+04
2.198468e+02,1.064671e+04
2.227395e+02,1.067257e+04
2.256322e+02,1.068503e+04
2.285249e+02,1.070199e+04
2.314176e+02,1.075159e+04
2.343103e+02,1.078854e+04
2.372030e+02,1.082920e+04
2.400957e+02,1.083586e+04
2.429884e+02,1.084039e+04
2.458811e+02,1.087555e+04
2.487738e+02,1.091119e+04
2.516665e+02,1.094691e+04
2.545592e+02,1.097477e+04
2.574519e+02,1.097223e+04
2.603446e+02,1.100378e+04
2.632373e+02,1.105562e+04
2.661300e+02,1.109288e+04
2.690227e+02,1.111871e+04
2.719154e+02,1.114331e+04
2.748081e+02,1.116541e+04
2.777008e+02,1.121963e+04
2.805935e+02,1.124688e+04
2.834862e+02,1.127886e+04
2.863789e+02,1.128756e+04
2.892716e+02,1.130667e+04
2.921643e+02,1.133578e+04
2.950570e+02,1.137532e+04
2.979497e+02,1.141115e+04
3.008424e+02,1.142350e+04
3.037351e+02,1.145768e+04
3.066278e+02,1.148101e+04
3.095205e+02,1.151189e+04
3.124132e+02,1.156491e+04
3.153059e+02,1.159377e+04
3.181986e+02,1.160278e+04
3.210913e+02,1.162868e+04
3.239840e+02,1.167008e+04
3.268767e+02,1.171076e+04
3.297694e+02,1.174823e+04
3.326621e+02,1.177917e+04
3.355548e+02,1.179020e+04
3.384475e+02,1.182536e+04
3.413402e+02,1.187475e+04
3.442329e+02,1.193150e+04
3.471256e+02,1.197256e+04
3.500183e+02,1.198235e+04
3.529110e+02,1.201902e+04
3.558037e+02,1.207473e+04
3.586964e+02,1.211193e+04
3.615891e+02,1.215814e+04
3.644818e+02,1.215827e+04
3.673745e+02,1.215997e+04
3.702672e+02,1.222116e+04
3.731599e+02,1.226728e+04
3.760526e+02,1.229588e+04
3.789453e+02,1.234456e+04
3.818380e+02,1.236471e+04
3.847307e+02,1.239503e+04
3.876234e+02,1.244819e+04
3.905161e+02,1.250335e+04
3.934088e+02,1.253735e+04
3.963015e+02,1.256595e+04
3.991942e+02,1.258175e+04
4.020869e+02,1.263801e+04
4.049796e+02,1.267012e+04
4.078723e+02,1.271719e+04
4.107650e+02,1.273667e+04
4.136577e+02,1.276351e+04
4.165504e+02,1.279876e+04
4.194431e+02,1.284042e+04
4.223358e+02,1.287724e+04
4.252285e+02,1.290059e+04
4.281212e+02,1.293422e+04
4.310139e+02,1.297290e+04
4.339066e+02,1.302397e+04
4.367993e+02,1.308250e+04
4.396920e+02,1.312154e+04
4.425847e+02,1.316490e+04
4.454774e+02,1.320192e+04
4.483701e+02,1.325284e+04
4.512628e+02,1.328288e+04
4.541555e+02,1.331778e+04
4.570482e+02,1.332676e+04
4.599409e+02,1.336213e+04
4.628336e+02,1.339856e+04
4.657263e+02,1.341577e+04
4.686190e+02,1.345959e+04
4.715117e+02,1.350331e+04
4.744044e+02,1.352671e+04
4.772971e+02,1.355213e+04
4.801898e+02,1.358607e+04
4.830825e+02,1.363477e+04
4.859752e+02,1.367048e+04
4.888679e+02,1.369953e+04
4.917606e+02,1.373081e+04
4.946533e+02,1.377487e+04
4.975460e+02,1.382020e+04
5.004387e+02,1.385327e+04
5.033314e+02,1.386479e+04
5.062241e+02,1.388943e+04
5.091168e+02,1.390177e+04
5.120095e+02,1.393477e+04
5.149022e+02,1.397866e+04
5.177949e+02,1.401878e+04
5.206876e+02,1.400367e+04
5.235803e+02,1.404020e+04
5.264730e+02,1.408429e+04
5.293657e+02,1.412550e+04
5.322584e+02,1.412197e+04
5.351511e+02,1.414131e+04
5.380438e+02,1.416168e+04
5.409365e+02,1.420013e+04
5.438292e+02,1.425011e+04
5.467219e+02,1.427737e+04
5.496146e+02,1.428900e+04
5.525073e+02,1.427654e+04
5.554000e+02,1.430265e+04
5.582927e+02,1.434608e+04
5.611854e+02,1.438454e+04
5.640781e+02,1.440638e+04
5.669708e+02,1.440352e+04
5.698635e+02,1.440597e+04
5.727562e+02,1.444706e+04
5.756489e+02,1.450327e+04
5.785416e+02,1.453512e+04
5.814343e+02,1.455359e+04
5.843270e+02,1.456812e+04
5.872197e+02,1.460200e+04
5.901124e+02,1.464325e+04
5.930051e+02,1.468703e+04
5.958978e+02,1.471322e+04
5.987905e+02,1.471903e+04
6.016832e+02,1.473596e+04
6.045759e+02,1.478114e+04
6.074686e+02,1.480414e+04
6.103613e+02,1.480117e+04
6.132540e+02,1.479843e+04
6.161467e+02,1.479927e+04
6.190394e+02,1.483061e+04
6.219321e+02,1.486313e+04
6.248248e+02,1.490432e+04
6.277175e+02,1.490618e+04
6.306102e+02,1.490276e+04
6.335029e+02,1.493296e+04
6.363956e+02,1.497678e+04
6.392883e+02,1.499267e+04
6.421810e+02,1.500636e+04
6.450737e+02,1.500892e+04
6.479664e+02,1.503495e+04
6.508591e+02,1.508691e+04
6.537518e+02,1.510635e+04
6.566445e+02,1.508685e+04
6.595372e+02,1.508742e+04
6.624299e+02,1.509944e+04
6.653226e+02,1.513359e+04
6.682153e+02,1.516213e+04
6.711080e+02,1.517949e+04
6.740007e+02,1.515898e+04
6.768934e+02,1.514694e+04
6.797861e+02,1.515119e+04
6.826788e+02,1.519003e+04
6.855715e+02,1.518019e+04
6.884642e+02,1.517099e+04
6.913569e+02,1.512635e+04
6.942496e+02,1.515061e+04
6.971423e+02,1.514228e+04
7.000350e+02,1.517983e+04
7.029277e+02,1.514447e+04
7.058204e+02,1.515873e+04
7.087131e+02,1.514847e+04
7.116058e+02,1.513376e+04
7.144985e+02,1.513210e+04
7.173912e+02,1.518576e+04
7.202839e+02,1.513366e+04
7.231766e+02,1.511419e+04
7.260693e+02,1.511760e+04
7.289620e+02,1.510465e+04
7.318547e+02,1.507450e+04
7.347474e+02,1.506502e+04
7.376401e+02,1.505979e+04
7.405328e+02,1.509843e+04
7.434255e+02,1.505644e+04
7.463182e+02,1.512067e+04
7.492109e+02,1.511050e+04
7.521036e+02,1.506775e+04
7.549963e+02,1.504865e+04
7.578890e+02,1.504666e+04
7.607817e+02,1.508978e+04
7.636744e+02,1.501030e+04
7.665671e+02,1.503116e+04
7.694598e+02,1.503608e+04
7.723525e+02,1.504796e+04
7.752452e+02,1.506354e+04
7.781379e+02,1.509730e+04
7.810306e+02,1.509138e+04
7.839233e+02,1.506098e+04
7.868160e+02,1.507158e+04
7.897087e+02,1.502745e+04
7.926014e+02,1.503967e+04
7.954941e+02,1.495571e+04
7.983868e+02,1.491896e+04
8.012795e+02,1.486475e+04
8.041722e+02,1.485528e+04
8.070649e+02,1.487599e+04
8.099576e+02,1.481356e+04
8.128503e+02,1.482208e+04
8.157430e+02,1.483937e+04
8.186357e+02,1.478931e+04
8.215284e+02,1.480321e+04
8.244211e+02,1.474969e+04
8.273138e+02,1.476654e+04
8.302065e+02,1.474488e+04
8.330992e+02,1.472827e+04
8.359919e+02,1.475491e+04
8.388846e+02,1.473799e+04
8.417773e+02,1.472497e+04
8.446700e+02,1.462401e+04
8.475627e+02,1.463438e+04
8.504554e+02,1.461633e+04
8.533481e+02,1.461689e+04
8.562408e+02,1.460760e+04
8.591335e+02,1.456201e+04
8.620262e+02,1.456280e+04
8.649189e+02,1.451370e+04
8.678116e+02,1.448671e+04
8.707043e+02,1.448626e+04
8.735970e+02,1.448206e+04
8.764897e+02,1.442525e+04
8.793824e+02,1.442140e+04
8.822751e+02,1.442272e+04
8.851678e+02,1.445328e+04
8.880605e+02,1.441140e+04
8.909532e+02,1.439450e+04
8.938459e+02,1.429413e+04
8.967386e+02,1.432442e+04
8.996313e+02,1.429830e+04
9.025240e+02,1.428772e+04
9.054167e+02,1.426005e+04
9.083094e+02,1.423145e+04
9.112021e+02,1.419518e+04
9.140948e+02,1.417265e+04
9.169875e+02,1.412584e+04
9.198802e+02,1.409076e+04
9.227729e+02,1.408289e+04
9.256656e+02,1.402518e+04
9.285583e+02,1.408876e+04
9.314510e+02,1.402911e+04
9.343438e+02,1.400090e+04
9.372365e+02,1.403759e+04
9.401292e+02,1.396015e+04
9.430219e+02,1.394283e+04
9.459146e+02,1.397383e+04
9.488073e+02,1.396276e+04
9.517000e+02,1.384988e+04
9.545927e+02,1.384442e+04
9.574854e+02,1.379865e+04
9.603781e+02,1.378674e+04
9.632708e+02,1.378233e+04
9.661635e+02,1.374966e+04
9.690562e+02,1.371463e+04
9.719489e+02,1.367459e+04
9.748416e+02,1.364285e+04
9.777343e+02,1.364010e+04
9.806270e+02,1.361904e+04
9.835197e+02,1.356911e+04
9.864124e+02,1.355541e+04
9.893051e+02,1.349926e+04
9.921978e+02,1.352377e+04
9.950905e+02,1.354139e+04
9.979832e+02,1.347114e+04
1.000876e+03,1.340222e+04
1.003769e+03,1.340374e+04
1.006661e+03,1.336239e+04
1.009554e+03,1.337973e+04
1.012447e+03,1.336179e+04
1.015339e+03,1.329992e+04
1.018232e+03,1.326863e+04
1.021125e+03,1.322367e+04
1.024017e+03,1.325603e+04
1.026910e+03,1.321860e+04
1.029803e+03,1.316241e+04
1.032696e+03,1.313088e+04
1.035588e+03,1.310852e+04
1.038481e+03,1.313861e+04
1.041374e+03,1.309726e+04
1.044266e+03,1.305193e+04
1.047159e+03,1.305335e+04
1.050052e+03,1.298798e+04
1.052944e+03,1.300250e+04
1.055837e+03,1.301232e+04
1.058730e+03,1.296014e+04
1.061623e+03,1.291414e+04
1.064515e+03,1.292422e+04
1.067408e+03,1.294505e+04
1.070301e+03,1.297675e+04
1.073193e+03,1.296403e+04
1.076086e+03,1.291724e+04
1.078979e+03,1.285442e+04
1.081871e+03,1.288931e+04
1.084764e+03,1.287206e+04
1.087657e+03,1.283581e+04
1.090550e+03,1.275304e+04
1.093442e+03,1.269511e+04
1.096335e+03,1.265484e+04
1.099228e+03,1.264528e+04
1.102120e+03,1.261207e+04
1.105013e+03,1.257094e+04
1.107906e+03,1.253034e+04
1.110798e+03,1.252214e+04
1.113691e+03,1.248259e+04
1.116584e+03,1.251336e+04
1.119477e+03,1.248320e+04
1.122369e+03,1.245977e+04
1.125262e+03,1.240578e+04
1.128155e+03,1.238994e+04
1.131047e+03,1.235588e+04
1.133940e+03,1.238175e+04
1.136833e+03,1.231817e+04
1.139725e+03,1.229415e+04
1.142618e+03,1.225829e+04
1.145511e+03,1.223312e+04
1.148404e+03,1.222264e+04
1.151296e+03,1.221500e+04
1.154189e+03,1.215778e+04
1.157082e+03,1.210342e+04
1.159974e+03,1.212361e+04
1.162867e+03,1.212604e+04
1.165760e+03,1.210872e+04
1.168652e+03,1.209775e+04
1.171545e+03,1.203654e+04
1.174438e+03,1.203804e+04
1.177331e+03,1.201892e+04
1.180223e+03,1.202805e+04
1.183116e+03,1.197880e+04
1.186009e+03,1.195965e+04
1.188901e+03,1.194937e+04
1.191794e+03,1.192294e+04
1.194687e+03,1.191555e+04
1.197579e+03,1.190471e+04
1.200472e+03,1.183861e+04
1.203365e+03,1.175391e+04
1.206258e+03,1.171364e+04
1.209150e+03,1.172128e+04
1.212043e+03,1.170687e+04
1.214936e+03,1.166358e+04
1.217828e+03,1.161129e+04
1.220721e+03,1.167151e+04
1.223614e+03,1.166870e+04
1.226506e+03,1.163044e+04
1.229399e+03,1.159388e+04
1.232292e+03,1.151495e+04
1.235185e+03,1.147115e+04
1.238077e+03,1.149215e+04
1.240970e+03,1.150835e+04
1.243863e+03,1.143869e+04
1.246755e+03,1.140485e+04
1.249648e+03,1.133695e+04
1.252541e+03,1.132686e+04
1.255433e+03,1.129806e+04
1.258326e+03,1.124730e+04
1.261219e+03,1.123023e+04
1.264112e+03,1.117920e+04
1.267004e+03,1.117954e+04
1.269897e+03,1.114698e+04
1.272790e+03,1.114722e+04
1.275682e+03,1.112087e+04
1.278575e+03,1.108633e+04
1.281468e+03,1.105481e+04
1.284360e+03,1.101432e+04
1.287253e+03,1.103689e+04
1.290146e+03,1.100884e+04
1.293039e+03,1.101579e+04
1.295931e+03,1.094355e+04
1.298824e+03,1.091405e+04
1.301717e+03,1.091120e+04
1.304609e+03,1.092045e+04
1.307502e+03,1.093075e+04
1.310395e+03,1.089347e+04
1.313287e+03,1.085137e+04
1.316180e+03,1.082637e+04
1.319073e+03,1.080054e+04
1.321966e+03,1.081040e+04
1.324858e+03,1.077274e+04
1.327751e+03,1.072703e+04
1.330644e+03,1.073331e+04
1.333536e+03,1.075122e+04
1.336429e+03,1.069080e+04
1.339322e+03,1.065228e+04
1.342214e+03,1.059587e+04
1.345107e+03,1.057294e+04
1.348000e+03,1.055791e+04
1.350893e+03,1.054765e+04
1.353785e+03,1.052601e+04
1.356678e+03,1.048640e+04
1.359571e+03,1.044655e+04
1.362463e+03,1.045390e+04
1.365356e+03,1.045735e+04
1.368249e+03,1.043187e+04
1.371141e+03,1.034429e+04
1.374034e+03,1.031761e+04
1.376927e+03,1.029994e+04
1.379820e+03,1.027330e+04
1.382712e+03,1.027256e+04
1.385605e+03,1.025530e+04
1.388498e+03,1.023896e+04
1.391390e+03,1.017638e+04
1.394283e+03,1.018181e+04
1.397176e+03,1.017085e+04
1.400068e+03,1.014586e+04
1.402961e+03,1.017091e+04
1.405854e+03,1.006296e+04
1.408747e+03,1.008063e+04
1.411639e+03,1.005168e+04
1.414532e+03,1.004389e+04
1.417425e+03,1.000359e+04
1.420317e+03,9.954166e+03
1.423210e+03,9.941604e+03
1.426103e+03,9.947827e+03
1.428995e+03,9.925439e+03
1.431888e+03,9.914236e+03
1.434781e+03,9.881766e+03
1.437674e+03,9.848733e+03
1.440566e+03,9.854828e+03
1.443459e+03,9.863202e+03
1.446352e+03,9.835970e+03
1.449244e+03,9.895116e+03
1.452137e+03,9.890132e+03
1.455030e+03,9.859856e+03
1.457922e+03,9.838984e+03
1.460815e+03,9.788251e+03
1.463708e+03,9.716219e+03
1.466601e+03,9.666161e+03
1.469493e+03,9.648702e+03
1.472386e+03,9.628495e+03
1.475279e+03,9.647325e+03
1.478171e+03,9.622569e+03
1.481064e+03,9.612485e+03
1.483957e+03,9.597724e+03
1.486849e+03,9.557593e+03
1.489742e+03,9.558547e+03
1.492635e+03,9.529495e+03
1.495528e+03,9.510859e+03
1.498420e+03,9.503858e+03
1.501313e+03,9.473362e+03
1.504206e+03,9.428932e+03
1.507098e+03,9.540499e+03
1.509991e+03,9.485567e+03
1.512884e+03,9.488088e+03
1.515776e+03,9.427214e+03
1.518669e+03,9.388246e+03
1.521562e+03,9.392144e+03
1.524455e+03,9.321653e+03
1.527347e+03,9.278650e+03
1.530240e+03,9.201792e+03
1.533133e+03,9.250002e+03
1.536025e+03,9.182128e+03
1.538918e+03,9.205667e+03
1.541811e+03,9.171559e+03
1.544703e+03,9.142403e+03
1.547596e+03,9.135655e+03
1.550489e+03,9.139889e+03
1.553382e+03,9.125346e+03
1.556274e+03,9.129297e+03
1.559167e+03,9.129687e+03
1.562060e+03,9.183379e+03
1.564952e+03,9.229268e+03
1.567845e+03,9.308364e+03
1.570738e+03,9.323249e+03
1.573630e+03,9.340901e+03
1.576523e+03,9.223526e+03
1.579416e+03,9.182407e+03
1.582309e+03,9.164299e+03
1.585201e+03,9.120509e+03
1.588094e+03,8.994655e+03
1.590987e+03,8.954717e+03
1.593879e+03,8.890157e+03
1.596772e+03,8.903521e+03
1.599665e+03,8.851628e+03
1.602557e+03,8.866188e+03
1.605450e+03,8.800276e+03
1.608343e+03,8.798415e+03
1.611236e+03,8.775013e+03
1.614128e+03,8.791873e+03
1.617021e+03,8.765137e+03
1.619914e+03,8.746246e+03
1.622806e+03,8.744027e+03
1.625699e+03,8.739542e+03
1.628592e+03,8.761478e+03
1.631484e+03,8.727181e+03
1.634377e+03,8.662745e+03
1.637270e+03,8.630738e+03
1.640163e+03,8.579755e+03
1.643055e+03,8.549084e+03
1.645948e+03,8.513213e+03
1.648841e+03,8.528837e+03
1.651733e+03,8.475532e+03
1.654626e+03,8.458044e+03
1.657519e+03,8.400270e+03
1.660411e+03,8.447356e+03
1.663304e+03,8.399669e+03
1.666197e+03,8.412686e+03
1.669090e+03,8.399362e+03
1.671982e+03,8.415095e+03
1.674875e+03,8.394209e+03
1.677768e+03,8.390244e+03
1.680660e+03,8.358301e+03
1.683553e+03,8.296171e+03
1.686446e+03,8.291304e+03
1.689339e+03,8.250763e+03
1.692231e+03,8.248007e+03
1.695124e+03,8.217463e+03
1.698017e+03,8.184747e+03
1.700909e+03,8.203062e+03
1.703802e+03,8.180019e+03
1.706695e+03,8.113391e+03
1.709587e+03,8.127105e+03
1.712480e+03,8.094414e+03
1.715373e+03,8.089845e+03
1.718266e+03,8.057748e+03
1.721158e+03,8.037590e+03
1.724051e+03,8.013142e+03
1.726944e+03,7.976450e+03
1.729836e+03,7.975861e+03
1.732729e+03,7.951058e+03
1.735622e+03,7.938046e+03
1.738514e+03,7.934359e+03
1.741407e+03,7.898585e+03
1.744300e+03,7.914906e+03
1.747193e+03,7.883265e+03
1.750085e+03,7.848977e+03
1.752978e+03,7.848218e+03
1.755871e+03,7.845507e+03
1.758763e+03,7.836826e+03
1.761656e+03,7.772812e+03
1.764549e+03,7.770887e+03
1.767441e+03,7.750322e+03
1.770334e+03,7.752878e+03
1.773227e+03,7.705765e+03
1.776120e+03,7.681493e+03
1.779012e+03,7.688396e+03
1.781905e+03,7.691676e+03
1.784798e+03,7.689237e+03
1.787690e+03,7.652265e+03
1.790583e+03,7.593578e+03
1.793476e+03,7.581949e+03
1.796368e+03,7.608138e+03
1.799261e+03,7.590321e+03
1.802154e+03,7.569573e+03
1.805047e+03,7.526249e+03
1.807939e+03,7.526655e+03
1.810832e+03,7.496245e+03
1.813725e+03,7.490596e+03
1.816617e+03,7.476297e+03
1.819510e+03,7.448531e+03
1.822403e+03,7.450241e+03
1.825295e+03,7.414626e+03
1.828188e+03,7.431533e+03
1.831081e+03,7.413041e+03
1.833974e+03,7.386121e+03
1.836866e+03,7.344595e+03
1.839759e+03,7.317583e+03
1.842652e+03,7.341942e+03
1.845544e+03,7.332951e+03
1.848437e+03,7.298055e+03
1.851330e+03,7.280167e+03
1.854222e+03,7.234469e+03
1.857115e+03,7.259350e+03
1.860008e+03,7.186602e+03
1.862901e+03,7.197900e+03
1.865793e+03,7.165715e+03
1.868686e+03,7.155864e+03
1.871579e+03,7.183627e+03
1.874471e+03,7.161289e+03
1.877364e+03,7.116599e+03
1.880257e+03,7.125931e+03
1.883149e+03,7.052260e+03
1.886042e+03,7.091264e+03
1.888935e+03,7.054408e+03
1.891828e+03,7.049636e+03
1.894720e+03,6.982616e+03
1.897613e+03,6.996853e+03
1.900506e+03,6.963146e+03
1.903398e+03,6.965996e+03
1.906291e+03,6.968089e+03
1.909184e+03,6.947815e+03
1.912076e+03,6.890073e+03
1.914969e+03,6.900529e+03
1.917862e+03,6.870976e+03
1.920755e+03,6.839379e+03
1.923647e+03,6.861489e+03
1.926540e+03,6.813568e+03
1.929433e+03,6.801477e+03
1.932325e+03,6.786138e+03
1.935218e+03,6.757961e+03
1.938111e+03,6.756476e+03
1.941003e+03,6.715073e+03
1.943896e+03,6.728218e+03
1.946789e+03,6.689902e+03
1.949682e+03,6.692654e+03
1.952574e+03,6.675339e+03
1.955467e+03,6.648005e+03
1.958360e+03,6.633345e+03
1.961252e+03,6.615391e+03
1.964145e+03,6.614786e+03
1.967038e+03,6.566493e+03
1.969930e+03,6.547510e+03
1.972823e+03,6.564954e+03
1.975716e+03,6.534016e+03
1.978609e+03,6.503445e+03
1.981501e+03,6.493026e+03
1.984394e+03,6.472944e+03
1.987287e+03,6.434523e+03
1.990179e+03,6.447670e+03
1.993072e+03,6.390479e+03
1.995965e+03,6.384195e+03
1.998857e+03,6.408188e+03
2.001750e+03,6.401994e+03
2.004643e+03,6.397420e+03
2.007536e+03,6.331780e+03
2.010428e+03,6.295284e+03
2.013321e+03,6.321194e+03
2.016214e+03,6.265412e+03
2.019106e+03,6.293893e+03
2.021999e+03,6.229786e+03
2.024892e+03,6.197047e+03
2.027784e+03,6.228589e+03
2.030677e+03,6.200083e+03
2.033570e+03,6.210148e+03
2.036463e+03,6.191802e+03
2.039355e+03,6.105572e+03
2.042248e+03,6.113885e+03
2.045141e+03,6.119529e+03
2.048033e+03,6.116574e+03
2.050926e+03,6.121478e+03
2.053819e+03,6.054537e+03
2.056711e+03,6.052097e+03
2.059604e+03,6.039344e+03
2.062497e+03,6.049718e+03
2.065390e+03,6.015739e+03
2.068282e+03,5.969676e+03
2.071175e+03,5.985746e+03
2.074068e+03,5.979970e+03
2.076960e+03,5.947202e+03
2.079853e+03,5.915740e+03
2.082746e+03,5.903673e+03
2.085638e+03,5.846939e+03
2.088531e+03,5.869782e+03
2.091424e+03,5.856227e+03
2.094316e+03,5.827949e+03
2.097209e+03,5.835755e+03
2.100102e+03,5.811170e+03
2.102995e+03,5.761673e+03
2.105887e+03,5.751478e+03
2.108780e+03,5.773669e+03
2.111673e+03,5.727688e+03
2.114565e+03,5.674183e+03
2.117458e+03,5.672521e+03
2.120351e+03,5.723467e+03
2.123244e+03,5.699131e+03
2.126136e+03,5.635754e+03
2.129029e+03,5.610298e+03
2.131922e+03,5.601068e+03
2.134814e+03,5.606945e+03
2.137707e+03,5.575563e+03
2.140600e+03,5.524738e+03
2.143492e+03,5.558637e+03
2.146385e+03,5.503032e+03
2.149278e+03,5.517831e+03
2.152170e+03,5.499516e+03
2.155063e+03,5.466204e+03
2.157956e+03,5.459675e+03
2.160849e+03,5.469245e+03
2.163741e+03,5.469556e+03
2.166634e+03,5.433885e+03
2.169527e+03,5.395806e+03
2.172419e+03,5.411805e+03
2.175312e+03,5.380413e+03
2.178205e+03,5.333064e+03
2.181098e+03,5.319087e+03
2.183990e+03,5.286031e+03
2.186883e+03,5.315304e+03
2.189776e+03,5.315117e+03
2.192668e+03,5.254727e+03
2.195561e+03,5.271690e+03
2.198454e+03,5.241479e+03
2.201346e+03,5.205284e+03
2.204239e+03,5.237696e+03
2.207132e+03,5.183052e+03
2.210024e+03,5.156010e+03
2.212917e+03,5.161716e+03
2.215810e+03,5.156121e+03
2.218703e+03,5.121946e+03
2.221595e+03,5.128288e+03
2.224488e+03,5.041259e+03
2.227381e+03,5.044950e+03
2.230273e+03,5.086396e+03
2.233166e+03,5.068476e+03
2.236059e+03,5.046724e+03
2.238952e+03,5.008719e+03
2.241844e+03,4.982069e+03
2.244737e+03,4.955903e+03
2.247630e+03,4.933863e+03
2.250522e+03,4.940994e+03
2.253415e+03,4.950037e+03
2.256308e+03,4.902289e+03
2.259200e+03,4.899784e+03
2.262093e+03,4.852345e+03
2.264986e+03,4.817354e+03
2.267879e+03,4.858412e+03
2.270771e+03,4.820013e+03
2.273664e+03,4.806850e+03
2.276557e+03,4.807382e+03
2.279449e+03,4.774168e+03
2.282342e+03,4.759288e+03
2.285235e+03,4.734826e+03
2.288127e+03,4.708367e+03
2.291020e+03,4.671663e+03
2.293913e+03,4.731028e+03
2.296805e+03,4.691915e+03
2.299698e+03,4.703338e+03
2.302591e+03,4.627531e+03
2.305484e+03,4.642312e+03
2.308376e+03,4.605826e+03
2.311269e+03,4.602390e+03
2.314162e+03,4.620180e+03
2.317054e+03,4.606136e+03
2.319947e+03,4.583584e+03
2.322840e+03,4.557548e+03
2.325733e+03,4.558281e+03
2.328625e+03,4.536194e+03
2.331518e+03,4.508178e+03
2.334411e+03,4.484476e+03
2.337303e+03,4.463108e+03
2.340196e+03,4.454597e+03
2.343089e+03,4.479200e+03
2.345981e+03,4.467425e+03
2.348874e+03,4.401642e+03
2.351767e+03,4.390180e+03
2.354659e+03,4.411196e+03
2.357552e+03,4.383090e+03
2.360445e+03,4.382888e+03
2.363338e+03,4.320269e+03
2.366230e+03,4.318604e+03
2.369123e+03,4.301305e+03
2.372016e+03,4.309456e+03
2.374908e+03,4.304291e+03
2.377801e+03,4.278600e+03
2.380694e+03,4.261184e+03
2.383587e+03,4.249996e+03
2.386479e+03,4.219298e+03
2.389372e+03,4.211237e+03
2.392265e+03,4.214344e+03
2.395157e+03,4.199623e+03
2.398050e+03,4.167583e+03
2.400943e+03,4.167713e+03
2.403835e+03,4.139815e+03
2.406728e+03,4.158563e+03
2.409621e+03,4.156869e+03
2.412513e+03,4.113794e+03
2.415406e+03,4.089603e+03
2.418299e+03,4.061710e+03
2.421192e+03,4.066497e+03
2.424084e+03,4.052274e+03
2.426977e+03,4.024578e+03
2.429870e+03,4.038690e+03
2.432762e+03,4.049625e+03
2.435655e+03,4.006109e+03
2.438548e+03,3.997508e+03
2.441441e+03,3.968533e+03
2.444333e+03,3.963359e+03
2.447226e+03,3.940399e+03
2.450119e+03,3.945533e+03
2.453011e+03,3.931994e+03
2.455904e+03,3.915252e+03
2.458797e+03,3.907830e+03
2.461689e+03,3.865090e+03
2.464582e+03,3.864298e+03
2.467475e+03,3.863426e+03
2.470367e+03,3.838540e+03
2.473260e+03,3.844594e+03
2.476153e+03,3.832634e+03
2.479046e+03,3.830198e+03
2.481938e+03,3.818631e+03
2.484831e+03,3.788350e+03
2.487724e+03,3.753304e+03
2.490616e+03,3.762831e+03
2.493509e+03,3.733020e+03
2.496402e+03,3.764891e+03
2.499295e+03,3.731698e+03
2.502187e+03,3.720034e+03
2.505080e+03,3.700111e+03
2.507973e+03,3.716166e+03
2.510865e+03,3.680338e+03
2.513758e+03,3.677957e+03
2.516651e+03,3.659818e+03
2.519543e+03,3.638247e+03
2.522436e+03,3.622749e+03
2.525329e+03,3.621165e+03
2.528221e+03,3.632398e+03
2.531114e+03,3.655591e+03
2.534007e+03,3.592977e+03
2.536900e+03,3.596468e+03
2.539792e+03,3.553846e+03
2.542685e+03,3.564434e+03
2.545578e+03,3.556013e+03
2.548470e+03,3.543335e+03
2.551363e+03,3.548123e+03
2.554256e+03,3.515007e+03
2.557149e+03,3.504506e+03
2.560041e+03,3.533648e+03
2.562934e+03,3.511249e+03
2.565827e+03,3.502692e+03
2.568719e+03,3.483117e+03
2.571612e+03,3.478751e+03
2.574505e+03,3.447900e+03
2.577397e+03,3.443872e+03
2.580290e+03,3.437031e+03
2.583183e+03,3.428625e+03
2.586075e+03,3.408378e+03
2.588968e+03,3.428455e+03
2.591861e+03,3.400070e+03
2.594754e+03,3.406616e+03
2.597646e+03,3.375835e+03
2.600539e+03,3.352817e+03
2.603432e+03,3.367474e+03
2.606324e+03,3.337582e+03
2.609217e+03,3.357632e+03
2.612110e+03,3.319446e+03
2.615003e+03,3.290211e+03
2.617895e+03,3.294398e+03
2.620788e+03,3.304072e+03
2.623681e+03,3.283492e+03
2.626573e+03,3.282442e+03
2.629466e+03,3.274728e+03
2.632359e+03,3.234729e+03
2.635251e+03,3.249216e+03
2.638144e+03,3.255260e+03
2.641037e+03,3.243824e+03
2.643929e+03,3.245034e+03
2.646822e+03,3.224061e+03
2.649715e+03,3.228424e+03
2.652608e+03,3.174665e+03
2.655500e+03,3.178021e+03
2.658393e+03,3.168109e+03
2.661286e+03,3.159466e+03
2.664178e+03,3.159048e+03
2.667071e+03,3.148546e+03
2.669964e+03,3.139884e+03
2.672857e+03,3.140903e+03
2.675749e+03,3.118108e+03
2.678642e+03,3.110552e+03
2.681535e+03,3.132573e+03
2.684427e+03,3.141090e+03
2.687320e+03,3.100988e+03
2.690213e+03,3.094417e+03
2.693105e+03,3.043601e+03
2.695998e+03,3.054066e+03
2.698891e+03,3.072311e+03
2.701783e+03,3.058770e+03
2.704676e+03,3.046183e+03
2.707569e+03,3.022713e+03
2.710462e+03,3.022875e+03
2.713354e+03,3.011309e+03
2.716247e+03,3.018092e+03
2.719140e+03,3.007864e+03
2.722032e+03,2.989497e+03
2.724925e+03,2.975638e+03
2.727818e+03,2.967847e+03
2.730711e+03,2.922950e+03
2.733603e+03,2.965004e+03
2.736496e+03,2.912667e+03
2.739389e+03,2.932011e+03
2.742281e+03,2.924679e+03
2.745174e+03,2.959204e+03
2.748067e+03,2.917652e+03
2.750959e+03,2.918809e+03
2.753852e+03,2.892579e+03
2.756745e+03,2.888278e+03
2.759637e+03,2.884206e+03
2.762530e+03,2.861491e+03
2.765423e+03,2.891785e+03
2.768316e+03,2.834128e+03
2.771208e+03,2.899211e+03
2.774101e+03,2.836849e+03
2.776994e+03,2.862972e+03
2.779886e+03,2.832543e+03
2.782779e+03,2.825556e+03
2.785672e+03,2.836645e+03
2.788565e+03,2.789568e+03
2.791457e+03,2.813529e+03
2.794350e+03,2.807398e+03
2.797243e+03,2.807730e+03
2.800135e+03,2.791620e+03
2.803028e+03,2.818261e+03
2.805921e+03,2.753099e+03
2.808813e+03,2.794203e+03
2.811706e+03,2.723934e+03
2.814599e+03,2.758669e+03
2.817491e+03,2.740689e+03
2.820384e+03,2.738441e+03
2.823277e+03,2.715868e+03
2.826170e+03,2.719700e+03
2.829062e+03,2.719028e+03
2.831955e+03,2.696912e+03
2.834848e+03,2.689616e+03
2.837740e+03,2.716951e+03
2.840633e+03,2.654626e+03
2.843526e+03,2.699708e+03
2.846419e+03,2.685309e+03
2.849311e+03,2.663821e+03
2.852204e+03,2.703706e+03
2.855097e+03,2.671974e+03
2.857990e+03,2.693333e+03
2.860882e+03,2.677898e+03
2.863775e+03,2.637218e+03
2.866667e+03,2.652093e+03
2.869560e+03,2.678199e+03
2.872453e+03,2.659892e+03
2.875345e+03,2.636949e+03
2.878238e+03,2.630908e+03
2.881131e+03,2.620623e+03
2.884024e+03,2.625887e+03
2.886916e+03,2.618385e+03
2.889809e+03,2.661517e+03
2.892702e+03,2.622217e+03
2.895594e+03,2.630307e+03
2.898487e+03,2.620193e+03
2.901380e+03,2.612089e+03
2.904273e+03,2.602469e+03
2.907165e+03,2.556850e+03
2.910058e+03,2.563311e+03
2.912951e+03,2.594857e+03
2.915844e+03,2.537370e+03
2.918736e+03,2.572936e+03
2.921629e+03,2.540118e+03
2.924521e+03,2.519253e+03
2.927414e+03,2.541883e+03
2.930307e+03,2.517773e+03
2.933199e+03,2.544035e+03
2.936092e+03,2.539783e+03
2.938985e+03,2.487606e+03
2.941878e+03,2.472120e+03
2.944770e+03,2.467281e+03
2.947663e+03,2.523170e+03
2.950556e+03,2.549573e+03
2.953448e+03,2.498565e+03
2.956341e+03,2.505220e+03
2.959234e+03,2.499126e+03
2.962127e+03,2.451034e+03
2.965019e+03,2.440321e+03
2.967912e+03,2.458311e+03
2.970805e+03,2.409983e+03
2.973698e+03,2.448672e+03
2.976590e+03,2.434796e+03
2.979483e+03,2.419969e+03
2.982375e+03,2.397351e+03
2.985268e+03,2.453539e+03
2.988161e+03,2.400610e+03
2.991053e+03,2.420008e+03
2.993946e+03,2.396542e+03
2.996839e+03,2.408322e+03
2.999732e+03,2.408583e+03
3.002624e+03,2.394838e+03
3.005517e+03,2.371767e+03
3.008410e+03,2.400173e+03
3.011302e+03,2.408491e+03
3.014195e+03,2.376474e+03
3.017088e+03,2.338509e+03
3.019981e+03,2.385184e+03
3.022873e+03,2.354810e+03
3.025766e+03,2.359887e+03
3.028659e+03,2.369173e+03
3.031552e+03,2.329972e+03
3.034444e+03,2.364169e+03
3.037337e+03,2.316007e+03
3.040229e+03,2.338017e+03
3.043122e+03,2.355327e+03
3.046015e+03,2.345909e+03
3.048907e+03,2.294861e+03
3.051800e+03,2.331398e+03
3.054693e+03,2.360776e+03
3.057586e+03,2.342521e+03
3.060478e+03,2.332364e+03
3.063371e+03,2.331524e+03
3.066264e+03,2.279840e+03
3.069156e+03,2.295387e+03
3.072049e+03,2.334817e+03
3.074942e+03,2.311776e+03
3.077835e+03,2.307434e+03
3.080727e+03,2.318775e+03
3.083620e+03,2.307719e+03
3.086513e+03,2.257112e+03
3.089406e+03,2.293814e+03
3.092298e+03,2.289515e+03
3.095191e+03,2.310735e+03
3.098083e+03,2.283432e+03
3.100976e+03,2.271212e+03
3.103869e+03,2.273199e+03
3.106761e+03,2.273257e+03
3.109654e+03,2.256488e+03
3.112547e+03,2.279163e+03
3.115440e+03,2.276006e+03
3.118332e+03,2.303037e+03
3.121225e+03,2.304748e+03
3.124118e+03,2.227167e+03
3.127010e+03,2.250643e+03
3.129903e+03,2.302602e+03
3.132796e+03,2.286550e+03
3.135689e+03,2.268429e+03
3.138581e+03,2.304787e+03
3.141474e+03,2.309417e+03
3.144367e+03,2.253831e+03
3.147260e+03,2.234040e+03
3.150152e+03,2.282500e+03
3.153045e+03,2.266341e+03
3.155938e+03,2.296081e+03
3.158830e+03,2.241096e+03
3.161723e+03,2.327839e+03
3.164615e+03,2.263843e+03
3.167508e+03,2.334887e+03
3.170401e+03,2.233349e+03
3.173294e+03,2.272158e+03
3.176186e+03,2.243618e+03
3.179079e+03,2.256142e+03
3.181972e+03,2.243100e+03
3.184865e+03,2.304898e+03
3.187757e+03,2.302203e+03
3.190650e+03,2.224959e+03
3.193543e+03,2.238342e+03
3.196435e+03,2.311220e+03
3.199328e+03,2.311028e+03
3.200292e+03,2.291911e+03