File: RAMAN_data/20012023_r1/orange frag1.CSV
1.995979e+02,5.400734e+03
2.024906e+02,5.415799e+03
2.053833e+02,5.426391e+03
2.082760e+02,5.421396e+03
2.111687e+02,5.418898e+03
2.140614e+02,5.417505e+03
2.169541e+02,5.423894e+03
2.198468e+02,5.439883e+03
2.227395e+02,5.442905e+03
2.256322e+02,5.397995e+03
2.285249e+02,5.429297e+03
2.314176e+02,5.439788e+03
2.343103e+02,5.428212e+03
2.372030e+02,5.439245e+03
2.400957e+02,5.446313e+03
2.429884e+02,5.444414e+03
2.458811e+02,5.455226e+03
2.487738e+02,5.444076e+03
2.516665e+02,5.460799e+03
2.545592e+02,5.472822e+03
2.574519e+02,5.460302e+03
2.603446e+02,5.446686e+03
2.632373e+02,5.435838e+03
2.661300e+02,5.462354e+03
2.690227e+02,5.467730e+03
2.719154e+02,5.445677e+03
2.748081e+02,5.437344e+03
2.777008e+02,5.460102e+03
2.805935e+02,5.472250e+03
2.834862e+02,5.486071e+03
2.863789e+02,5.463540e+03
2.892716e+02,5.450326e+03
2.921643e+02,5.460205e+03
2.950570e+02,5.469557e+03
2.979497e+02,5.472541e+03
3.008424e+02,5.469623e+03
3.037351e+02,5.447498e+03
3.066278e+02,5.438140e+03
3.095205e+02,5.436113e+03
3.124132e+02,5.466784e+03
3.153059e+02,5.467561e+03
3.181986e+02,5.472354e+03
3.210913e+02,5.453843e+03
3.239840e+02,5.454650e+03
3.268767e+02,5.454182e+03
3.297694e+02,5.439382e+03
3.326621e+02,5.445542e+03
3.355548e+02,5.435667e+03
3.384475e+02,5.449990e+03
3.413402e+02,5.488946e+03
3.442329e+02,5.480750e+03
3.471256e+02,5.462846e+03
3.500183e+02,5.456882e+03
3.529110e+02,5.428465e+03
3.558037e+02,5.446362e+03
3.586964e+02,5.435589e+03
3.615891e+02,5.444061e+03
3.644818e+02,5.432261e+03
3.673745e+02,5.405683e+03
3.702672e+02,5.436513e+03
3.731599e+02,5.450310e+03
3.760526e+02,5.437937e+03
3.789453e+02,5.452214e+03
3.818380e+02,5.411913e+03
3.847307e+02,5.412073e+03
3.876234e+02,5.416460e+03
3.905161e+02,5.421099e+03
3.934088e+02,5.409558e+03
3.963015e+02,5.377930e+03
3.991942e+02,5.374959e+03
4.020869e+02,5.378190e+03
4.049796e+02,5.396536e+03
4.078723e+02,5.403445e+03
4.107650e+02,5.358500e+03
4.136577e+02,5.344689e+03
4.165504e+02,5.357431e+03
4.194431e+02,5.382872e+03
4.223358e+02,5.365554e+03
4.252285e+02,5.353843e+03
4.281212e+02,5.359864e+03
4.310139e+02,5.347042e+03
4.339066e+02,5.351257e+03
4.367993e+02,5.347158e+03
4.396920e+02,5.337936e+03
4.425847e+02,5.331710e+03
4.454774e+02,5.327818e+03
4.483701e+02,5.318257e+03
4.512628e+02,5.316241e+03
4.541555e+02,5.306457e+03
4.570482e+02,5.309078e+03
4.599409e+02,5.272322e+03
4.628336e+02,5.285594e+03
4.657263e+02,5.287109e+03
4.686190e+02,5.279385e+03
4.715117e+02,5.260788e+03
4.744044e+02,5.246624e+03
4.772971e+02,5.229122e+03
4.801898e+02,5.203471e+03
4.830825e+02,5.229037e+03
4.859752e+02,5.210566e+03
4.888679e+02,5.232773e+03
4.917606e+02,5.211158e+03
4.946533e+02,5.187743e+03
4.975460e+02,5.212627e+03
5.004387e+02,5.209311e+03
5.033314e+02,5.215862e+03
5.062241e+02,5.191508e+03
5.091168e+02,5.163639e+03
5.120095e+02,5.162100e+03
5.149022e+02,5.175077e+03
5.177949e+02,5.175412e+03
5.206876e+02,5.170837e+03
5.235803e+02,5.179221e+03
5.264730e+02,5.159496e+03
5.293657e+02,5.143910e+03
5.322584e+02,5.134729e+03
5.351511e+02,5.138516e+03
5.380438e+02,5.140542e+03
5.409365e+02,5.125548e+03
5.438292e+02,5.118124e+03
5.467219e+02,5.112862e+03
5.496146e+02,5.102394e+03
5.525073e+02,5.075259e+03
5.554000e+02,5.072342e+03
5.582927e+02,5.088987e+03
5.611854e+02,5.087967e+03
5.640781e+02,5.086481e+03
5.669708e+02,5.079825e+03
5.698635e+02,5.058761e+03
5.727562e+02,5.042774e+03
5.756489e+02,5.045306e+03
5.785416e+02,5.036564e+03
5.814343e+02,5.029374e+03
5.843270e+02,5.038718e+03
5.872197e+02,5.026743e+03
5.901124e+02,5.014652e+03
5.930051e+02,5.005013e+03
5.958978e+02,5.016063e+03
5.987905e+02,5.000652e+03
6.016832e+02,4.980621e+03
6.045759e+02,4.994572e+03
6.074686e+02,4.985087e+03
6.103613e+02,4.996097e+03
6.132540e+02,4.970924e+03
6.161467e+02,4.982654e+03
6.190394e+02,4.954204e+03
6.219321e+02,4.938282e+03
6.248248e+02,4.941625e+03
6.277175e+02,4.931479e+03
6.306102e+02,4.931745e+03
6.335029e+02,4.904947e+03
6.363956e+02,4.899865e+03
6.392883e+02,4.893845e+03
6.421810e+02,4.897070e+03
6.450737e+02,4.869539e+03
6.479664e+02,4.880690e+03
6.508591e+02,4.850965e+03
6.537518e+02,4.852116e+03
6.566445e+02,4.838244e+03
6.595372e+02,4.842265e+03
6.624299e+02,4.825538e+03
6.653226e+02,4.837744e+03
6.682153e+02,4.810027e+03
6.711080e+02,4.833485e+03
6.740007e+02,4.835916e+03
6.768934e+02,4.808767e+03
6.797861e+02,4.805614e+03
6.826788e+02,4.776406e+03
6.855715e+02,4.774378e+03
6.884642e+02,4.758896e+03
6.913569e+02,4.724329e+03
6.942496e+02,4.731807e+03
6.971423e+02,4.752752e+03
7.000350e+02,4.745748e+03
7.029277e+02,4.731444e+03
7.058204e+02,4.712494e+03
7.087131e+02,4.696676e+03
7.116058e+02,4.696503e+03
7.144985e+02,4.720448e+03
7.173912e+02,4.699249e+03
7.202839e+02,4.679828e+03
7.231766e+02,4.683092e+03
7.260693e+02,4.677147e+03
7.289620e+02,4.652006e+03
7.318547e+02,4.642625e+03
7.347474e+02,4.638698e+03
7.376401e+02,4.648524e+03
7.405328e+02,4.650446e+03
7.434255e+02,4.625568e+03
7.463182e+02,4.606282e+03
7.492109e+02,4.617375e+03
7.521036e+02,4.585054e+03
7.549963e+02,4.595209e+03
7.578890e+02,4.603224e+03
7.607817e+02,4.571867e+03
7.636744e+02,4.572978e+03
7.665671e+02,4.556641e+03
7.694598e+02,4.527846e+03
7.723525e+02,4.543800e+03
7.752452e+02,4.541704e+03
7.781379e+02,4.522533e+03
7.810306e+02,4.526992e+03
7.839233e+02,4.525891e+03
7.868160e+02,4.517934e+03
7.897087e+02,4.512618e+03
7.926014e+02,4.499782e+03
7.954941e+02,4.487487e+03
7.983868e+02,4.466755e+03
8.012795e+02,4.475984e+03
8.041722e+02,4.476244e+03
8.070649e+02,4.476854e+03
8.099576e+02,4.476108e+03
8.128503e+02,4.463834e+03
8.157430e+02,4.436751e+03
8.186357e+02,4.442065e+03
8.215284e+02,4.418739e+03
8.244211e+02,4.435286e+03
8.273138e+02,4.424236e+03
8.302065e+02,4.401346e+03
8.330992e+02,4.391310e+03
8.359919e+02,4.380738e+03
8.388846e+02,4.410029e+03
8.417773e+02,4.394115e+03
8.446700e+02,4.363450e+03
8.475627e+02,4.366820e+03
8.504554e+02,4.367364e+03
8.533481e+02,4.346202e+03
8.562408e+02,4.334762e+03
8.591335e+02,4.314450e+03
8.620262e+02,4.330543e+03
8.649189e+02,4.335396e+03
8.678116e+02,4.323288e+03
8.707043e+02,4.324981e+03
8.735970e+02,4.291234e+03
8.764897e+02,4.292000e+03
8.793824e+02,4.283809e+03
8.822751e+02,4.294519e+03
8.851678e+02,4.296340e+03
8.880605e+02,4.277409e+03
8.909532e+02,4.275683e+03
8.938459e+02,4.265875e+03
8.967386e+02,4.246888e+03
8.996313e+02,4.234833e+03
9.025240e+02,4.238557e+03
9.054167e+02,4.233173e+03
9.083094e+02,4.210697e+03
9.112021e+02,4.223059e+03
9.140948e+02,4.192775e+03
9.169875e+02,4.203940e+03
9.198802e+02,4.186708e+03
9.227729e+02,4.184540e+03
9.256656e+02,4.165899e+03
9.285583e+02,4.177918e+03
9.314510e+02,4.176339e+03
9.343438e+02,4.163124e+03
9.372365e+02,4.156606e+03
9.401292e+02,4.149115e+03
9.430219e+02,4.141518e+03
9.459146e+02,4.134088e+03
9.488073e+02,4.157403e+03
9.517000e+02,4.125670e+03
9.545927e+02,4.119853e+03
9.574854e+02,4.110473e+03
9.603781e+02,4.124746e+03
9.632708e+02,4.115188e+03
9.661635e+02,4.097225e+03
9.690562e+02,4.088438e+03
9.719489e+02,4.088655e+03
9.748416e+02,4.078622e+03
9.777343e+02,4.066670e+03
9.806270e+02,4.085015e+03
9.835197e+02,4.064027e+03
9.864124e+02,4.025325e+03
9.893051e+02,4.050494e+03
9.921978e+02,4.039900e+03
9.950905e+02,4.048032e+03
9.979832e+02,4.035824e+03
1.000876e+03,4.008548e+03
1.003769e+03,4.024577e+03
1.006661e+03,4.004223e+03
1.009554e+03,4.009388e+03
1.012447e+03,3.990291e+03
1.015339e+03,3.982391e+03
1.018232e+03,3.992065e+03
1.021125e+03,4.000393e+03
1.024017e+03,3.987234e+03
1.026910e+03,3.975959e+03
1.029803e+03,3.963199e+03
1.032696e+03,3.963984e+03
1.035588e+03,3.983902e+03
1.038481e+03,3.995815e+03
1.041374e+03,3.964189e+03
1.044266e+03,3.962073e+03
1.047159e+03,3.957249e+03
1.050052e+03,3.931614e+03
1.052944e+03,3.956944e+03
1.055837e+03,3.931616e+03
1.058730e+03,3.946606e+03
1.061623e+03,3.952960e+03
1.064515e+03,3.911475e+03
1.067408e+03,3.890524e+03
1.070301e+03,3.899721e+03
1.073193e+03,3.905500e+03
1.076086e+03,3.897148e+03
1.078979e+03,3.877244e+03
1.081871e+03,3.893004e+03
1.084764e+03,3.929329e+03
1.087657e+03,3.937830e+03
1.090550e+03,3.918099e+03
1.093442e+03,3.903465e+03
1.096335e+03,3.914885e+03
1.099228e+03,3.888135e+03
1.102120e+03,3.875664e+03
1.105013e+03,3.876418e+03
1.107906e+03,3.879533e+03
1.110798e+03,3.871823e+03
1.113691e+03,3.866676e+03
1.116584e+03,3.880492e+03
1.119477e+03,3.862958e+03
1.122369e+03,3.847560e+03
1.125262e+03,3.822003e+03
1.128155e+03,3.830680e+03
1.131047e+03,3.826671e+03
1.133940e+03,3.824169e+03
1.136833e+03,3.795030e+03
1.139725e+03,3.802744e+03
1.142618e+03,3.798500e+03
1.145511e+03,3.790957e+03
1.148404e+03,3.790419e+03
1.151296e+03,3.814088e+03
1.154189e+03,3.816284e+03
1.157082e+03,3.809110e+03
1.159974e+03,3.814670e+03
1.162867e+03,3.806762e+03
1.165760e+03,3.798683e+03
1.168652e+03,3.789242e+03
1.171545e+03,3.768454e+03
1.174438e+03,3.762469e+03
1.177331e+03,3.768282e+03
1.180223e+03,3.780556e+03
1.183116e+03,3.747260e+03
1.186009e+03,3.736496e+03
1.188901e+03,3.733636e+03
1.191794e+03,3.735162e+03
1.194687e+03,3.752872e+03
1.197579e+03,3.746111e+03
1.200472e+03,3.741778e+03
1.203365e+03,3.719328e+03
1.206258e+03,3.724120e+03
1.209150e+03,3.731960e+03
1.212043e+03,3.723335e+03
1.214936e+03,3.718466e+03
1.217828e+03,3.720711e+03
1.220721e+03,3.724903e+03
1.223614e+03,3.758808e+03
1.226506e+03,3.774025e+03
1.229399e+03,3.761514e+03
1.232292e+03,3.714143e+03
1.235185e+03,3.711530e+03
1.238077e+03,3.727104e+03
1.240970e+03,3.741156e+03
1.243863e+03,3.740079e+03
1.246755e+03,3.700909e+03
1.249648e+03,3.703367e+03
1.252541e+03,3.693246e+03
1.255433e+03,3.727498e+03
1.258326e+03,3.724917e+03
1.261219e+03,3.747228e+03
1.264112e+03,3.709678e+03
1.267004e+03,3.689375e+03
1.269897e+03,3.697872e+03
1.272790e+03,3.722486e+03
1.275682e+03,3.720771e+03
1.278575e+03,3.734337e+03
1.281468e+03,3.714805e+03
1.284360e+03,3.707369e+03
1.287253e+03,3.693944e+03
1.290146e+03,3.677477e+03
1.293039e+03,3.673630e+03
1.295931e+03,3.667378e+03
1.298824e+03,3.652293e+03
1.301717e+03,3.654015e+03
1.304609e+03,3.655887e+03
1.307502e+03,3.657557e+03
1.310395e+03,3.640740e+03
1.313287e+03,3.641875e+03
1.316180e+03,3.668580e+03
1.319073e+03,3.700835e+03
1.321966e+03,3.705641e+03
1.324858e+03,3.706114e+03
1.327751e+03,3.683925e+03
1.330644e+03,3.691873e+03
1.333536e+03,3.699758e+03
1.336429e+03,3.683445e+03
1.339322e+03,3.648138e+03
1.342214e+03,3.630308e+03
1.345107e+03,3.651461e+03
1.348000e+03,3.671263e+03
1.350893e+03,3.699106e+03
1.353785e+03,3.723133e+03
1.356678e+03,3.706512e+03
1.359571e+03,3.651071e+03
1.362463e+03,3.626859e+03
1.365356e+03,3.617377e+03
1.368249e+03,3.607160e+03
1.371141e+03,3.594737e+03
1.374034e+03,3.601873e+03
1.376927e+03,3.572257e+03
1.379820e+03,3.574626e+03
1.382712e+03,3.576576e+03
1.385605e+03,3.568010e+03
1.388498e+03,3.572677e+03
1.391390e+03,3.552648e+03
1.394283e+03,3.539145e+03
1.397176e+03,3.544188e+03
1.400068e+03,3.529052e+03
1.402961e+03,3.515470e+03
1.405854e+03,3.499351e+03
1.408747e+03,3.483473e+03
1.411639e+03,3.485966e+03
1.414532e+03,3.486719e+03
1.417425e+03,3.477580e+03
1.420317e+03,3.484920e+03
1.423210e+03,3.461086e+03
1.426103e+03,3.468171e+03
1.428995e+03,3.464709e+03
1.431888e+03,3.450193e+03
1.434781e+03,3.457374e+03
1.437674e+03,3.444418e+03
1.440566e+03,3.443084e+03
1.443459e+03,3.446043e+03
1.446352e+03,3.455519e+03
1.449244e+03,3.440891e+03
1.452137e+03,3.440702e+03
1.455030e+03,3.445182e+03
1.457922e+03,3.439964e+03
1.460815e+03,3.450874e+03
1.463708e+03,3.438659e+03
1.466601e+03,3.428700e+03
1.469493e+03,3.408487e+03
1.472386e+03,3.397566e+03
1.475279e+03,3.433179e+03
1.478171e+03,3.462187e+03
1.481064e+03,3.451035e+03
1.483957e+03,3.437983e+03
1.486849e+03,3.428443e+03
1.489742e+03,3.423306e+03
1.492635e+03,3.407262e+03
1.495528e+03,3.378063e+03
1.498420e+03,3.372651e+03
1.501313e+03,3.366514e+03
1.504206e+03,3.372771e+03
1.507098e+03,3.354080e+03
1.509991e+03,3.351918e+03
1.512884e+03,3.325704e+03
1.515776e+03,3.326659e+03
1.518669e+03,3.331094e+03
1.521562e+03,3.313871e+03
1.524455e+03,3.328878e+03
1.527347e+03,3.304466e+03
1.530240e+03,3.291006e+03
1.533133e+03,3.312365e+03
1.536025e+03,3.291210e+03
1.538918e+03,3.313100e+03
1.541811e+03,3.301785e+03
1.544703e+03,3.308145e+03
1.547596e+03,3.305330e+03
1.550489e+03,3.327515e+03
1.553382e+03,3.314778e+03
1.556274e+03,3.312696e+03
1.559167e+03,3.293344e+03
1.562060e+03,3.303056e+03
1.564952e+03,3.286993e+03
1.567845e+03,3.324470e+03
1.570738e+03,3.332253e+03
1.573630e+03,3.349945e+03
1.576523e+03,3.372127e+03
1.579416e+03,3.361981e+03
1.582309e+03,3.331174e+03
1.585201e+03,3.324128e+03
1.588094e+03,3.313200e+03
1.590987e+03,3.318376e+03
1.593879e+03,3.289692e+03
1.596772e+03,3.277629e+03
1.599665e+03,3.275834e+03
1.602557e+03,3.265791e+03
1.605450e+03,3.242623e+03
1.608343e+03,3.214657e+03
1.611236e+03,3.213333e+03
1.614128e+03,3.176620e+03
1.617021e+03,3.200720e+03
1.619914e+03,3.174128e+03
1.622806e+03,3.166589e+03
1.625699e+03,3.141313e+03
1.628592e+03,3.138559e+03
1.631484e+03,3.137750e+03
1.634377e+03,3.121186e+03
1.637270e+03,3.121156e+03
1.640163e+03,3.097632e+03
1.643055e+03,3.112708e+03
1.645948e+03,3.096538e+03
1.648841e+03,3.093642e+03
1.651733e+03,3.062498e+03
1.654626e+03,3.095821e+03
1.657519e+03,3.077874e+03
1.660411e+03,3.070358e+03
1.663304e+03,3.077302e+03
1.666197e+03,3.056090e+03
1.669090e+03,3.069336e+03
1.671982e+03,3.049864e+03
1.674875e+03,3.045265e+03
1.677768e+03,3.030798e+03
1.680660e+03,3.040812e+03
1.683553e+03,3.017470e+03
1.686446e+03,3.005832e+03
1.689339e+03,3.013034e+03
1.692231e+03,3.003458e+03
1.695124e+03,3.014505e+03
1.698017e+03,2.991471e+03
1.700909e+03,2.994355e+03
1.703802e+03,2.992847e+03
1.706695e+03,2.995391e+03
1.709587e+03,2.981097e+03
1.712480e+03,2.983962e+03
1.715373e+03,2.970611e+03
1.718266e+03,2.943579e+03
1.721158e+03,2.959339e+03
1.724051e+03,2.941396e+03
1.726944e+03,2.940363e+03
1.729836e+03,2.953347e+03
1.732729e+03,2.924458e+03
1.735622e+03,2.924004e+03
1.738514e+03,2.923683e+03
1.741407e+03,2.911338e+03
1.744300e+03,2.918989e+03
1.747193e+03,2.894440e+03
1.750085e+03,2.897984e+03
1.752978e+03,2.880439e+03
1.755871e+03,2.856853e+03
1.758763e+03,2.873078e+03
1.761656e+03,2.856902e+03
1.764549e+03,2.883149e+03
1.767441e+03,2.882810e+03
1.770334e+03,2.858086e+03
1.773227e+03,2.855696e+03
1.776120e+03,2.836078e+03
1.779012e+03,2.823355e+03
1.781905e+03,2.848897e+03
1.784798e+03,2.820095e+03
1.787690e+03,2.822072e+03
1.790583e+03,2.802310e+03
1.793476e+03,2.802979e+03
1.796368e+03,2.804399e+03
1.799261e+03,2.783887e+03
1.802154e+03,2.788235e+03
1.805047e+03,2.761394e+03
1.807939e+03,2.784225e+03
1.810832e+03,2.792424e+03
1.813725e+03,2.770576e+03
1.816617e+03,2.782160e+03
1.819510e+03,2.768099e+03
1.822403e+03,2.757585e+03
1.825295e+03,2.750379e+03
1.828188e+03,2.735311e+03
1.831081e+03,2.750786e+03
1.833974e+03,2.711098e+03
1.836866e+03,2.708987e+03
1.839759e+03,2.707996e+03
1.842652e+03,2.716607e+03
1.845544e+03,2.703032e+03
1.848437e+03,2.721446e+03
1.851330e+03,2.687174e+03
1.854222e+03,2.683673e+03
1.857115e+03,2.683277e+03
1.860008e+03,2.686104e+03
1.862901e+03,2.676108e+03
1.865793e+03,2.666808e+03
1.868686e+03,2.644013e+03
1.871579e+03,2.652757e+03
1.874471e+03,2.653777e+03
1.877364e+03,2.640878e+03
1.880257e+03,2.650047e+03
1.883149e+03,2.638134e+03
1.886042e+03,2.601878e+03
1.888935e+03,2.621415e+03
1.891828e+03,2.615337e+03
1.894720e+03,2.599255e+03
1.897613e+03,2.610007e+03
1.900506e+03,2.590774e+03
1.903398e+03,2.589935e+03
1.906291e+03,2.599999e+03
1.909184e+03,2.590383e+03
1.912076e+03,2.573733e+03
1.914969e+03,2.561430e+03
1.917862e+03,2.554359e+03
1.920755e+03,2.556427e+03
1.923647e+03,2.555079e+03
1.926540e+03,2.535653e+03
1.929433e+03,2.535576e+03
1.932325e+03,2.533272e+03
1.935218e+03,2.511969e+03
1.938111e+03,2.515778e+03
1.941003e+03,2.517469e+03
1.943896e+03,2.494112e+03
1.946789e+03,2.485941e+03
1.949682e+03,2.486864e+03
1.952574e+03,2.488593e+03
1.955467e+03,2.479742e+03
1.958360e+03,2.482998e+03
1.961252e+03,2.471914e+03
1.964145e+03,2.444592e+03
1.967038e+03,2.473662e+03
1.969930e+03,2.454838e+03
1.972823e+03,2.441227e+03
1.975716e+03,2.441373e+03
1.978609e+03,2.414783e+03
1.981501e+03,2.428375e+03
1.984394e+03,2.420011e+03
1.987287e+03,2.404347e+03
1.990179e+03,2.415382e+03
1.993072e+03,2.395488e+03
1.995965e+03,2.383752e+03
1.998857e+03,2.407166e+03
2.001750e+03,2.393224e+03
2.004643e+03,2.371722e+03
2.007536e+03,2.375661e+03
2.010428e+03,2.369313e+03
2.013321e+03,2.365018e+03
2.016214e+03,2.366093e+03
2.019106e+03,2.364942e+03
2.021999e+03,2.335920e+03
2.024892e+03,2.333103e+03
2.027784e+03,2.340653e+03
2.030677e+03,2.327263e+03
2.033570e+03,2.342157e+03
2.036463e+03,2.324500e+03
2.039355e+03,2.292792e+03
2.042248e+03,2.278250e+03
2.045141e+03,2.299003e+03
2.048033e+03,2.296031e+03
2.050926e+03,2.287094e+03
2.053819e+03,2.278010e+03
2.056711e+03,2.255657e+03
2.059604e+03,2.261419e+03
2.062497e+03,2.283781e+03
2.065390e+03,2.261436e+03
2.068282e+03,2.257966e+03
2.071175e+03,2.233612e+03
2.074068e+03,2.229364e+03
2.076960e+03,2.225616e+03
2.079853e+03,2.233443e+03
2.082746e+03,2.239906e+03
2.085638e+03,2.206894e+03
2.088531e+03,2.204281e+03
2.091424e+03,2.222198e+03
2.094316e+03,2.219627e+03
2.097209e+03,2.209103e+03
2.100102e+03,2.199167e+03
2.102995e+03,2.183060e+03
2.105887e+03,2.170101e+03
2.108780e+03,2.185652e+03
2.111673e+03,2.178313e+03
2.114565e+03,2.149017e+03
2.117458e+03,2.138259e+03
2.120351e+03,2.156209e+03
2.123244e+03,2.147084e+03
2.126136e+03,2.147115e+03
2.129029e+03,2.131924e+03
2.131922e+03,2.119700e+03
2.134814e+03,2.129865e+03
2.137707e+03,2.114243e+03
2.140600e+03,2.088566e+03
2.143492e+03,2.085919e+03
2.146385e+03,2.106880e+03
2.149278e+03,2.081932e+03
2.152170e+03,2.101327e+03
2.155063e+03,2.074686e+03
2.157956e+03,2.068825e+03
2.160849e+03,2.060423e+03
2.163741e+03,2.073014e+03
2.166634e+03,2.055160e+03
2.169527e+03,2.058197e+03
2.172419e+03,2.047639e+03
2.175312e+03,2.040953e+03
2.178205e+03,2.023527e+03
2.181098e+03,2.027899e+03
2.183990e+03,2.025075e+03
2.186883e+03,2.014257e+03
2.189776e+03,2.018078e+03
2.192668e+03,2.009300e+03
2.195561e+03,2.015017e+03
2.198454e+03,1.999535e+03
2.201346e+03,1.996808e+03
2.204239e+03,1.998074e+03
2.207132e+03,1.992323e+03
2.210024e+03,1.962933e+03
2.212917e+03,1.976444e+03
2.215810e+03,1.970244e+03
2.218703e+03,1.980174e+03
2.221595e+03,1.960966e+03
2.224488e+03,1.942926e+03
2.227381e+03,1.942652e+03
2.230273e+03,1.948299e+03
2.233166e+03,1.942035e+03
2.236059e+03,1.935303e+03
2.238952e+03,1.910782e+03
2.241844e+03,1.940162e+03
2.244737e+03,1.917919e+03
2.247630e+03,1.911366e+03
2.250522e+03,1.906978e+03
2.253415e+03,1.890788e+03
2.256308e+03,1.888106e+03
2.259200e+03,1.883584e+03
2.262093e+03,1.901698e+03
2.264986e+03,1.877073e+03
2.267879e+03,1.878761e+03
2.270771e+03,1.875121e+03
2.273664e+03,1.866490e+03
2.276557e+03,1.861139e+03
2.279449e+03,1.875889e+03
2.282342e+03,1.864992e+03
2.285235e+03,1.841203e+03
2.288127e+03,1.819976e+03
2.291020e+03,1.838391e+03
2.293913e+03,1.826328e+03
2.296805e+03,1.828270e+03
2.299698e+03,1.816804e+03
2.302591e+03,1.813485e+03
2.305484e+03,1.797267e+03
2.308376e+03,1.808768e+03
2.311269e+03,1.794772e+03
2.314162e+03,1.792561e+03
2.317054e+03,1.797488e+03
2.319947e+03,1.765455e+03
2.322840e+03,1.775668e+03
2.325733e+03,1.778364e+03
2.328625e+03,1.776377e+03
2.331518e+03,1.770692e+03
2.334411e+03,1.783934e+03
2.337303e+03,1.756481e+03
2.340196e+03,1.731015e+03
2.343089e+03,1.745308e+03
2.345981e+03,1.756858e+03
2.348874e+03,1.742054e+03
2.351767e+03,1.726724e+03
2.354659e+03,1.729589e+03
2.357552e+03,1.717189e+03
2.360445e+03,1.728182e+03
2.363338e+03,1.727007e+03
2.366230e+03,1.718260e+03
2.369123e+03,1.711181e+03
2.372016e+03,1.697061e+03
2.374908e+03,1.706306e+03
2.377801e+03,1.719416e+03
2.380694e+03,1.693584e+03
2.383587e+03,1.678902e+03
2.386479e+03,1.685467e+03
2.389372e+03,1.689877e+03
2.392265e+03,1.680339e+03
2.395157e+03,1.672766e+03
2.398050e+03,1.654379e+03
2.400943e+03,1.664020e+03
2.403835e+03,1.659298e+03
2.406728e+03,1.668190e+03
2.409621e+03,1.643371e+03
2.412513e+03,1.650089e+03
2.415406e+03,1.641383e+03
2.418299e+03,1.624320e+03
2.421192e+03,1.660445e+03
2.424084e+03,1.643116e+03
2.426977e+03,1.634181e+03
2.429870e+03,1.620760e+03
2.432762e+03,1.609283e+03
2.435655e+03,1.617522e+03
2.438548e+03,1.603667e+03
2.441441e+03,1.621969e+03
2.444333e+03,1.606278e+03
2.447226e+03,1.590935e+03
2.450119e+03,1.581654e+03
2.453011e+03,1.598286e+03
2.455904e+03,1.605352e+03
2.458797e+03,1.584763e+03
2.461689e+03,1.582679e+03
2.464582e+03,1.573637e+03
2.467475e+03,1.582072e+03
2.470367e+03,1.567213e+03
2.473260e+03,1.573626e+03
2.476153e+03,1.553930e+03
2.479046e+03,1.587573e+03
2.481938e+03,1.567877e+03
2.484831e+03,1.553356e+03
2.487724e+03,1.543138e+03
2.490616e+03,1.542539e+03
2.493509e+03,1.554887e+03
2.496402e+03,1.552412e+03
2.499295e+03,1.548641e+03
2.502187e+03,1.539042e+03
2.505080e+03,1.544717e+03
2.507973e+03,1.514445e+03
2.510865e+03,1.514404e+03
2.513758e+03,1.531835e+03
2.516651e+03,1.520224e+03
2.519543e+03,1.507662e+03
2.522436e+03,1.495708e+03
2.525329e+03,1.504559e+03
2.528221e+03,1.497325e+03
2.531114e+03,1.487869e+03
2.534007e+03,1.506774e+03
2.536900e+03,1.491089e+03
2.539792e+03,1.483587e+03
2.542685e+03,1.491438e+03
2.545578e+03,1.488689e+03
2.548470e+03,1.495829e+03
2.551363e+03,1.472610e+03
2.554256e+03,1.477040e+03
2.557149e+03,1.480017e+03
2.560041e+03,1.461549e+03
2.562934e+03,1.486610e+03
2.565827e+03,1.458897e+03
2.568719e+03,1.462807e+03
2.571612e+03,1.446696e+03
2.574505e+03,1.448325e+03
2.577397e+03,1.451896e+03
2.580290e+03,1.458845e+03
2.583183e+03,1.442970e+03
2.586075e+03,1.446609e+03
2.588968e+03,1.448682e+03
2.591861e+03,1.436274e+03
2.594754e+03,1.442874e+03
2.597646e+03,1.454665e+03
2.600539e+03,1.428409e+03
2.603432e+03,1.427305e+03
2.606324e+03,1.427546e+03
2.609217e+03,1.399770e+03
2.612110e+03,1.421660e+03
2.615003e+03,1.394522e+03
2.617895e+03,1.410449e+03
2.620788e+03,1.395922e+03
2.623681e+03,1.409869e+03
2.626573e+03,1.386688e+03
2.629466e+03,1.406293e+03
2.632359e+03,1.366755e+03
2.635251e+03,1.378533e+03
2.638144e+03,1.379872e+03
2.641037e+03,1.378684e+03
2.643929e+03,1.373198e+03
2.646822e+03,1.390222e+03
2.649715e+03,1.385201e+03
2.652608e+03,1.384369e+03
2.655500e+03,1.364611e+03
2.658393e+03,1.372061e+03
2.661286e+03,1.359391e+03
2.664178e+03,1.361371e+03
2.667071e+03,1.350715e+03
2.669964e+03,1.350074e+03
2.672857e+03,1.373948e+03
2.675749e+03,1.334980e+03
2.678642e+03,1.353300e+03
2.681535e+03,1.335732e+03
2.684427e+03,1.340985e+03
2.687320e+03,1.355535e+03
2.690213e+03,1.354370e+03
2.693105e+03,1.319805e+03
2.695998e+03,1.324336e+03
2.698891e+03,1.341579e+03
2.701783e+03,1.337687e+03
2.704676e+03,1.310853e+03
2.707569e+03,1.344023e+03
2.710462e+03,1.306521e+03
2.713354e+03,1.312582e+03
2.716247e+03,1.334380e+03
2.719140e+03,1.348822e+03
2.722032e+03,1.316158e+03
2.724925e+03,1.305798e+03
2.727818e+03,1.316887e+03
2.730711e+03,1.302195e+03
2.733603e+03,1.316581e+03
2.736496e+03,1.311157e+03
2.739389e+03,1.299087e+03
2.742281e+03,1.296696e+03
2.745174e+03,1.298029e+03
2.748067e+03,1.297927e+03
2.750959e+03,1.287550e+03
2.753852e+03,1.309253e+03
2.756745e+03,1.290474e+03
2.759637e+03,1.270593e+03
2.762530e+03,1.287188e+03
2.765423e+03,1.268916e+03
2.768316e+03,1.281787e+03
2.771208e+03,1.266357e+03
2.774101e+03,1.282773e+03
2.776994e+03,1.261673e+03
2.779886e+03,1.254770e+03
2.782779e+03,1.250917e+03
2.785672e+03,1.276478e+03
2.788565e+03,1.256172e+03
2.791457e+03,1.250644e+03
2.794350e+03,1.268668e+03
2.797243e+03,1.242779e+03
2.800135e+03,1.267096e+03
2.803028e+03,1.231778e+03
2.805921e+03,1.241420e+03
2.808813e+03,1.250659e+03
2.811706e+03,1.238959e+03
2.814599e+03,1.223559e+03
2.817491e+03,1.239481e+03
2.820384e+03,1.228434e+03
2.823277e+03,1.212715e+03
2.826170e+03,1.242207e+03
2.829062e+03,1.236181e+03
2.831955e+03,1.243556e+03
2.834848e+03,1.224929e+03
2.837740e+03,1.225245e+03
2.840633e+03,1.209053e+03
2.843526e+03,1.225762e+03
2.846419e+03,1.232886e+03
2.849311e+03,1.224058e+03
2.852204e+03,1.253931e+03
2.855097e+03,1.229191e+03
2.857990e+03,1.232661e+03
2.860882e+03,1.206575e+03
2.863775e+03,1.208929e+03
2.866667e+03,1.227222e+03
2.869560e+03,1.234742e+03
2.872453e+03,1.197576e+03
2.875345e+03,1.212058e+03
2.878238e+03,1.235854e+03
2.881131e+03,1.238779e+03
2.884024e+03,1.211396e+03
2.886916e+03,1.237409e+03
2.889809e+03,1.220703e+03
2.892702e+03,1.219475e+03
2.895594e+03,1.217486e+03
2.898487e+03,1.225411e+03
2.901380e+03,1.250626e+03
2.904273e+03,1.214111e+03
2.907165e+03,1.209438e+03
2.910058e+03,1.222812e+03
2.912951e+03,1.190531e+03
2.915844e+03,1.206470e+03
2.918736e+03,1.212188e+03
2.921629e+03,1.214557e+03
2.924521e+03,1.183219e+03
2.927414e+03,1.196139e+03
2.930307e+03,1.197006e+03
2.933199e+03,1.184890e+03
2.936092e+03,1.201081e+03
2.938985e+03,1.196443e+03
2.941878e+03,1.191465e+03
2.944770e+03,1.174856e+03
2.947663e+03,1.185955e+03
2.950556e+03,1.197004e+03
2.953448e+03,1.154491e+03
2.956341e+03,1.209723e+03
2.959234e+03,1.217286e+03
2.962127e+03,1.162787e+03
2.965019e+03,1.163040e+03
2.967912e+03,1.170444e+03
2.970805e+03,1.135951e+03
2.973698e+03,1.148140e+03
2.976590e+03,1.158710e+03
2.979483e+03,1.145248e+03
2.982375e+03,1.148409e+03
2.985268e+03,1.124680e+03
2.988161e+03,1.136504e+03
2.991053e+03,1.151980e+03
2.993946e+03,1.120087e+03
2.996839e+03,1.129491e+03
2.999732e+03,1.112627e+03
3.002624e+03,1.121654e+03
3.005517e+03,1.140042e+03
3.008410e+03,1.107189e+03
3.011302e+03,1.113216e+03
3.014195e+03,1.102646e+03
3.017088e+03,1.102852e+03
3.019981e+03,1.111052e+03
3.022873e+03,1.116309e+03
3.025766e+03,1.101154e+03
3.028659e+03,1.097639e+03
3.031552e+03,1.082517e+03
3.034444e+03,1.087625e+03
3.037337e+03,1.120824e+03
3.040229e+03,1.098390e+03
3.043122e+03,1.100680e+03
3.046015e+03,1.125661e+03
3.048907e+03,1.085792e+03
3.051800e+03,1.114813e+03
3.054693e+03,1.075467e+03
3.057586e+03,1.104838e+03
3.060478e+03,1.120989e+03
3.063371e+03,1.102391e+03
3.066264e+03,1.065290e+03
3.069156e+03,1.090710e+03
3.072049e+03,1.079967e+03
3.074942e+03,1.086549e+03
3.077835e+03,1.095905e+03
3.080727e+03,1.073149e+03
3.083620e+03,1.081904e+03
3.086513e+03,1.081067e+03
3.089406e+03,1.081400e+03
3.092298e+03,1.079623e+03
3.095191e+03,1.112511e+03
3.098083e+03,1.086823e+03
3.100976e+03,1.094466e+03
3.103869e+03,1.052568e+03
3.106761e+03,1.052118e+03
3.109654e+03,1.128003e+03
3.112547e+03,1.047310e+03
3.115440e+03,1.099487e+03
3.118332e+03,1.097123e+03
3.121225e+03,1.059268e+03
3.124118e+03,1.095156e+03
3.127010e+03,1.060672e+03
3.129903e+03,1.070164e+03
3.132796e+03,1.082099e+03
3.135689e+03,1.059550e+03
3.138581e+03,1.052010e+03
3.141474e+03,1.127329e+03
3.144367e+03,1.061702e+03
3.147260e+03,1.067705e+03
3.150152e+03,1.068490e+03
3.153045e+03,1.048665e+03
3.155938e+03,1.057154e+03
3.158830e+03,1.069589e+03
3.161723e+03,1.101921e+03
3.164615e+03,1.050945e+03
3.167508e+03,1.090928e+03
3.170401e+03,1.037549e+03
3.173294e+03,1.039830e+03
3.176186e+03,1.075670e+03
3.179079e+03,1.019176e+03
3.181972e+03,1.057504e+03
3.184865e+03,1.053881e+03
3.187757e+03,1.116416e+03
3.190650e+03,1.052103e+03
3.193543e+03,1.070508e+03
3.196435e+03,1.053297e+03
3.199328e+03,1.085086e+03
3.200292e+03,1.103920e+03