File: RAMAN_data/20012023_r1/red fibre2.CSV
1.995979e+02,8.005236e+03
2.024906e+02,8.010619e+03
2.053833e+02,8.031126e+03
2.082760e+02,8.033158e+03
2.111687e+02,8.021946e+03
2.140614e+02,8.021344e+03
2.169541e+02,8.059917e+03
2.198468e+02,8.062599e+03
2.227395e+02,8.071994e+03
2.256322e+02,8.048826e+03
2.285249e+02,8.039949e+03
2.314176e+02,8.072154e+03
2.343103e+02,8.101988e+03
2.372030e+02,8.095063e+03
2.400957e+02,8.106075e+03
2.429884e+02,8.106759e+03
2.458811e+02,8.106824e+03
2.487738e+02,8.115493e+03
2.516665e+02,8.133364e+03
2.545592e+02,8.119227e+03
2.574519e+02,8.110836e+03
2.603446e+02,8.119050e+03
2.632373e+02,8.125889e+03
2.661300e+02,8.165657e+03
2.690227e+02,8.160437e+03
2.719154e+02,8.165315e+03
2.748081e+02,8.156093e+03
2.777008e+02,8.174486e+03
2.805935e+02,8.203273e+03
2.834862e+02,8.222850e+03
2.863789e+02,8.192252e+03
2.892716e+02,8.165851e+03
2.921643e+02,8.173854e+03
2.950570e+02,8.164449e+03
2.979497e+02,8.167842e+03
3.008424e+02,8.187650e+03
3.037351e+02,8.186226e+03
3.066278e+02,8.159743e+03
3.095205e+02,8.169799e+03
3.124132e+02,8.174233e+03
3.153059e+02,8.199065e+03
3.181986e+02,8.206190e+03
3.210913e+02,8.207166e+03
3.239840e+02,8.197164e+03
3.268767e+02,8.211333e+03
3.297694e+02,8.208953e+03
3.326621e+02,8.187202e+03
3.355548e+02,8.171939e+03
3.384475e+02,8.187991e+03
3.413402e+02,8.185896e+03
3.442329e+02,8.198153e+03
3.471256e+02,8.178533e+03
3.500183e+02,8.165061e+03
3.529110e+02,8.193827e+03
3.558037e+02,8.172750e+03
3.586964e+02,8.176619e+03
3.615891e+02,8.197271e+03
3.644818e+02,8.175461e+03
3.673745e+02,8.165203e+03
3.702672e+02,8.191815e+03
3.731599e+02,8.212846e+03
3.760526e+02,8.170811e+03
3.789453e+02,8.217069e+03
3.818380e+02,8.162919e+03
3.847307e+02,8.153300e+03
3.876234e+02,8.146986e+03
3.905161e+02,8.170964e+03
3.934088e+02,8.137764e+03
3.963015e+02,8.138347e+03
3.991942e+02,8.127133e+03
4.020869e+02,8.110624e+03
4.049796e+02,8.152026e+03
4.078723e+02,8.110181e+03
4.107650e+02,8.124427e+03
4.136577e+02,8.110146e+03
4.165504e+02,8.106768e+03
4.194431e+02,8.120875e+03
4.223358e+02,8.119555e+03
4.252285e+02,8.091727e+03
4.281212e+02,8.086502e+03
4.310139e+02,8.095161e+03
4.339066e+02,8.072559e+03
4.367993e+02,8.086193e+03
4.396920e+02,8.090051e+03
4.425847e+02,8.055845e+03
4.454774e+02,8.042016e+03
4.483701e+02,8.062001e+03
4.512628e+02,8.047180e+03
4.541555e+02,8.056344e+03
4.570482e+02,8.019550e+03
4.599409e+02,8.029528e+03
4.628336e+02,8.026380e+03
4.657263e+02,7.989086e+03
4.686190e+02,8.000721e+03
4.715117e+02,8.020905e+03
4.744044e+02,7.987111e+03
4.772971e+02,7.992217e+03
4.801898e+02,7.992740e+03
4.830825e+02,7.972050e+03
4.859752e+02,7.980878e+03
4.888679e+02,7.972766e+03
4.917606e+02,7.966269e+03
4.946533e+02,7.983954e+03
4.975460e+02,7.968357e+03
5.004387e+02,7.958824e+03
5.033314e+02,7.939383e+03
5.062241e+02,7.927051e+03
5.091168e+02,7.931685e+03
5.120095e+02,7.917449e+03
5.149022e+02,7.929328e+03
5.177949e+02,7.932709e+03
5.206876e+02,7.883000e+03
5.235803e+02,7.873636e+03
5.264730e+02,7.862054e+03
5.293657e+02,7.880640e+03
5.322584e+02,7.860595e+03
5.351511e+02,7.846054e+03
5.380438e+02,7.843256e+03
5.409365e+02,7.841753e+03
5.438292e+02,7.838185e+03
5.467219e+02,7.837462e+03
5.496146e+02,7.819771e+03
5.525073e+02,7.793044e+03
5.554000e+02,7.773239e+03
5.582927e+02,7.801585e+03
5.611854e+02,7.807569e+03
5.640781e+02,7.769073e+03
5.669708e+02,7.784925e+03
5.698635e+02,7.761138e+03
5.727562e+02,7.751879e+03
5.756489e+02,7.749785e+03
5.785416e+02,7.748360e+03
5.814343e+02,7.740948e+03
5.843270e+02,7.702250e+03
5.872197e+02,7.728549e+03
5.901124e+02,7.710130e+03
5.930051e+02,7.683275e+03
5.958978e+02,7.654881e+03
5.987905e+02,7.651146e+03
6.016832e+02,7.665080e+03
6.045759e+02,7.678558e+03
6.074686e+02,7.665177e+03
6.103613e+02,7.627103e+03
6.132540e+02,7.603963e+03
6.161467e+02,7.575499e+03
6.190394e+02,7.595411e+03
6.219321e+02,7.589314e+03
6.248248e+02,7.601748e+03
6.277175e+02,7.581752e+03
6.306102e+02,7.553227e+03
6.335029e+02,7.586183e+03
6.363956e+02,7.556929e+03
6.392883e+02,7.526928e+03
6.421810e+02,7.532796e+03
6.450737e+02,7.540999e+03
6.479664e+02,7.497383e+03
6.508591e+02,7.474305e+03
6.537518e+02,7.502678e+03
6.566445e+02,7.493534e+03
6.595372e+02,7.497256e+03
6.624299e+02,7.447112e+03
6.653226e+02,7.412506e+03
6.682153e+02,7.443524e+03
6.711080e+02,7.453465e+03
6.740007e+02,7.423646e+03
6.768934e+02,7.409974e+03
6.797861e+02,7.402368e+03
6.826788e+02,7.381509e+03
6.855715e+02,7.377048e+03
6.884642e+02,7.369036e+03
6.913569e+02,7.338261e+03
6.942496e+02,7.315673e+03
6.971423e+02,7.338268e+03
7.000350e+02,7.331789e+03
7.029277e+02,7.328624e+03
7.058204e+02,7.279405e+03
7.087131e+02,7.282689e+03
7.116058e+02,7.309101e+03
7.144985e+02,7.278487e+03
7.173912e+02,7.254485e+03
7.202839e+02,7.258236e+03
7.231766e+02,7.216157e+03
7.260693e+02,7.213072e+03
7.289620e+02,7.199385e+03
7.318547e+02,7.196085e+03
7.347474e+02,7.206217e+03
7.376401e+02,7.165979e+03
7.405328e+02,7.162611e+03
7.434255e+02,7.170972e+03
7.463182e+02,7.171827e+03
7.492109e+02,7.138077e+03
7.521036e+02,7.095813e+03
7.549963e+02,7.120327e+03
7.578890e+02,7.097072e+03
7.607817e+02,7.110011e+03
7.636744e+02,7.106708e+03
7.665671e+02,7.107099e+03
7.694598e+02,7.048979e+03
7.723525e+02,7.046597e+03
7.752452e+02,7.064554e+03
7.781379e+02,7.052729e+03
7.810306e+02,7.048244e+03
7.839233e+02,7.022126e+03
7.868160e+02,7.005760e+03
7.897087e+02,6.975786e+03
7.926014e+02,6.984536e+03
7.954941e+02,6.949973e+03
7.983868e+02,6.943432e+03
8.012795e+02,6.934923e+03
8.041722e+02,6.933659e+03
8.070649e+02,6.921602e+03
8.099576e+02,6.911730e+03
8.128503e+02,6.892330e+03
8.157430e+02,6.886557e+03
8.186357e+02,6.893229e+03
8.215284e+02,6.866511e+03
8.244211e+02,6.865294e+03
8.273138e+02,6.854962e+03
8.302065e+02,6.837239e+03
8.330992e+02,6.818245e+03
8.359919e+02,6.841235e+03
8.388846e+02,6.819529e+03
8.417773e+02,6.808127e+03
8.446700e+02,6.795335e+03
8.475627e+02,6.768513e+03
8.504554e+02,6.804333e+03
8.533481e+02,6.765758e+03
8.562408e+02,6.745566e+03
8.591335e+02,6.721404e+03
8.620262e+02,6.717443e+03
8.649189e+02,6.694807e+03
8.678116e+02,6.713065e+03
8.707043e+02,6.727263e+03
8.735970e+02,6.693191e+03
8.764897e+02,6.684184e+03
8.793824e+02,6.682511e+03
8.822751e+02,6.668546e+03
8.851678e+02,6.668583e+03
8.880605e+02,6.645259e+03
8.909532e+02,6.625276e+03
8.938459e+02,6.623961e+03
8.967386e+02,6.602736e+03
8.996313e+02,6.595851e+03
9.025240e+02,6.559295e+03
9.054167e+02,6.536846e+03
9.083094e+02,6.537061e+03
9.112021e+02,6.505886e+03
9.140948e+02,6.538192e+03
9.169875e+02,6.535158e+03
9.198802e+02,6.516083e+03
9.227729e+02,6.484617e+03
9.256656e+02,6.478990e+03
9.285583e+02,6.465248e+03
9.314510e+02,6.466876e+03
9.343438e+02,6.447068e+03
9.372365e+02,6.439133e+03
9.401292e+02,6.411017e+03
9.430219e+02,6.432793e+03
9.459146e+02,6.429471e+03
9.488073e+02,6.410548e+03
9.517000e+02,6.382127e+03
9.545927e+02,6.366156e+03
9.574854e+02,6.356826e+03
9.603781e+02,6.396936e+03
9.632708e+02,6.355983e+03
9.661635e+02,6.355633e+03
9.690562e+02,6.330805e+03
9.719489e+02,6.323063e+03
9.748416e+02,6.296735e+03
9.777343e+02,6.295829e+03
9.806270e+02,6.293350e+03
9.835197e+02,6.254513e+03
9.864124e+02,6.252042e+03
9.893051e+02,6.236259e+03
9.921978e+02,6.249958e+03
9.950905e+02,6.231974e+03
9.979832e+02,6.219880e+03
1.000876e+03,6.215205e+03
1.003769e+03,6.210833e+03
1.006661e+03,6.190554e+03
1.009554e+03,6.179826e+03
1.012447e+03,6.185283e+03
1.015339e+03,6.139866e+03
1.018232e+03,6.142227e+03
1.021125e+03,6.150648e+03
1.024017e+03,6.148071e+03
1.026910e+03,6.132868e+03
1.029803e+03,6.118757e+03
1.032696e+03,6.079652e+03
1.035588e+03,6.075305e+03
1.038481e+03,6.087465e+03
1.041374e+03,6.080423e+03
1.044266e+03,6.061237e+03
1.047159e+03,6.066945e+03
1.050052e+03,6.054822e+03
1.052944e+03,6.052610e+03
1.055837e+03,6.037695e+03
1.058730e+03,6.019334e+03
1.061623e+03,6.015740e+03
1.064515e+03,6.014328e+03
1.067408e+03,5.988957e+03
1.070301e+03,6.016228e+03
1.073193e+03,6.000834e+03
1.076086e+03,5.985537e+03
1.078979e+03,5.965069e+03
1.081871e+03,5.991654e+03
1.084764e+03,5.971651e+03
1.087657e+03,5.974000e+03
1.090550e+03,5.955562e+03
1.093442e+03,5.952872e+03
1.096335e+03,5.923017e+03
1.099228e+03,5.934811e+03
1.102120e+03,5.902483e+03
1.105013e+03,5.902221e+03
1.107906e+03,5.877738e+03
1.110798e+03,5.855186e+03
1.113691e+03,5.883575e+03
1.116584e+03,5.876644e+03
1.119477e+03,5.880604e+03
1.122369e+03,5.837669e+03
1.125262e+03,5.818160e+03
1.128155e+03,5.840030e+03
1.131047e+03,5.830335e+03
1.133940e+03,5.843901e+03
1.136833e+03,5.808454e+03
1.139725e+03,5.797635e+03
1.142618e+03,5.780360e+03
1.145511e+03,5.794147e+03
1.148404e+03,5.784653e+03
1.151296e+03,5.770688e+03
1.154189e+03,5.772474e+03
1.157082e+03,5.735372e+03
1.159974e+03,5.711788e+03
1.162867e+03,5.742122e+03
1.165760e+03,5.749132e+03
1.168652e+03,5.720865e+03
1.171545e+03,5.704315e+03
1.174438e+03,5.698205e+03
1.177331e+03,5.693729e+03
1.180223e+03,5.688431e+03
1.183116e+03,5.671343e+03
1.186009e+03,5.653881e+03
1.188901e+03,5.649474e+03
1.191794e+03,5.658435e+03
1.194687e+03,5.656420e+03
1.197579e+03,5.681759e+03
1.200472e+03,5.633896e+03
1.203365e+03,5.627487e+03
1.206258e+03,5.620469e+03
1.209150e+03,5.630339e+03
1.212043e+03,5.624869e+03
1.214936e+03,5.596790e+03
1.217828e+03,5.600504e+03
1.220721e+03,5.584489e+03
1.223614e+03,5.581100e+03
1.226506e+03,5.599196e+03
1.229399e+03,5.580708e+03
1.232292e+03,5.555030e+03
1.235185e+03,5.546792e+03
1.238077e+03,5.547048e+03
1.240970e+03,5.550763e+03
1.243863e+03,5.536161e+03
1.246755e+03,5.520063e+03
1.249648e+03,5.502757e+03
1.252541e+03,5.522861e+03
1.255433e+03,5.504809e+03
1.258326e+03,5.504853e+03
1.261219e+03,5.472468e+03
1.264112e+03,5.474933e+03
1.267004e+03,5.475649e+03
1.269897e+03,5.477343e+03
1.272790e+03,5.470573e+03
1.275682e+03,5.476681e+03
1.278575e+03,5.465056e+03
1.281468e+03,5.441391e+03
1.284360e+03,5.444665e+03
1.287253e+03,5.453863e+03
1.290146e+03,5.424700e+03
1.293039e+03,5.404724e+03
1.295931e+03,5.404162e+03
1.298824e+03,5.378645e+03
1.301717e+03,5.398881e+03
1.304609e+03,5.398615e+03
1.307502e+03,5.378302e+03
1.310395e+03,5.376482e+03
1.313287e+03,5.372439e+03
1.316180e+03,5.363329e+03
1.319073e+03,5.376355e+03
1.321966e+03,5.353614e+03
1.324858e+03,5.342622e+03
1.327751e+03,5.336594e+03
1.330644e+03,5.340989e+03
1.333536e+03,5.349369e+03
1.336429e+03,5.343920e+03
1.339322e+03,5.343359e+03
1.342214e+03,5.329528e+03
1.345107e+03,5.320494e+03
1.348000e+03,5.307797e+03
1.350893e+03,5.292778e+03
1.353785e+03,5.291212e+03
1.356678e+03,5.262944e+03
1.359571e+03,5.253686e+03
1.362463e+03,5.252420e+03
1.365356e+03,5.250446e+03
1.368249e+03,5.242741e+03
1.371141e+03,5.232299e+03
1.374034e+03,5.228964e+03
1.376927e+03,5.220307e+03
1.379820e+03,5.189328e+03
1.382712e+03,5.192526e+03
1.385605e+03,5.190646e+03
1.388498e+03,5.157126e+03
1.391390e+03,5.145257e+03
1.394283e+03,5.155175e+03
1.397176e+03,5.180463e+03
1.400068e+03,5.135619e+03
1.402961e+03,5.136104e+03
1.405854e+03,5.124423e+03
1.408747e+03,5.130430e+03
1.411639e+03,5.120671e+03
1.414532e+03,5.112381e+03
1.417425e+03,5.094086e+03
1.420317e+03,5.088314e+03
1.423210e+03,5.092751e+03
1.426103e+03,5.069357e+03
1.428995e+03,5.063400e+03
1.431888e+03,5.048781e+03
1.434781e+03,5.050291e+03
1.437674e+03,5.027854e+03
1.440566e+03,5.026502e+03
1.443459e+03,5.019886e+03
1.446352e+03,5.017299e+03
1.449244e+03,5.011168e+03
1.452137e+03,4.995536e+03
1.455030e+03,4.991984e+03
1.457922e+03,5.000307e+03
1.460815e+03,4.984435e+03
1.463708e+03,4.973946e+03
1.466601e+03,4.950937e+03
1.469493e+03,4.961090e+03
1.472386e+03,4.957900e+03
1.475279e+03,4.931728e+03
1.478171e+03,4.928721e+03
1.481064e+03,4.921577e+03
1.483957e+03,4.907460e+03
1.486849e+03,4.915831e+03
1.489742e+03,4.915992e+03
1.492635e+03,4.885728e+03
1.495528e+03,4.890231e+03
1.498420e+03,4.900851e+03
1.501313e+03,4.854701e+03
1.504206e+03,4.872163e+03
1.507098e+03,4.861124e+03
1.509991e+03,4.851365e+03
1.512884e+03,4.823732e+03
1.515776e+03,4.817948e+03
1.518669e+03,4.814630e+03
1.521562e+03,4.813737e+03
1.524455e+03,4.810907e+03
1.527347e+03,4.818876e+03
1.530240e+03,4.765859e+03
1.533133e+03,4.805121e+03
1.536025e+03,4.777638e+03
1.538918e+03,4.782305e+03
1.541811e+03,4.768639e+03
1.544703e+03,4.736430e+03
1.547596e+03,4.744493e+03
1.550489e+03,4.763372e+03
1.553382e+03,4.762633e+03
1.556274e+03,4.741393e+03
1.559167e+03,4.724626e+03
1.562060e+03,4.741709e+03
1.564952e+03,4.730513e+03
1.567845e+03,4.731183e+03
1.570738e+03,4.723893e+03
1.573630e+03,4.720420e+03
1.576523e+03,4.722479e+03
1.579416e+03,4.696563e+03
1.582309e+03,4.701243e+03
1.585201e+03,4.693208e+03
1.588094e+03,4.692150e+03
1.590987e+03,4.657596e+03
1.593879e+03,4.646226e+03
1.596772e+03,4.676067e+03
1.599665e+03,4.660252e+03
1.602557e+03,4.653714e+03
1.605450e+03,4.590976e+03
1.608343e+03,4.618057e+03
1.611236e+03,4.593855e+03
1.614128e+03,4.593019e+03
1.617021e+03,4.563434e+03
1.619914e+03,4.590558e+03
1.622806e+03,4.546679e+03
1.625699e+03,4.557042e+03
1.628592e+03,4.519739e+03
1.631484e+03,4.530699e+03
1.634377e+03,4.516981e+03
1.637270e+03,4.511542e+03
1.640163e+03,4.491379e+03
1.643055e+03,4.508566e+03
1.645948e+03,4.474364e+03
1.648841e+03,4.473890e+03
1.651733e+03,4.456685e+03
1.654626e+03,4.442983e+03
1.657519e+03,4.436143e+03
1.660411e+03,4.441848e+03
1.663304e+03,4.420636e+03
1.666197e+03,4.407277e+03
1.669090e+03,4.419472e+03
1.671982e+03,4.382089e+03
1.674875e+03,4.384684e+03
1.677768e+03,4.368469e+03
1.680660e+03,4.360243e+03
1.683553e+03,4.347160e+03
1.686446e+03,4.356976e+03
1.689339e+03,4.344716e+03
1.692231e+03,4.342833e+03
1.695124e+03,4.322424e+03
1.698017e+03,4.331092e+03
1.700909e+03,4.332200e+03
1.703802e+03,4.301083e+03
1.706695e+03,4.296356e+03
1.709587e+03,4.297374e+03
1.712480e+03,4.278334e+03
1.715373e+03,4.240610e+03
1.718266e+03,4.258082e+03
1.721158e+03,4.252059e+03
1.724051e+03,4.246548e+03
1.726944e+03,4.226619e+03
1.729836e+03,4.206867e+03
1.732729e+03,4.201290e+03
1.735622e+03,4.188357e+03
1.738514e+03,4.213206e+03
1.741407e+03,4.213296e+03
1.744300e+03,4.187823e+03
1.747193e+03,4.178816e+03
1.750085e+03,4.173936e+03
1.752978e+03,4.156382e+03
1.755871e+03,4.146762e+03
1.758763e+03,4.132541e+03
1.761656e+03,4.117513e+03
1.764549e+03,4.129922e+03
1.767441e+03,4.122942e+03
1.770334e+03,4.107736e+03
1.773227e+03,4.104736e+03
1.776120e+03,4.077422e+03
1.779012e+03,4.088929e+03
1.781905e+03,4.067128e+03
1.784798e+03,4.099339e+03
1.787690e+03,4.082014e+03
1.790583e+03,4.022014e+03
1.793476e+03,4.025454e+03
1.796368e+03,4.029125e+03
1.799261e+03,4.049707e+03
1.802154e+03,4.031984e+03
1.805047e+03,4.018987e+03
1.807939e+03,3.992413e+03
1.810832e+03,3.977809e+03
1.813725e+03,3.963525e+03
1.816617e+03,3.986362e+03
1.819510e+03,3.979707e+03
1.822403e+03,3.962885e+03
1.825295e+03,3.936168e+03
1.828188e+03,3.935753e+03
1.831081e+03,3.950377e+03
1.833974e+03,3.927069e+03
1.836866e+03,3.942395e+03
1.839759e+03,3.938258e+03
1.842652e+03,3.906010e+03
1.845544e+03,3.903697e+03
1.848437e+03,3.912833e+03
1.851330e+03,3.864714e+03
1.854222e+03,3.869645e+03
1.857115e+03,3.854115e+03
1.860008e+03,3.836322e+03
1.862901e+03,3.818944e+03
1.865793e+03,3.827692e+03
1.868686e+03,3.820076e+03
1.871579e+03,3.808597e+03
1.874471e+03,3.811802e+03
1.877364e+03,3.819306e+03
1.880257e+03,3.795949e+03
1.883149e+03,3.755816e+03
1.886042e+03,3.771312e+03
1.888935e+03,3.741368e+03
1.891828e+03,3.767187e+03
1.894720e+03,3.755294e+03
1.897613e+03,3.755293e+03
1.900506e+03,3.712982e+03
1.903398e+03,3.718530e+03
1.906291e+03,3.743074e+03
1.909184e+03,3.705491e+03
1.912076e+03,3.707746e+03
1.914969e+03,3.688145e+03
1.917862e+03,3.657806e+03
1.920755e+03,3.684228e+03
1.923647e+03,3.664977e+03
1.926540e+03,3.661927e+03
1.929433e+03,3.636784e+03
1.932325e+03,3.643095e+03
1.935218e+03,3.624692e+03
1.938111e+03,3.610728e+03
1.941003e+03,3.643302e+03
1.943896e+03,3.595588e+03
1.946789e+03,3.584508e+03
1.949682e+03,3.587206e+03
1.952574e+03,3.580983e+03
1.955467e+03,3.567304e+03
1.958360e+03,3.530321e+03
1.961252e+03,3.517120e+03
1.964145e+03,3.563006e+03
1.967038e+03,3.516128e+03
1.969930e+03,3.519461e+03
1.972823e+03,3.494917e+03
1.975716e+03,3.499258e+03
1.978609e+03,3.485339e+03
1.981501e+03,3.489392e+03
1.984394e+03,3.502870e+03
1.987287e+03,3.480280e+03
1.990179e+03,3.453415e+03
1.993072e+03,3.442954e+03
1.995965e+03,3.442506e+03
1.998857e+03,3.440902e+03
2.001750e+03,3.420826e+03
2.004643e+03,3.431177e+03
2.007536e+03,3.433212e+03
2.010428e+03,3.395668e+03
2.013321e+03,3.404453e+03
2.016214e+03,3.393761e+03
2.019106e+03,3.368194e+03
2.021999e+03,3.373097e+03
2.024892e+03,3.355881e+03
2.027784e+03,3.357121e+03
2.030677e+03,3.337663e+03
2.033570e+03,3.355002e+03
2.036463e+03,3.328462e+03
2.039355e+03,3.305874e+03
2.042248e+03,3.287922e+03
2.045141e+03,3.308726e+03
2.048033e+03,3.288507e+03
2.050926e+03,3.298898e+03
2.053819e+03,3.272537e+03
2.056711e+03,3.241040e+03
2.059604e+03,3.215308e+03
2.062497e+03,3.249576e+03
2.065390e+03,3.253196e+03
2.068282e+03,3.216181e+03
2.071175e+03,3.204913e+03
2.074068e+03,3.216262e+03
2.076960e+03,3.208072e+03
2.079853e+03,3.180499e+03
2.082746e+03,3.190432e+03
2.085638e+03,3.169142e+03
2.088531e+03,3.180864e+03
2.091424e+03,3.151737e+03
2.094316e+03,3.158087e+03
2.097209e+03,3.169745e+03
2.100102e+03,3.123628e+03
2.102995e+03,3.127516e+03
2.105887e+03,3.092541e+03
2.108780e+03,3.136703e+03
2.111673e+03,3.093066e+03
2.114565e+03,3.087542e+03
2.117458e+03,3.065112e+03
2.120351e+03,3.074996e+03
2.123244e+03,3.095617e+03
2.126136e+03,3.056679e+03
2.129029e+03,3.033529e+03
2.131922e+03,3.062651e+03
2.134814e+03,3.031563e+03
2.137707e+03,3.040237e+03
2.140600e+03,3.019339e+03
2.143492e+03,3.001500e+03
2.146385e+03,2.970848e+03
2.149278e+03,3.001474e+03
2.152170e+03,2.986788e+03
2.155063e+03,2.979035e+03
2.157956e+03,2.962311e+03
2.160849e+03,2.951735e+03
2.163741e+03,2.952750e+03
2.166634e+03,2.949995e+03
2.169527e+03,2.945348e+03
2.172419e+03,2.944162e+03
2.175312e+03,2.916128e+03
2.178205e+03,2.916864e+03
2.181098e+03,2.888098e+03
2.183990e+03,2.908528e+03
2.186883e+03,2.911044e+03
2.189776e+03,2.862294e+03
2.192668e+03,2.884724e+03
2.195561e+03,2.869200e+03
2.198454e+03,2.833290e+03
2.201346e+03,2.838379e+03
2.204239e+03,2.864276e+03
2.207132e+03,2.846032e+03
2.210024e+03,2.799106e+03
2.212917e+03,2.812079e+03
2.215810e+03,2.827344e+03
2.218703e+03,2.798752e+03
2.221595e+03,2.787361e+03
2.224488e+03,2.762543e+03
2.227381e+03,2.760719e+03
2.230273e+03,2.765609e+03
2.233166e+03,2.754622e+03
2.236059e+03,2.745337e+03
2.238952e+03,2.764753e+03
2.241844e+03,2.698212e+03
2.244737e+03,2.711816e+03
2.247630e+03,2.707206e+03
2.250522e+03,2.695395e+03
2.253415e+03,2.709201e+03
2.256308e+03,2.690947e+03
2.259200e+03,2.659632e+03
2.262093e+03,2.667965e+03
2.264986e+03,2.671377e+03
2.267879e+03,2.666602e+03
2.270771e+03,2.628799e+03
2.273664e+03,2.635706e+03
2.276557e+03,2.637040e+03
2.279449e+03,2.636033e+03
2.282342e+03,2.609657e+03
2.285235e+03,2.628090e+03
2.288127e+03,2.608656e+03
2.291020e+03,2.575995e+03
2.293913e+03,2.594672e+03
2.296805e+03,2.594605e+03
2.299698e+03,2.582498e+03
2.302591e+03,2.564565e+03
2.305484e+03,2.525606e+03
2.308376e+03,2.528819e+03
2.311269e+03,2.533199e+03
2.314162e+03,2.535438e+03
2.317054e+03,2.527766e+03
2.319947e+03,2.534297e+03
2.322840e+03,2.525745e+03
2.325733e+03,2.510592e+03
2.328625e+03,2.495305e+03
2.331518e+03,2.504730e+03
2.334411e+03,2.494957e+03
2.337303e+03,2.456603e+03
2.340196e+03,2.471261e+03
2.343089e+03,2.461759e+03
2.345981e+03,2.494895e+03
2.348874e+03,2.455475e+03
2.351767e+03,2.443561e+03
2.354659e+03,2.443703e+03
2.357552e+03,2.431081e+03
2.360445e+03,2.414027e+03
2.363338e+03,2.450181e+03
2.366230e+03,2.412115e+03
2.369123e+03,2.416624e+03
2.372016e+03,2.401457e+03
2.374908e+03,2.386638e+03
2.377801e+03,2.393394e+03
2.380694e+03,2.370063e+03
2.383587e+03,2.360074e+03
2.386479e+03,2.363506e+03
2.389372e+03,2.354120e+03
2.392265e+03,2.354933e+03
2.395157e+03,2.335937e+03
2.398050e+03,2.328087e+03
2.400943e+03,2.337851e+03
2.403835e+03,2.327935e+03
2.406728e+03,2.317797e+03
2.409621e+03,2.319834e+03
2.412513e+03,2.309970e+03
2.415406e+03,2.306878e+03
2.418299e+03,2.283962e+03
2.421192e+03,2.299744e+03
2.424084e+03,2.288648e+03
2.426977e+03,2.291121e+03
2.429870e+03,2.269461e+03
2.432762e+03,2.248449e+03
2.435655e+03,2.244859e+03
2.438548e+03,2.255583e+03
2.441441e+03,2.238760e+03
2.444333e+03,2.207069e+03
2.447226e+03,2.246296e+03
2.450119e+03,2.196531e+03
2.453011e+03,2.231386e+03
2.455904e+03,2.209933e+03
2.458797e+03,2.227449e+03
2.461689e+03,2.191013e+03
2.464582e+03,2.211710e+03
2.467475e+03,2.206688e+03
2.470367e+03,2.188722e+03
2.473260e+03,2.186031e+03
2.476153e+03,2.177186e+03
2.479046e+03,2.175209e+03
2.481938e+03,2.162395e+03
2.484831e+03,2.165516e+03
2.487724e+03,2.157111e+03
2.490616e+03,2.161319e+03
2.493509e+03,2.155131e+03
2.496402e+03,2.151003e+03
2.499295e+03,2.135077e+03
2.502187e+03,2.133690e+03
2.505080e+03,2.117603e+03
2.507973e+03,2.098983e+03
2.510865e+03,2.122858e+03
2.513758e+03,2.102416e+03
2.516651e+03,2.110815e+03
2.519543e+03,2.109171e+03
2.522436e+03,2.074115e+03
2.525329e+03,2.094004e+03
2.528221e+03,2.087550e+03
2.531114e+03,2.082162e+03
2.534007e+03,2.070849e+03
2.536900e+03,2.060643e+03
2.539792e+03,2.052727e+03
2.542685e+03,2.056532e+03
2.545578e+03,2.045052e+03
2.548470e+03,2.070535e+03
2.551363e+03,2.081277e+03
2.554256e+03,2.042759e+03
2.557149e+03,2.036817e+03
2.560041e+03,2.059427e+03
2.562934e+03,2.030979e+03
2.565827e+03,2.025491e+03
2.568719e+03,2.020614e+03
2.571612e+03,2.011202e+03
2.574505e+03,2.016087e+03
2.577397e+03,2.004929e+03
2.580290e+03,2.003524e+03
2.583183e+03,2.007498e+03
2.586075e+03,1.974274e+03
2.588968e+03,1.988817e+03
2.591861e+03,1.955023e+03
2.594754e+03,1.990123e+03
2.597646e+03,1.956984e+03
2.600539e+03,1.940243e+03
2.603432e+03,1.972400e+03
2.606324e+03,1.933386e+03
2.609217e+03,1.977939e+03
2.612110e+03,1.908552e+03
2.615003e+03,1.950382e+03
2.617895e+03,1.914158e+03
2.620788e+03,1.924536e+03
2.623681e+03,1.939333e+03
2.626573e+03,1.922102e+03
2.629466e+03,1.928648e+03
2.632359e+03,1.914840e+03
2.635251e+03,1.909342e+03
2.638144e+03,1.924045e+03
2.641037e+03,1.890652e+03
2.643929e+03,1.903420e+03
2.646822e+03,1.899615e+03
2.649715e+03,1.903183e+03
2.652608e+03,1.881135e+03
2.655500e+03,1.889959e+03
2.658393e+03,1.881582e+03
2.661286e+03,1.858074e+03
2.664178e+03,1.855195e+03
2.667071e+03,1.867578e+03
2.669964e+03,1.867573e+03
2.672857e+03,1.867394e+03
2.675749e+03,1.855737e+03
2.678642e+03,1.839796e+03
2.681535e+03,1.830321e+03
2.684427e+03,1.836144e+03
2.687320e+03,1.837585e+03
2.690213e+03,1.839263e+03
2.693105e+03,1.839222e+03
2.695998e+03,1.807249e+03
2.698891e+03,1.835624e+03
2.701783e+03,1.827672e+03
2.704676e+03,1.832322e+03
2.707569e+03,1.828510e+03
2.710462e+03,1.790357e+03
2.713354e+03,1.795770e+03
2.716247e+03,1.797414e+03
2.719140e+03,1.809246e+03
2.722032e+03,1.815679e+03
2.724925e+03,1.772244e+03
2.727818e+03,1.798260e+03
2.730711e+03,1.785240e+03
2.733603e+03,1.775391e+03
2.736496e+03,1.762287e+03
2.739389e+03,1.782416e+03
2.742281e+03,1.741694e+03
2.745174e+03,1.758104e+03
2.748067e+03,1.765704e+03
2.750959e+03,1.773206e+03
2.753852e+03,1.758560e+03
2.756745e+03,1.729587e+03
2.759637e+03,1.762225e+03
2.762530e+03,1.740782e+03
2.765423e+03,1.718200e+03
2.768316e+03,1.742206e+03
2.771208e+03,1.713768e+03
2.774101e+03,1.719674e+03
2.776994e+03,1.707302e+03
2.779886e+03,1.730769e+03
2.782779e+03,1.722240e+03
2.785672e+03,1.727762e+03
2.788565e+03,1.732718e+03
2.791457e+03,1.704676e+03
2.794350e+03,1.716414e+03
2.797243e+03,1.708570e+03
2.800135e+03,1.707138e+03
2.803028e+03,1.690909e+03
2.805921e+03,1.669831e+03
2.808813e+03,1.660570e+03
2.811706e+03,1.689328e+03
2.814599e+03,1.687430e+03
2.817491e+03,1.686366e+03
2.820384e+03,1.657083e+03
2.823277e+03,1.688672e+03
2.826170e+03,1.666103e+03
2.829062e+03,1.679863e+03
2.831955e+03,1.658513e+03
2.834848e+03,1.685933e+03
2.837740e+03,1.682794e+03
2.840633e+03,1.657303e+03
2.843526e+03,1.661197e+03
2.846419e+03,1.666898e+03
2.849311e+03,1.637808e+03
2.852204e+03,1.641795e+03
2.855097e+03,1.648119e+03
2.857990e+03,1.648609e+03
2.860882e+03,1.642388e+03
2.863775e+03,1.634052e+03
2.866667e+03,1.651943e+03
2.869560e+03,1.607858e+03
2.872453e+03,1.667128e+03
2.875345e+03,1.621199e+03
2.878238e+03,1.626576e+03
2.881131e+03,1.613679e+03
2.884024e+03,1.639059e+03
2.886916e+03,1.630214e+03
2.889809e+03,1.615574e+03
2.892702e+03,1.608820e+03
2.895594e+03,1.600825e+03
2.898487e+03,1.617158e+03
2.901380e+03,1.641482e+03
2.904273e+03,1.584223e+03
2.907165e+03,1.608503e+03
2.910058e+03,1.587930e+03
2.912951e+03,1.587813e+03
2.915844e+03,1.584418e+03
2.918736e+03,1.582398e+03
2.921629e+03,1.586463e+03
2.924521e+03,1.556332e+03
2.927414e+03,1.574464e+03
2.930307e+03,1.580375e+03
2.933199e+03,1.592047e+03
2.936092e+03,1.556355e+03
2.938985e+03,1.612007e+03
2.941878e+03,1.563151e+03
2.944770e+03,1.574634e+03
2.947663e+03,1.559747e+03
2.950556e+03,1.557238e+03
2.953448e+03,1.580371e+03
2.956341e+03,1.606377e+03
2.959234e+03,1.614269e+03
2.962127e+03,1.583840e+03
2.965019e+03,1.561392e+03
2.967912e+03,1.537811e+03
2.970805e+03,1.540316e+03
2.973698e+03,1.507912e+03
2.976590e+03,1.539687e+03
2.979483e+03,1.539863e+03
2.982375e+03,1.518088e+03
2.985268e+03,1.558465e+03
2.988161e+03,1.528338e+03
2.991053e+03,1.507670e+03
2.993946e+03,1.504691e+03
2.996839e+03,1.530207e+03
2.999732e+03,1.500046e+03
3.002624e+03,1.524213e+03
3.005517e+03,1.484968e+03
3.008410e+03,1.517308e+03
3.011302e+03,1.514904e+03
3.014195e+03,1.486005e+03
3.017088e+03,1.507852e+03
3.019981e+03,1.500961e+03
3.022873e+03,1.473805e+03
3.025766e+03,1.485863e+03
3.028659e+03,1.541116e+03
3.031552e+03,1.489141e+03
3.034444e+03,1.480763e+03
3.037337e+03,1.470548e+03
3.040229e+03,1.497334e+03
3.043122e+03,1.501263e+03
3.046015e+03,1.481300e+03
3.048907e+03,1.487345e+03
3.051800e+03,1.483164e+03
3.054693e+03,1.520547e+03
3.057586e+03,1.452698e+03
3.060478e+03,1.489342e+03
3.063371e+03,1.467379e+03
3.066264e+03,1.481404e+03
3.069156e+03,1.455278e+03
3.072049e+03,1.471307e+03
3.074942e+03,1.446368e+03
3.077835e+03,1.436467e+03
3.080727e+03,1.468355e+03
3.083620e+03,1.454780e+03
3.086513e+03,1.503150e+03
3.089406e+03,1.448493e+03
3.092298e+03,1.442548e+03
3.095191e+03,1.463846e+03
3.098083e+03,1.449558e+03
3.100976e+03,1.444328e+03
3.103869e+03,1.456831e+03
3.106761e+03,1.453773e+03
3.109654e+03,1.482877e+03
3.112547e+03,1.438718e+03
3.115440e+03,1.472629e+03
3.118332e+03,1.475028e+03
3.121225e+03,1.499998e+03
3.124118e+03,1.449529e+03
3.127010e+03,1.449808e+03
3.129903e+03,1.431046e+03
3.132796e+03,1.380737e+03
3.135689e+03,1.457031e+03
3.138581e+03,1.458175e+03
3.141474e+03,1.486918e+03
3.144367e+03,1.403519e+03
3.147260e+03,1.485354e+03
3.150152e+03,1.450159e+03
3.153045e+03,1.415357e+03
3.155938e+03,1.403334e+03
3.158830e+03,1.467774e+03
3.161723e+03,1.436255e+03
3.164615e+03,1.459262e+03
3.167508e+03,1.486016e+03
3.170401e+03,1.449572e+03
3.173294e+03,1.486975e+03
3.176186e+03,1.450017e+03
3.179079e+03,1.440713e+03
3.181972e+03,1.426264e+03
3.184865e+03,1.504221e+03
3.187757e+03,2.360477e+03
3.190650e+03,1.439558e+03
3.193543e+03,1.473060e+03
3.196435e+03,1.459358e+03
3.199328e+03,1.453919e+03
3.200292e+03,1.444292e+03