File: RAMAN_data/20012023_r1/red frag1.CSV
1.995979e+02,3.881046e+03
2.024906e+02,3.900355e+03
2.053833e+02,3.911977e+03
2.082760e+02,3.902608e+03
2.111687e+02,3.897470e+03
2.140614e+02,3.898713e+03
2.169541e+02,3.897268e+03
2.198468e+02,3.918675e+03
2.227395e+02,3.923713e+03
2.256322e+02,3.898852e+03
2.285249e+02,3.910685e+03
2.314176e+02,3.926961e+03
2.343103e+02,3.915357e+03
2.372030e+02,3.918363e+03
2.400957e+02,3.914804e+03
2.429884e+02,3.915634e+03
2.458811e+02,3.915071e+03
2.487738e+02,3.914649e+03
2.516665e+02,3.937078e+03
2.545592e+02,3.940925e+03
2.574519e+02,3.949011e+03
2.603446e+02,3.936557e+03
2.632373e+02,3.941984e+03
2.661300e+02,3.945234e+03
2.690227e+02,3.943967e+03
2.719154e+02,3.941090e+03
2.748081e+02,3.940575e+03
2.777008e+02,3.946789e+03
2.805935e+02,3.961211e+03
2.834862e+02,3.981712e+03
2.863789e+02,3.974589e+03
2.892716e+02,3.953464e+03
2.921643e+02,3.968780e+03
2.950570e+02,3.960770e+03
2.979497e+02,3.960133e+03
3.008424e+02,3.960998e+03
3.037351e+02,3.944000e+03
3.066278e+02,3.953479e+03
3.095205e+02,3.961433e+03
3.124132e+02,3.950455e+03
3.153059e+02,3.965754e+03
3.181986e+02,3.964535e+03
3.210913e+02,3.948905e+03
3.239840e+02,3.947850e+03
3.268767e+02,3.952688e+03
3.297694e+02,3.947518e+03
3.326621e+02,3.955898e+03
3.355548e+02,3.956415e+03
3.384475e+02,3.951587e+03
3.413402e+02,3.974051e+03
3.442329e+02,3.964117e+03
3.471256e+02,3.951533e+03
3.500183e+02,3.952538e+03
3.529110e+02,3.953088e+03
3.558037e+02,3.979114e+03
3.586964e+02,3.956575e+03
3.615891e+02,3.969109e+03
3.644818e+02,3.971606e+03
3.673745e+02,3.953894e+03
3.702672e+02,3.955883e+03
3.731599e+02,3.952123e+03
3.760526e+02,3.968641e+03
3.789453e+02,3.948953e+03
3.818380e+02,3.958577e+03
3.847307e+02,3.949878e+03
3.876234e+02,3.938257e+03
3.905161e+02,3.932453e+03
3.934088e+02,3.943884e+03
3.963015e+02,3.932083e+03
3.991942e+02,3.922005e+03
4.020869e+02,3.931852e+03
4.049796e+02,3.905004e+03
4.078723e+02,3.938268e+03
4.107650e+02,3.914407e+03
4.136577e+02,3.896702e+03
4.165504e+02,3.900000e+03
4.194431e+02,3.911378e+03
4.223358e+02,3.897388e+03
4.252285e+02,3.907497e+03
4.281212e+02,3.902403e+03
4.310139e+02,3.915492e+03
4.339066e+02,3.914945e+03
4.367993e+02,3.912218e+03
4.396920e+02,3.894233e+03
4.425847e+02,3.885825e+03
4.454774e+02,3.886801e+03
4.483701e+02,3.881602e+03
4.512628e+02,3.884315e+03
4.541555e+02,3.888188e+03
4.570482e+02,3.887626e+03
4.599409e+02,3.841226e+03
4.628336e+02,3.844695e+03
4.657263e+02,3.843508e+03
4.686190e+02,3.861387e+03
4.715117e+02,3.863141e+03
4.744044e+02,3.854201e+03
4.772971e+02,3.839707e+03
4.801898e+02,3.845716e+03
4.830825e+02,3.829958e+03
4.859752e+02,3.822954e+03
4.888679e+02,3.820080e+03
4.917606e+02,3.816565e+03
4.946533e+02,3.810273e+03
4.975460e+02,3.824211e+03
5.004387e+02,3.810577e+03
5.033314e+02,3.805396e+03
5.062241e+02,3.809760e+03
5.091168e+02,3.773827e+03
5.120095e+02,3.800216e+03
5.149022e+02,3.808817e+03
5.177949e+02,3.794375e+03
5.206876e+02,3.793544e+03
5.235803e+02,3.784556e+03
5.264730e+02,3.799462e+03
5.293657e+02,3.757175e+03
5.322584e+02,3.741307e+03
5.351511e+02,3.751133e+03
5.380438e+02,3.770122e+03
5.409365e+02,3.758412e+03
5.438292e+02,3.750448e+03
5.467219e+02,3.753851e+03
5.496146e+02,3.744117e+03
5.525073e+02,3.747578e+03
5.554000e+02,3.735526e+03
5.582927e+02,3.745773e+03
5.611854e+02,3.737243e+03
5.640781e+02,3.728925e+03
5.669708e+02,3.710774e+03
5.698635e+02,3.709711e+03
5.727562e+02,3.703539e+03
5.756489e+02,3.718838e+03
5.785416e+02,3.713655e+03
5.814343e+02,3.677116e+03
5.843270e+02,3.678694e+03
5.872197e+02,3.681102e+03
5.901124e+02,3.672767e+03
5.930051e+02,3.662528e+03
5.958978e+02,3.667293e+03
5.987905e+02,3.666624e+03
6.016832e+02,3.665936e+03
6.045759e+02,3.681967e+03
6.074686e+02,3.658467e+03
6.103613e+02,3.653984e+03
6.132540e+02,3.650487e+03
6.161467e+02,3.635982e+03
6.190394e+02,3.642205e+03
6.219321e+02,3.641924e+03
6.248248e+02,3.627597e+03
6.277175e+02,3.633567e+03
6.306102e+02,3.613392e+03
6.335029e+02,3.624971e+03
6.363956e+02,3.599763e+03
6.392883e+02,3.604633e+03
6.421810e+02,3.599324e+03
6.450737e+02,3.580153e+03
6.479664e+02,3.587413e+03
6.508591e+02,3.570406e+03
6.537518e+02,3.585691e+03
6.566445e+02,3.555525e+03
6.595372e+02,3.561693e+03
6.624299e+02,3.558020e+03
6.653226e+02,3.554696e+03
6.682153e+02,3.553461e+03
6.711080e+02,3.550820e+03
6.740007e+02,3.535370e+03
6.768934e+02,3.519633e+03
6.797861e+02,3.550626e+03
6.826788e+02,3.535438e+03
6.855715e+02,3.507368e+03
6.884642e+02,3.512195e+03
6.913569e+02,3.509142e+03
6.942496e+02,3.500970e+03
6.971423e+02,3.488437e+03
7.000350e+02,3.493070e+03
7.029277e+02,3.475406e+03
7.058204e+02,3.467376e+03
7.087131e+02,3.467145e+03
7.116058e+02,3.469334e+03
7.144985e+02,3.467819e+03
7.173912e+02,3.473642e+03
7.202839e+02,3.471927e+03
7.231766e+02,3.454417e+03
7.260693e+02,3.470348e+03
7.289620e+02,3.453324e+03
7.318547e+02,3.449338e+03
7.347474e+02,3.421135e+03
7.376401e+02,3.399878e+03
7.405328e+02,3.400200e+03
7.434255e+02,3.414138e+03
7.463182e+02,3.416499e+03
7.492109e+02,3.395931e+03
7.521036e+02,3.389244e+03
7.549963e+02,3.364461e+03
7.578890e+02,3.394455e+03
7.607817e+02,3.382087e+03
7.636744e+02,3.372807e+03
7.665671e+02,3.357161e+03
7.694598e+02,3.359609e+03
7.723525e+02,3.353940e+03
7.752452e+02,3.362233e+03
7.781379e+02,3.340390e+03
7.810306e+02,3.333324e+03
7.839233e+02,3.312991e+03
7.868160e+02,3.335356e+03
7.897087e+02,3.319635e+03
7.926014e+02,3.319973e+03
7.954941e+02,3.315789e+03
7.983868e+02,3.303211e+03
8.012795e+02,3.296010e+03
8.041722e+02,3.305741e+03
8.070649e+02,3.304845e+03
8.099576e+02,3.285023e+03
8.128503e+02,3.282349e+03
8.157430e+02,3.275905e+03
8.186357e+02,3.271559e+03
8.215284e+02,3.246348e+03
8.244211e+02,3.257868e+03
8.273138e+02,3.268788e+03
8.302065e+02,3.243255e+03
8.330992e+02,3.235313e+03
8.359919e+02,3.236662e+03
8.388846e+02,3.243922e+03
8.417773e+02,3.239847e+03
8.446700e+02,3.235032e+03
8.475627e+02,3.240627e+03
8.504554e+02,3.202204e+03
8.533481e+02,3.227031e+03
8.562408e+02,3.212469e+03
8.591335e+02,3.205948e+03
8.620262e+02,3.206917e+03
8.649189e+02,3.202852e+03
8.678116e+02,3.196763e+03
8.707043e+02,3.188430e+03
8.735970e+02,3.186081e+03
8.764897e+02,3.174760e+03
8.793824e+02,3.162971e+03
8.822751e+02,3.172794e+03
8.851678e+02,3.162535e+03
8.880605e+02,3.170608e+03
8.909532e+02,3.147763e+03
8.938459e+02,3.128704e+03
8.967386e+02,3.137501e+03
8.996313e+02,3.127160e+03
9.025240e+02,3.116254e+03
9.054167e+02,3.109859e+03
9.083094e+02,3.100281e+03
9.112021e+02,3.107612e+03
9.140948e+02,3.105684e+03
9.169875e+02,3.111636e+03
9.198802e+02,3.094886e+03
9.227729e+02,3.080904e+03
9.256656e+02,3.084281e+03
9.285583e+02,3.070862e+03
9.314510e+02,3.081652e+03
9.343438e+02,3.080376e+03
9.372365e+02,3.059512e+03
9.401292e+02,3.041873e+03
9.430219e+02,3.052609e+03
9.459146e+02,3.039552e+03
9.488073e+02,3.048086e+03
9.517000e+02,3.044910e+03
9.545927e+02,3.039869e+03
9.574854e+02,3.041188e+03
9.603781e+02,3.033218e+03
9.632708e+02,3.038155e+03
9.661635e+02,3.039035e+03
9.690562e+02,3.016949e+03
9.719489e+02,3.007711e+03
9.748416e+02,2.992432e+03
9.777343e+02,3.002214e+03
9.806270e+02,3.000116e+03
9.835197e+02,2.977843e+03
9.864124e+02,2.980453e+03
9.893051e+02,2.982163e+03
9.921978e+02,2.980654e+03
9.950905e+02,3.002821e+03
9.979832e+02,2.978705e+03
1.000876e+03,2.951838e+03
1.003769e+03,2.954531e+03
1.006661e+03,2.961912e+03
1.009554e+03,2.950398e+03
1.012447e+03,2.957112e+03
1.015339e+03,2.926473e+03
1.018232e+03,2.938250e+03
1.021125e+03,2.931514e+03
1.024017e+03,2.936739e+03
1.026910e+03,2.936781e+03
1.029803e+03,2.897820e+03
1.032696e+03,2.920728e+03
1.035588e+03,2.926191e+03
1.038481e+03,2.921789e+03
1.041374e+03,2.895199e+03
1.044266e+03,2.921435e+03
1.047159e+03,2.903409e+03
1.050052e+03,2.905998e+03
1.052944e+03,2.901923e+03
1.055837e+03,2.895034e+03
1.058730e+03,2.899318e+03
1.061623e+03,2.880177e+03
1.064515e+03,2.893331e+03
1.067408e+03,2.881339e+03
1.070301e+03,2.885279e+03
1.073193e+03,2.877155e+03
1.076086e+03,2.857342e+03
1.078979e+03,2.853806e+03
1.081871e+03,2.867649e+03
1.084764e+03,2.859801e+03
1.087657e+03,2.861138e+03
1.090550e+03,2.869402e+03
1.093442e+03,2.857920e+03
1.096335e+03,2.852937e+03
1.099228e+03,2.850592e+03
1.102120e+03,2.847531e+03
1.105013e+03,2.836140e+03
1.107906e+03,2.834657e+03
1.110798e+03,2.829412e+03
1.113691e+03,2.823879e+03
1.116584e+03,2.829489e+03
1.119477e+03,2.837913e+03
1.122369e+03,2.818439e+03
1.125262e+03,2.811130e+03
1.128155e+03,2.792079e+03
1.131047e+03,2.801955e+03
1.133940e+03,2.797306e+03
1.136833e+03,2.797923e+03
1.139725e+03,2.778066e+03
1.142618e+03,2.786659e+03
1.145511e+03,2.793352e+03
1.148404e+03,2.772847e+03
1.151296e+03,2.781916e+03
1.154189e+03,2.789206e+03
1.157082e+03,2.768738e+03
1.159974e+03,2.790121e+03
1.162867e+03,2.769498e+03
1.165760e+03,2.765533e+03
1.168652e+03,2.758357e+03
1.171545e+03,2.754131e+03
1.174438e+03,2.743751e+03
1.177331e+03,2.741426e+03
1.180223e+03,2.739996e+03
1.183116e+03,2.743072e+03
1.186009e+03,2.734340e+03
1.188901e+03,2.720222e+03
1.191794e+03,2.732706e+03
1.194687e+03,2.721721e+03
1.197579e+03,2.737009e+03
1.200472e+03,2.726622e+03
1.203365e+03,2.720629e+03
1.206258e+03,2.698583e+03
1.209150e+03,2.717293e+03
1.212043e+03,2.719600e+03
1.214936e+03,2.705765e+03
1.217828e+03,2.708999e+03
1.220721e+03,2.710915e+03
1.223614e+03,2.728508e+03
1.226506e+03,2.718081e+03
1.229399e+03,2.732503e+03
1.232292e+03,2.719569e+03
1.235185e+03,2.682965e+03
1.238077e+03,2.702559e+03
1.240970e+03,2.708695e+03
1.243863e+03,2.689540e+03
1.246755e+03,2.688464e+03
1.249648e+03,2.676735e+03
1.252541e+03,2.694037e+03
1.255433e+03,2.698753e+03
1.258326e+03,2.702410e+03
1.261219e+03,2.699589e+03
1.264112e+03,2.687723e+03
1.267004e+03,2.668104e+03
1.269897e+03,2.679895e+03
1.272790e+03,2.683115e+03
1.275682e+03,2.689369e+03
1.278575e+03,2.700488e+03
1.281468e+03,2.666224e+03
1.284360e+03,2.675291e+03
1.287253e+03,2.663153e+03
1.290146e+03,2.669516e+03
1.293039e+03,2.671137e+03
1.295931e+03,2.648306e+03
1.298824e+03,2.639240e+03
1.301717e+03,2.644456e+03
1.304609e+03,2.638237e+03
1.307502e+03,2.643386e+03
1.310395e+03,2.625347e+03
1.313287e+03,2.625221e+03
1.316180e+03,2.641913e+03
1.319073e+03,2.659382e+03
1.321966e+03,2.657598e+03
1.324858e+03,2.648376e+03
1.327751e+03,2.647634e+03
1.330644e+03,2.631429e+03
1.333536e+03,2.665915e+03
1.336429e+03,2.647530e+03
1.339322e+03,2.643942e+03
1.342214e+03,2.620810e+03
1.345107e+03,2.628596e+03
1.348000e+03,2.646455e+03
1.350893e+03,2.637332e+03
1.353785e+03,2.651554e+03
1.356678e+03,2.644247e+03
1.359571e+03,2.635383e+03
1.362463e+03,2.605079e+03
1.365356e+03,2.609053e+03
1.368249e+03,2.594375e+03
1.371141e+03,2.579446e+03
1.374034e+03,2.584469e+03
1.376927e+03,2.568004e+03
1.379820e+03,2.571813e+03
1.382712e+03,2.565239e+03
1.385605e+03,2.581885e+03
1.388498e+03,2.561760e+03
1.391390e+03,2.557593e+03
1.394283e+03,2.541790e+03
1.397176e+03,2.554852e+03
1.400068e+03,2.549927e+03
1.402961e+03,2.539445e+03
1.405854e+03,2.517119e+03
1.408747e+03,2.515164e+03
1.411639e+03,2.523101e+03
1.414532e+03,2.530761e+03
1.417425e+03,2.521464e+03
1.420317e+03,2.507718e+03
1.423210e+03,2.504134e+03
1.426103e+03,2.501905e+03
1.428995e+03,2.491242e+03
1.431888e+03,2.490660e+03
1.434781e+03,2.489194e+03
1.437674e+03,2.491815e+03
1.440566e+03,2.493481e+03
1.443459e+03,2.500018e+03
1.446352e+03,2.497746e+03
1.449244e+03,2.480813e+03
1.452137e+03,2.479661e+03
1.455030e+03,2.481323e+03
1.457922e+03,2.478523e+03
1.460815e+03,2.481358e+03
1.463708e+03,2.498918e+03
1.466601e+03,2.457185e+03
1.469493e+03,2.464100e+03
1.472386e+03,2.467081e+03
1.475279e+03,2.482751e+03
1.478171e+03,2.471934e+03
1.481064e+03,2.482754e+03
1.483957e+03,2.472461e+03
1.486849e+03,2.467832e+03
1.489742e+03,2.450170e+03
1.492635e+03,2.444187e+03
1.495528e+03,2.436304e+03
1.498420e+03,2.431841e+03
1.501313e+03,2.435984e+03
1.504206e+03,2.432138e+03
1.507098e+03,2.430922e+03
1.509991e+03,2.420123e+03
1.512884e+03,2.397066e+03
1.515776e+03,2.395104e+03
1.518669e+03,2.415227e+03
1.521562e+03,2.403982e+03
1.524455e+03,2.401283e+03
1.527347e+03,2.386849e+03
1.530240e+03,2.378492e+03
1.533133e+03,2.401302e+03
1.536025e+03,2.392087e+03
1.538918e+03,2.383754e+03
1.541811e+03,2.396652e+03
1.544703e+03,2.403169e+03
1.547596e+03,2.379929e+03
1.550489e+03,2.401879e+03
1.553382e+03,2.390026e+03
1.556274e+03,2.403256e+03
1.559167e+03,2.381857e+03
1.562060e+03,2.380681e+03
1.564952e+03,2.377819e+03
1.567845e+03,2.383755e+03
1.570738e+03,2.379258e+03
1.573630e+03,2.411720e+03
1.576523e+03,2.405831e+03
1.579416e+03,2.413845e+03
1.582309e+03,2.397166e+03
1.585201e+03,2.392207e+03
1.588094e+03,2.378970e+03
1.590987e+03,2.361391e+03
1.593879e+03,2.387155e+03
1.596772e+03,2.366042e+03
1.599665e+03,2.352050e+03
1.602557e+03,2.346135e+03
1.605450e+03,2.342745e+03
1.608343e+03,2.317412e+03
1.611236e+03,2.305666e+03
1.614128e+03,2.312310e+03
1.617021e+03,2.306175e+03
1.619914e+03,2.317051e+03
1.622806e+03,2.290196e+03
1.625699e+03,2.290970e+03
1.628592e+03,2.280822e+03
1.631484e+03,2.260568e+03
1.634377e+03,2.273751e+03
1.637270e+03,2.261145e+03
1.640163e+03,2.275875e+03
1.643055e+03,2.249934e+03
1.645948e+03,2.250471e+03
1.648841e+03,2.256650e+03
1.651733e+03,2.250411e+03
1.654626e+03,2.222330e+03
1.657519e+03,2.246423e+03
1.660411e+03,2.237734e+03
1.663304e+03,2.220814e+03
1.666197e+03,2.220254e+03
1.669090e+03,2.210917e+03
1.671982e+03,2.227360e+03
1.674875e+03,2.217624e+03
1.677768e+03,2.207780e+03
1.680660e+03,2.194089e+03
1.683553e+03,2.186941e+03
1.686446e+03,2.204053e+03
1.689339e+03,2.186002e+03
1.692231e+03,2.178756e+03
1.695124e+03,2.197839e+03
1.698017e+03,2.188104e+03
1.700909e+03,2.185941e+03
1.703802e+03,2.166929e+03
1.706695e+03,2.165859e+03
1.709587e+03,2.176131e+03
1.712480e+03,2.168280e+03
1.715373e+03,2.156497e+03
1.718266e+03,2.144756e+03
1.721158e+03,2.148240e+03
1.724051e+03,2.142714e+03
1.726944e+03,2.135681e+03
1.729836e+03,2.127540e+03
1.732729e+03,2.156711e+03
1.735622e+03,2.130578e+03
1.738514e+03,2.125989e+03
1.741407e+03,2.117532e+03
1.744300e+03,2.124832e+03
1.747193e+03,2.097964e+03
1.750085e+03,2.113435e+03
1.752978e+03,2.112766e+03
1.755871e+03,2.111662e+03
1.758763e+03,2.097853e+03
1.761656e+03,2.086693e+03
1.764549e+03,2.088536e+03
1.767441e+03,2.083644e+03
1.770334e+03,2.085339e+03
1.773227e+03,2.074104e+03
1.776120e+03,2.084181e+03
1.779012e+03,2.073951e+03
1.781905e+03,2.065015e+03
1.784798e+03,2.072529e+03
1.787690e+03,2.071864e+03
1.790583e+03,2.066580e+03
1.793476e+03,2.047248e+03
1.796368e+03,2.043147e+03
1.799261e+03,2.048992e+03
1.802154e+03,2.042776e+03
1.805047e+03,2.038134e+03
1.807939e+03,2.030284e+03
1.810832e+03,2.022012e+03
1.813725e+03,2.024259e+03
1.816617e+03,2.027862e+03
1.819510e+03,2.019671e+03
1.822403e+03,2.015757e+03
1.825295e+03,2.017014e+03
1.828188e+03,1.986684e+03
1.831081e+03,2.021624e+03
1.833974e+03,1.998709e+03
1.836866e+03,1.976634e+03
1.839759e+03,1.982568e+03
1.842652e+03,2.009902e+03
1.845544e+03,1.990398e+03
1.848437e+03,1.962058e+03
1.851330e+03,1.978920e+03
1.854222e+03,1.958953e+03
1.857115e+03,1.962008e+03
1.860008e+03,1.966531e+03
1.862901e+03,1.973187e+03
1.865793e+03,1.952747e+03
1.868686e+03,1.943082e+03
1.871579e+03,1.949900e+03
1.874471e+03,1.939892e+03
1.877364e+03,1.944893e+03
1.880257e+03,1.941178e+03
1.883149e+03,1.927481e+03
1.886042e+03,1.921223e+03
1.888935e+03,1.929084e+03
1.891828e+03,1.925323e+03
1.894720e+03,1.922656e+03
1.897613e+03,1.899948e+03
1.900506e+03,1.891893e+03
1.903398e+03,1.911648e+03
1.906291e+03,1.890292e+03
1.909184e+03,1.881103e+03
1.912076e+03,1.885460e+03
1.914969e+03,1.880373e+03
1.917862e+03,1.876411e+03
1.920755e+03,1.871007e+03
1.923647e+03,1.876613e+03
1.926540e+03,1.886944e+03
1.929433e+03,1.861043e+03
1.932325e+03,1.854979e+03
1.935218e+03,1.853811e+03
1.938111e+03,1.860512e+03
1.941003e+03,1.829964e+03
1.943896e+03,1.832837e+03
1.946789e+03,1.833012e+03
1.949682e+03,1.824051e+03
1.952574e+03,1.816716e+03
1.955467e+03,1.824359e+03
1.958360e+03,1.830648e+03
1.961252e+03,1.819814e+03
1.964145e+03,1.803457e+03
1.967038e+03,1.811452e+03
1.969930e+03,1.782043e+03
1.972823e+03,1.807189e+03
1.975716e+03,1.804902e+03
1.978609e+03,1.766593e+03
1.981501e+03,1.778136e+03
1.984394e+03,1.780970e+03
1.987287e+03,1.762311e+03
1.990179e+03,1.779259e+03
1.993072e+03,1.750063e+03
1.995965e+03,1.756558e+03
1.998857e+03,1.768250e+03
2.001750e+03,1.753923e+03
2.004643e+03,1.763881e+03
2.007536e+03,1.750124e+03
2.010428e+03,1.747804e+03
2.013321e+03,1.744113e+03
2.016214e+03,1.740502e+03
2.019106e+03,1.734363e+03
2.021999e+03,1.739150e+03
2.024892e+03,1.721051e+03
2.027784e+03,1.701853e+03
2.030677e+03,1.725693e+03
2.033570e+03,1.710997e+03
2.036463e+03,1.701442e+03
2.039355e+03,1.699247e+03
2.042248e+03,1.711742e+03
2.045141e+03,1.698119e+03
2.048033e+03,1.669170e+03
2.050926e+03,1.693283e+03
2.053819e+03,1.683928e+03
2.056711e+03,1.672715e+03
2.059604e+03,1.677331e+03
2.062497e+03,1.665689e+03
2.065390e+03,1.668815e+03
2.068282e+03,1.648033e+03
2.071175e+03,1.658179e+03
2.074068e+03,1.655080e+03
2.076960e+03,1.632856e+03
2.079853e+03,1.648811e+03
2.082746e+03,1.642458e+03
2.085638e+03,1.634419e+03
2.088531e+03,1.622668e+03
2.091424e+03,1.611350e+03
2.094316e+03,1.634231e+03
2.097209e+03,1.625910e+03
2.100102e+03,1.620246e+03
2.102995e+03,1.605016e+03
2.105887e+03,1.590504e+03
2.108780e+03,1.612097e+03
2.111673e+03,1.596923e+03
2.114565e+03,1.593697e+03
2.117458e+03,1.573997e+03
2.120351e+03,1.605678e+03
2.123244e+03,1.596430e+03
2.126136e+03,1.585344e+03
2.129029e+03,1.571307e+03
2.131922e+03,1.569615e+03
2.134814e+03,1.564524e+03
2.137707e+03,1.575061e+03
2.140600e+03,1.562706e+03
2.143492e+03,1.572514e+03
2.146385e+03,1.540948e+03
2.149278e+03,1.532030e+03
2.152170e+03,1.537548e+03
2.155063e+03,1.537227e+03
2.157956e+03,1.541491e+03
2.160849e+03,1.537834e+03
2.163741e+03,1.538438e+03
2.166634e+03,1.526482e+03
2.169527e+03,1.509924e+03
2.172419e+03,1.520573e+03
2.175312e+03,1.512698e+03
2.178205e+03,1.486252e+03
2.181098e+03,1.502670e+03
2.183990e+03,1.495803e+03
2.186883e+03,1.494462e+03
2.189776e+03,1.495263e+03
2.192668e+03,1.475133e+03
2.195561e+03,1.477742e+03
2.198454e+03,1.484108e+03
2.201346e+03,1.469186e+03
2.204239e+03,1.473294e+03
2.207132e+03,1.481719e+03
2.210024e+03,1.445803e+03
2.212917e+03,1.452158e+03
2.215810e+03,1.465211e+03
2.218703e+03,1.460680e+03
2.221595e+03,1.443883e+03
2.224488e+03,1.435661e+03
2.227381e+03,1.445805e+03
2.230273e+03,1.432388e+03
2.233166e+03,1.443095e+03
2.236059e+03,1.425514e+03
2.238952e+03,1.429191e+03
2.241844e+03,1.408173e+03
2.244737e+03,1.414452e+03
2.247630e+03,1.417371e+03
2.250522e+03,1.425155e+03
2.253415e+03,1.410690e+03
2.256308e+03,1.396070e+03
2.259200e+03,1.371548e+03
2.262093e+03,1.391454e+03
2.264986e+03,1.385021e+03
2.267879e+03,1.366026e+03
2.270771e+03,1.364135e+03
2.273664e+03,1.371693e+03
2.276557e+03,1.380538e+03
2.279449e+03,1.378103e+03
2.282342e+03,1.356027e+03
2.285235e+03,1.354942e+03
2.288127e+03,1.374885e+03
2.291020e+03,1.350944e+03
2.293913e+03,1.360619e+03
2.296805e+03,1.355327e+03
2.299698e+03,1.357489e+03
2.302591e+03,1.328980e+03
2.305484e+03,1.328896e+03
2.308376e+03,1.346850e+03
2.311269e+03,1.330867e+03
2.314162e+03,1.324761e+03
2.317054e+03,1.331255e+03
2.319947e+03,1.328719e+03
2.322840e+03,1.314962e+03
2.325733e+03,1.315488e+03
2.328625e+03,1.329101e+03
2.331518e+03,1.307277e+03
2.334411e+03,1.298736e+03
2.337303e+03,1.294832e+03
2.340196e+03,1.288464e+03
2.343089e+03,1.294273e+03
2.345981e+03,1.297154e+03
2.348874e+03,1.265560e+03
2.351767e+03,1.280017e+03
2.354659e+03,1.284656e+03
2.357552e+03,1.292525e+03
2.360445e+03,1.276318e+03
2.363338e+03,1.276199e+03
2.366230e+03,1.276102e+03
2.369123e+03,1.263121e+03
2.372016e+03,1.259256e+03
2.374908e+03,1.251436e+03
2.377801e+03,1.268433e+03
2.380694e+03,1.244149e+03
2.383587e+03,1.244041e+03
2.386479e+03,1.241693e+03
2.389372e+03,1.246419e+03
2.392265e+03,1.243252e+03
2.395157e+03,1.246004e+03
2.398050e+03,1.228186e+03
2.400943e+03,1.224960e+03
2.403835e+03,1.220306e+03
2.406728e+03,1.234124e+03
2.409621e+03,1.210240e+03
2.412513e+03,1.208650e+03
2.415406e+03,1.213496e+03
2.418299e+03,1.230456e+03
2.421192e+03,1.210649e+03
2.424084e+03,1.217957e+03
2.426977e+03,1.209739e+03
2.429870e+03,1.193500e+03
2.432762e+03,1.198460e+03
2.435655e+03,1.190201e+03
2.438548e+03,1.200641e+03
2.441441e+03,1.169037e+03
2.444333e+03,1.186160e+03
2.447226e+03,1.186205e+03
2.450119e+03,1.181200e+03
2.453011e+03,1.195184e+03
2.455904e+03,1.177218e+03
2.458797e+03,1.179446e+03
2.461689e+03,1.157981e+03
2.464582e+03,1.166057e+03
2.467475e+03,1.177244e+03
2.470367e+03,1.163310e+03
2.473260e+03,1.174743e+03
2.476153e+03,1.149953e+03
2.479046e+03,1.149989e+03
2.481938e+03,1.167610e+03
2.484831e+03,1.151910e+03
2.487724e+03,1.137496e+03
2.490616e+03,1.143599e+03
2.493509e+03,1.125937e+03
2.496402e+03,1.127923e+03
2.499295e+03,1.138341e+03
2.502187e+03,1.145652e+03
2.505080e+03,1.128291e+03
2.507973e+03,1.129021e+03
2.510865e+03,1.137258e+03
2.513758e+03,1.128590e+03
2.516651e+03,1.117027e+03
2.519543e+03,1.109070e+03
2.522436e+03,1.116252e+03
2.525329e+03,1.103373e+03
2.528221e+03,1.105906e+03
2.531114e+03,1.112414e+03
2.534007e+03,1.102215e+03
2.536900e+03,1.097594e+03
2.539792e+03,1.098617e+03
2.542685e+03,1.113152e+03
2.545578e+03,1.099333e+03
2.548470e+03,1.104406e+03
2.551363e+03,1.096418e+03
2.554256e+03,1.098654e+03
2.557149e+03,1.091933e+03
2.560041e+03,1.116496e+03
2.562934e+03,1.093050e+03
2.565827e+03,1.087219e+03
2.568719e+03,1.082033e+03
2.571612e+03,1.082375e+03
2.574505e+03,1.090568e+03
2.577397e+03,1.080806e+03
2.580290e+03,1.066753e+03
2.583183e+03,1.074154e+03
2.586075e+03,1.071504e+03
2.588968e+03,1.066037e+03
2.591861e+03,1.082522e+03
2.594754e+03,1.058688e+03
2.597646e+03,1.058092e+03
2.600539e+03,1.069097e+03
2.603432e+03,1.071787e+03
2.606324e+03,1.046904e+03
2.609217e+03,1.045381e+03
2.612110e+03,1.039343e+03
2.615003e+03,1.028918e+03
2.617895e+03,1.033151e+03
2.620788e+03,1.041413e+03
2.623681e+03,1.027360e+03
2.626573e+03,1.051025e+03
2.629466e+03,1.030943e+03
2.632359e+03,1.020231e+03
2.635251e+03,1.023277e+03
2.638144e+03,1.028316e+03
2.641037e+03,1.012160e+03
2.643929e+03,1.028114e+03
2.646822e+03,1.018774e+03
2.649715e+03,1.012229e+03
2.652608e+03,1.024950e+03
2.655500e+03,1.025078e+03
2.658393e+03,1.011150e+03
2.661286e+03,1.020503e+03
2.664178e+03,1.017898e+03
2.667071e+03,1.021867e+03
2.669964e+03,1.010469e+03
2.672857e+03,1.018756e+03
2.675749e+03,1.008101e+03
2.678642e+03,1.012473e+03
2.681535e+03,1.001536e+03
2.684427e+03,9.990635e+02
2.687320e+03,9.930166e+02
2.690213e+03,9.939706e+02
2.693105e+03,9.938775e+02
2.695998e+03,9.876025e+02
2.698891e+03,9.826974e+02
2.701783e+03,9.898656e+02
2.704676e+03,9.760013e+02
2.707569e+03,1.003232e+03
2.710462e+03,9.979114e+02
2.713354e+03,9.641716e+02
2.716247e+03,9.801251e+02
2.719140e+03,9.779346e+02
2.722032e+03,9.727982e+02
2.724925e+03,9.712433e+02
2.727818e+03,9.749037e+02
2.730711e+03,9.631931e+02
2.733603e+03,9.708337e+02
2.736496e+03,9.461550e+02
2.739389e+03,9.759085e+02
2.742281e+03,9.672860e+02
2.745174e+03,9.742645e+02
2.748067e+03,9.608926e+02
2.750959e+03,9.722675e+02
2.753852e+03,9.291578e+02
2.756745e+03,9.503408e+02
2.759637e+03,9.644093e+02
2.762530e+03,9.638488e+02
2.765423e+03,9.611094e+02
2.768316e+03,9.308917e+02
2.771208e+03,9.525752e+02
2.774101e+03,9.525088e+02
2.776994e+03,9.403292e+02
2.779886e+03,9.683440e+02
2.782779e+03,9.400293e+02
2.785672e+03,9.319920e+02
2.788565e+03,9.503076e+02
2.791457e+03,9.272322e+02
2.794350e+03,9.345068e+02
2.797243e+03,9.285102e+02
2.800135e+03,9.203535e+02
2.803028e+03,9.245674e+02
2.805921e+03,9.462750e+02
2.808813e+03,9.116228e+02
2.811706e+03,9.477532e+02
2.814599e+03,9.025485e+02
2.817491e+03,9.410741e+02
2.820384e+03,9.123528e+02
2.823277e+03,9.118127e+02
2.826170e+03,9.150838e+02
2.829062e+03,9.085775e+02
2.831955e+03,9.050095e+02
2.834848e+03,9.238532e+02
2.837740e+03,9.159664e+02
2.840633e+03,9.030494e+02
2.843526e+03,8.984995e+02
2.846419e+03,9.169265e+02
2.849311e+03,9.124544e+02
2.852204e+03,9.301492e+02
2.855097e+03,8.992833e+02
2.857990e+03,9.037000e+02
2.860882e+03,9.107076e+02
2.863775e+03,9.234855e+02
2.866667e+03,9.018217e+02
2.869560e+03,9.404236e+02
2.872453e+03,9.132698e+02
2.875345e+03,9.232057e+02
2.878238e+03,8.979861e+02
2.881131e+03,9.188752e+02
2.884024e+03,9.108381e+02
2.886916e+03,9.158885e+02
2.889809e+03,9.061749e+02
2.892702e+03,9.248318e+02
2.895594e+03,9.325626e+02
2.898487e+03,9.026585e+02
2.901380e+03,9.390394e+02
2.904273e+03,9.041741e+02
2.907165e+03,8.967814e+02
2.910058e+03,9.083467e+02
2.912951e+03,9.033010e+02
2.915844e+03,9.146852e+02
2.918736e+03,8.988536e+02
2.921629e+03,8.908118e+02
2.924521e+03,8.952170e+02
2.927414e+03,8.756857e+02
2.930307e+03,8.938105e+02
2.933199e+03,8.874775e+02
2.936092e+03,8.946189e+02
2.938985e+03,8.675905e+02
2.941878e+03,8.644869e+02
2.944770e+03,8.506965e+02
2.947663e+03,8.701593e+02
2.950556e+03,8.827449e+02
2.953448e+03,8.671017e+02
2.956341e+03,9.024271e+02
2.959234e+03,9.046850e+02
2.962127e+03,8.644464e+02
2.965019e+03,8.502742e+02
2.967912e+03,8.369711e+02
2.970805e+03,8.611046e+02
2.973698e+03,8.514279e+02
2.976590e+03,8.409507e+02
2.979483e+03,8.287729e+02
2.982375e+03,8.525549e+02
2.985268e+03,8.531758e+02
2.988161e+03,8.204244e+02
2.991053e+03,8.538900e+02
2.993946e+03,8.275192e+02
2.996839e+03,8.717239e+02
2.999732e+03,8.465985e+02
3.002624e+03,8.505694e+02
3.005517e+03,8.333740e+02
3.008410e+03,8.169972e+02
3.011302e+03,8.447546e+02
3.014195e+03,8.495825e+02
3.017088e+03,8.133773e+02
3.019981e+03,8.425207e+02
3.022873e+03,8.324018e+02
3.025766e+03,8.071238e+02
3.028659e+03,8.157419e+02
3.031552e+03,8.262887e+02
3.034444e+03,8.215993e+02
3.037337e+03,8.207216e+02
3.040229e+03,8.077848e+02
3.043122e+03,8.338023e+02
3.046015e+03,8.286915e+02
3.048907e+03,8.004919e+02
3.051800e+03,8.201433e+02
3.054693e+03,8.143016e+02
3.057586e+03,8.362335e+02
3.060478e+03,8.193318e+02
3.063371e+03,8.186255e+02
3.066264e+03,8.051121e+02
3.069156e+03,8.209158e+02
3.072049e+03,8.187606e+02
3.074942e+03,8.096145e+02
3.077835e+03,7.982571e+02
3.080727e+03,8.122306e+02
3.083620e+03,8.239834e+02
3.086513e+03,8.257205e+02
3.089406e+03,8.305144e+02
3.092298e+03,7.975944e+02
3.095191e+03,7.928531e+02
3.098083e+03,7.816186e+02
3.100976e+03,8.100942e+02
3.103869e+03,8.321238e+02
3.106761e+03,7.848972e+02
3.109654e+03,7.927922e+02
3.112547e+03,7.996081e+02
3.115440e+03,8.162227e+02
3.118332e+03,8.027794e+02
3.121225e+03,7.784042e+02
3.124118e+03,7.920305e+02
3.127010e+03,8.101108e+02
3.129903e+03,8.070912e+02
3.132796e+03,8.188951e+02
3.135689e+03,8.115073e+02
3.138581e+03,8.228079e+02
3.141474e+03,8.285781e+02
3.144367e+03,8.247098e+02
3.147260e+03,8.074946e+02
3.150152e+03,8.172001e+02
3.153045e+03,7.896195e+02
3.155938e+03,7.939197e+02
3.158830e+03,8.301055e+02
3.161723e+03,8.017973e+02
3.164615e+03,8.268113e+02
3.167508e+03,7.899076e+02
3.170401e+03,8.410474e+02
3.173294e+03,8.085497e+02
3.176186e+03,7.872286e+02
3.179079e+03,8.144387e+02
3.181972e+03,8.219589e+02
3.184865e+03,7.870352e+02
3.187757e+03,8.132779e+02
3.190650e+03,8.230471e+02
3.193543e+03,7.460662e+02
3.196435e+03,8.489177e+02
3.199328e+03,8.298434e+02
3.200292e+03,8.505018e+02