File: RAMAN_data/20012023_r1/red fibre1.CSV
1.995979e+02,8.556306e+03
2.024906e+02,8.562338e+03
2.053833e+02,8.589083e+03
2.082760e+02,8.572156e+03
2.111687e+02,8.574127e+03
2.140614e+02,8.618971e+03
2.169541e+02,8.594109e+03
2.198468e+02,8.635815e+03
2.227395e+02,8.647356e+03
2.256322e+02,8.598887e+03
2.285249e+02,8.612617e+03
2.314176e+02,8.613690e+03
2.343103e+02,8.640211e+03
2.372030e+02,8.679628e+03
2.400957e+02,8.655577e+03
2.429884e+02,8.646296e+03
2.458811e+02,8.666892e+03
2.487738e+02,8.676256e+03
2.516665e+02,8.677887e+03
2.545592e+02,8.690229e+03
2.574519e+02,8.694255e+03
2.603446e+02,8.708659e+03
2.632373e+02,8.733043e+03
2.661300e+02,8.734488e+03
2.690227e+02,8.757044e+03
2.719154e+02,8.764489e+03
2.748081e+02,8.741666e+03
2.777008e+02,8.770113e+03
2.805935e+02,8.784281e+03
2.834862e+02,8.800201e+03
2.863789e+02,8.773593e+03
2.892716e+02,8.772521e+03
2.921643e+02,8.783768e+03
2.950570e+02,8.751938e+03
2.979497e+02,8.793759e+03
3.008424e+02,8.789759e+03
3.037351e+02,8.801136e+03
3.066278e+02,8.783647e+03
3.095205e+02,8.785821e+03
3.124132e+02,8.803271e+03
3.153059e+02,8.812144e+03
3.181986e+02,8.817855e+03
3.210913e+02,8.823122e+03
3.239840e+02,8.828406e+03
3.268767e+02,8.836679e+03
3.297694e+02,8.793000e+03
3.326621e+02,8.808079e+03
3.355548e+02,8.792130e+03
3.384475e+02,8.806010e+03
3.413402e+02,8.821438e+03
3.442329e+02,8.822231e+03
3.471256e+02,8.845563e+03
3.500183e+02,8.825078e+03
3.529110e+02,8.796298e+03
3.558037e+02,8.888618e+03
3.586964e+02,8.856595e+03
3.615891e+02,8.858566e+03
3.644818e+02,8.816939e+03
3.673745e+02,8.794735e+03
3.702672e+02,8.829705e+03
3.731599e+02,8.856203e+03
3.760526e+02,8.867557e+03
3.789453e+02,8.845890e+03
3.818380e+02,8.814774e+03
3.847307e+02,8.802660e+03
3.876234e+02,8.814652e+03
3.905161e+02,8.799750e+03
3.934088e+02,8.797486e+03
3.963015e+02,8.797665e+03
3.991942e+02,8.800954e+03
4.020869e+02,8.816640e+03
4.049796e+02,8.800365e+03
4.078723e+02,8.809668e+03
4.107650e+02,8.770846e+03
4.136577e+02,8.789029e+03
4.165504e+02,8.778931e+03
4.194431e+02,8.763751e+03
4.223358e+02,8.775436e+03
4.252285e+02,8.767354e+03
4.281212e+02,8.776020e+03
4.310139e+02,8.760697e+03
4.339066e+02,8.738811e+03
4.367993e+02,8.769893e+03
4.396920e+02,8.738862e+03
4.425847e+02,8.736634e+03
4.454774e+02,8.735770e+03
4.483701e+02,8.724757e+03
4.512628e+02,8.732977e+03
4.541555e+02,8.732829e+03
4.570482e+02,8.707793e+03
4.599409e+02,8.692053e+03
4.628336e+02,8.691422e+03
4.657263e+02,8.685809e+03
4.686190e+02,8.676725e+03
4.715117e+02,8.680676e+03
4.744044e+02,8.657910e+03
4.772971e+02,8.652832e+03
4.801898e+02,8.647041e+03
4.830825e+02,8.661577e+03
4.859752e+02,8.626176e+03
4.888679e+02,8.627195e+03
4.917606e+02,8.612406e+03
4.946533e+02,8.628119e+03
4.975460e+02,8.636712e+03
5.004387e+02,8.620043e+03
5.033314e+02,8.617587e+03
5.062241e+02,8.599993e+03
5.091168e+02,8.604114e+03
5.120095e+02,8.591277e+03
5.149022e+02,8.595524e+03
5.177949e+02,8.601964e+03
5.206876e+02,8.574101e+03
5.235803e+02,8.556654e+03
5.264730e+02,8.582122e+03
5.293657e+02,8.556391e+03
5.322584e+02,8.539717e+03
5.351511e+02,8.539924e+03
5.380438e+02,8.542931e+03
5.409365e+02,8.528839e+03
5.438292e+02,8.502332e+03
5.467219e+02,8.542123e+03
5.496146e+02,8.533841e+03
5.525073e+02,8.484642e+03
5.554000e+02,8.450799e+03
5.582927e+02,8.473014e+03
5.611854e+02,8.487067e+03
5.640781e+02,8.498294e+03
5.669708e+02,8.454567e+03
5.698635e+02,8.439256e+03
5.727562e+02,8.426874e+03
5.756489e+02,8.451951e+03
5.785416e+02,8.448360e+03
5.814343e+02,8.432224e+03
5.843270e+02,8.421295e+03
5.872197e+02,8.406162e+03
5.901124e+02,8.392213e+03
5.930051e+02,8.389705e+03
5.958978e+02,8.400494e+03
5.987905e+02,8.377865e+03
6.016832e+02,8.350828e+03
6.045759e+02,8.375136e+03
6.074686e+02,8.413949e+03
6.103613e+02,8.335104e+03
6.132540e+02,8.346289e+03
6.161467e+02,8.295897e+03
6.190394e+02,8.281871e+03
6.219321e+02,8.300038e+03
6.248248e+02,8.337704e+03
6.277175e+02,8.274434e+03
6.306102e+02,8.259154e+03
6.335029e+02,8.262637e+03
6.363956e+02,8.239224e+03
6.392883e+02,8.238529e+03
6.421810e+02,8.225491e+03
6.450737e+02,8.230428e+03
6.479664e+02,8.216272e+03
6.508591e+02,8.246460e+03
6.537518e+02,8.243398e+03
6.566445e+02,8.197535e+03
6.595372e+02,8.168419e+03
6.624299e+02,8.161594e+03
6.653226e+02,8.170734e+03
6.682153e+02,8.190468e+03
6.711080e+02,8.159986e+03
6.740007e+02,8.144841e+03
6.768934e+02,8.106808e+03
6.797861e+02,8.105819e+03
6.826788e+02,8.089927e+03
6.855715e+02,8.085120e+03
6.884642e+02,8.082282e+03
6.913569e+02,8.058891e+03
6.942496e+02,8.053916e+03
6.971423e+02,8.072542e+03
7.000350e+02,8.063251e+03
7.029277e+02,8.012562e+03
7.058204e+02,8.015559e+03
7.087131e+02,7.983023e+03
7.116058e+02,7.989525e+03
7.144985e+02,8.015222e+03
7.173912e+02,8.001791e+03
7.202839e+02,7.969628e+03
7.231766e+02,7.954478e+03
7.260693e+02,7.966883e+03
7.289620e+02,7.952957e+03
7.318547e+02,7.938815e+03
7.347474e+02,7.904730e+03
7.376401e+02,7.900308e+03
7.405328e+02,7.893558e+03
7.434255e+02,7.905700e+03
7.463182e+02,7.904011e+03
7.492109e+02,7.868080e+03
7.521036e+02,7.835019e+03
7.549963e+02,7.837711e+03
7.578890e+02,7.847502e+03
7.607817e+02,7.856517e+03
7.636744e+02,7.817687e+03
7.665671e+02,7.813229e+03
7.694598e+02,7.781122e+03
7.723525e+02,7.797826e+03
7.752452e+02,7.804149e+03
7.781379e+02,7.787061e+03
7.810306e+02,7.777743e+03
7.839233e+02,7.742322e+03
7.868160e+02,7.709738e+03
7.897087e+02,7.742597e+03
7.926014e+02,7.722549e+03
7.954941e+02,7.693517e+03
7.983868e+02,7.705887e+03
8.012795e+02,7.682938e+03
8.041722e+02,7.667615e+03
8.070649e+02,7.697674e+03
8.099576e+02,7.661179e+03
8.128503e+02,7.652493e+03
8.157430e+02,7.633272e+03
8.186357e+02,7.613578e+03
8.215284e+02,7.610930e+03
8.244211e+02,7.623956e+03
8.273138e+02,7.632297e+03
8.302065e+02,7.596271e+03
8.330992e+02,7.596391e+03
8.359919e+02,7.592144e+03
8.388846e+02,7.578482e+03
8.417773e+02,7.561389e+03
8.446700e+02,7.557659e+03
8.475627e+02,7.518153e+03
8.504554e+02,7.511955e+03
8.533481e+02,7.512115e+03
8.562408e+02,7.502673e+03
8.591335e+02,7.506236e+03
8.620262e+02,7.477832e+03
8.649189e+02,7.431158e+03
8.678116e+02,7.469003e+03
8.707043e+02,7.469268e+03
8.735970e+02,7.465176e+03
8.764897e+02,7.444080e+03
8.793824e+02,7.433608e+03
8.822751e+02,7.424652e+03
8.851678e+02,7.435155e+03
8.880605e+02,7.414977e+03
8.909532e+02,7.416614e+03
8.938459e+02,7.381495e+03
8.967386e+02,7.364545e+03
8.996313e+02,7.341857e+03
9.025240e+02,7.376504e+03
9.054167e+02,7.357256e+03
9.083094e+02,7.282510e+03
9.112021e+02,7.304569e+03
9.140948e+02,7.295937e+03
9.169875e+02,7.299287e+03
9.198802e+02,7.290541e+03
9.227729e+02,7.252411e+03
9.256656e+02,7.225193e+03
9.285583e+02,7.257808e+03
9.314510e+02,7.256550e+03
9.343438e+02,7.239369e+03
9.372365e+02,7.198377e+03
9.401292e+02,7.191562e+03
9.430219e+02,7.168568e+03
9.459146e+02,7.207509e+03
9.488073e+02,7.242344e+03
9.517000e+02,7.169622e+03
9.545927e+02,7.156326e+03
9.574854e+02,7.146338e+03
9.603781e+02,7.154765e+03
9.632708e+02,7.164286e+03
9.661635e+02,7.118710e+03
9.690562e+02,7.101842e+03
9.719489e+02,7.093325e+03
9.748416e+02,7.102713e+03
9.777343e+02,7.084381e+03
9.806270e+02,7.093439e+03
9.835197e+02,7.063977e+03
9.864124e+02,7.050583e+03
9.893051e+02,7.059482e+03
9.921978e+02,7.028472e+03
9.950905e+02,7.056724e+03
9.979832e+02,7.052561e+03
1.000876e+03,7.043936e+03
1.003769e+03,6.991940e+03
1.006661e+03,7.013381e+03
1.009554e+03,7.011231e+03
1.012447e+03,6.982997e+03
1.015339e+03,6.962967e+03
1.018232e+03,6.957005e+03
1.021125e+03,6.972208e+03
1.024017e+03,6.962691e+03
1.026910e+03,6.966289e+03
1.029803e+03,6.942853e+03
1.032696e+03,6.937755e+03
1.035588e+03,6.940294e+03
1.038481e+03,6.926838e+03
1.041374e+03,6.896109e+03
1.044266e+03,6.912847e+03
1.047159e+03,6.892650e+03
1.050052e+03,6.890862e+03
1.052944e+03,6.882425e+03
1.055837e+03,6.917944e+03
1.058730e+03,6.884662e+03
1.061623e+03,6.872308e+03
1.064515e+03,6.836844e+03
1.067408e+03,6.868943e+03
1.070301e+03,6.880719e+03
1.073193e+03,6.867294e+03
1.076086e+03,6.841328e+03
1.078979e+03,6.824752e+03
1.081871e+03,6.822974e+03
1.084764e+03,6.852091e+03
1.087657e+03,6.837367e+03
1.090550e+03,6.824826e+03
1.093442e+03,6.831910e+03
1.096335e+03,6.805638e+03
1.099228e+03,6.798701e+03
1.102120e+03,6.789401e+03
1.105013e+03,6.795577e+03
1.107906e+03,6.789700e+03
1.110798e+03,6.754180e+03
1.113691e+03,6.759911e+03
1.116584e+03,6.757181e+03
1.119477e+03,6.780230e+03
1.122369e+03,6.750917e+03
1.125262e+03,6.728934e+03
1.128155e+03,6.715009e+03
1.131047e+03,6.740648e+03
1.133940e+03,6.727621e+03
1.136833e+03,6.721875e+03
1.139725e+03,6.721529e+03
1.142618e+03,6.698913e+03
1.145511e+03,6.700280e+03
1.148404e+03,6.714571e+03
1.151296e+03,6.691605e+03
1.154189e+03,6.681638e+03
1.157082e+03,6.675999e+03
1.159974e+03,6.640065e+03
1.162867e+03,6.687098e+03
1.165760e+03,6.682692e+03
1.168652e+03,6.637260e+03
1.171545e+03,6.631646e+03
1.174438e+03,6.646551e+03
1.177331e+03,6.637538e+03
1.180223e+03,6.658235e+03
1.183116e+03,6.629000e+03
1.186009e+03,6.615289e+03
1.188901e+03,6.615838e+03
1.191794e+03,6.628936e+03
1.194687e+03,6.636599e+03
1.197579e+03,6.641915e+03
1.200472e+03,6.625365e+03
1.203365e+03,6.569885e+03
1.206258e+03,6.586633e+03
1.209150e+03,6.618909e+03
1.212043e+03,6.621260e+03
1.214936e+03,6.583162e+03
1.217828e+03,6.573827e+03
1.220721e+03,6.561995e+03
1.223614e+03,6.570031e+03
1.226506e+03,6.574383e+03
1.229399e+03,6.591719e+03
1.232292e+03,6.563795e+03
1.235185e+03,6.548532e+03
1.238077e+03,6.545523e+03
1.240970e+03,6.577911e+03
1.243863e+03,6.537755e+03
1.246755e+03,6.510814e+03
1.249648e+03,6.512463e+03
1.252541e+03,6.525396e+03
1.255433e+03,6.520171e+03
1.258326e+03,6.535802e+03
1.261219e+03,6.521754e+03
1.264112e+03,6.493404e+03
1.267004e+03,6.494548e+03
1.269897e+03,6.493287e+03
1.272790e+03,6.476967e+03
1.275682e+03,6.482952e+03
1.278575e+03,6.494607e+03
1.281468e+03,6.468678e+03
1.284360e+03,6.467707e+03
1.287253e+03,6.505046e+03
1.290146e+03,6.482872e+03
1.293039e+03,6.470674e+03
1.295931e+03,6.452393e+03
1.298824e+03,6.454250e+03
1.301717e+03,6.460582e+03
1.304609e+03,6.450054e+03
1.307502e+03,6.447274e+03
1.310395e+03,6.413922e+03
1.313287e+03,6.408352e+03
1.316180e+03,6.419948e+03
1.319073e+03,6.426846e+03
1.321966e+03,6.412638e+03
1.324858e+03,6.413385e+03
1.327751e+03,6.427595e+03
1.330644e+03,6.406416e+03
1.333536e+03,6.414602e+03
1.336429e+03,6.412759e+03
1.339322e+03,6.402261e+03
1.342214e+03,6.375338e+03
1.345107e+03,6.389137e+03
1.348000e+03,6.367687e+03
1.350893e+03,6.378184e+03
1.353785e+03,6.368592e+03
1.356678e+03,6.360748e+03
1.359571e+03,6.325781e+03
1.362463e+03,6.333015e+03
1.365356e+03,6.334086e+03
1.368249e+03,6.331264e+03
1.371141e+03,6.335311e+03
1.374034e+03,6.303284e+03
1.376927e+03,6.296198e+03
1.379820e+03,6.287986e+03
1.382712e+03,6.285045e+03
1.385605e+03,6.268894e+03
1.388498e+03,6.260700e+03
1.391390e+03,6.248169e+03
1.394283e+03,6.248535e+03
1.397176e+03,6.227798e+03
1.400068e+03,6.252034e+03
1.402961e+03,6.232721e+03
1.405854e+03,6.204252e+03
1.408747e+03,6.197431e+03
1.411639e+03,6.200314e+03
1.414532e+03,6.203481e+03
1.417425e+03,6.210565e+03
1.420317e+03,6.174735e+03
1.423210e+03,6.177539e+03
1.426103e+03,6.187368e+03
1.428995e+03,6.164578e+03
1.431888e+03,6.165712e+03
1.434781e+03,6.140772e+03
1.437674e+03,6.142767e+03
1.440566e+03,6.141045e+03
1.443459e+03,6.122991e+03
1.446352e+03,6.130776e+03
1.449244e+03,6.126179e+03
1.452137e+03,6.101542e+03
1.455030e+03,6.083667e+03
1.457922e+03,6.097712e+03
1.460815e+03,6.113551e+03
1.463708e+03,6.090920e+03
1.466601e+03,6.062825e+03
1.469493e+03,6.073099e+03
1.472386e+03,6.036549e+03
1.475279e+03,6.047328e+03
1.478171e+03,6.053068e+03
1.481064e+03,6.041954e+03
1.483957e+03,6.033833e+03
1.486849e+03,6.026352e+03
1.489742e+03,6.046143e+03
1.492635e+03,6.005891e+03
1.495528e+03,5.994164e+03
1.498420e+03,5.991167e+03
1.501313e+03,5.979412e+03
1.504206e+03,6.010560e+03
1.507098e+03,5.994495e+03
1.509991e+03,5.978816e+03
1.512884e+03,5.959911e+03
1.515776e+03,5.951941e+03
1.518669e+03,5.946695e+03
1.521562e+03,5.943015e+03
1.524455e+03,5.967013e+03
1.527347e+03,5.928800e+03
1.530240e+03,5.902925e+03
1.533133e+03,5.938553e+03
1.536025e+03,5.920833e+03
1.538918e+03,5.910657e+03
1.541811e+03,5.902762e+03
1.544703e+03,5.896775e+03
1.547596e+03,5.890842e+03
1.550489e+03,5.892833e+03
1.553382e+03,5.898276e+03
1.556274e+03,5.882692e+03
1.559167e+03,5.894431e+03
1.562060e+03,5.871875e+03
1.564952e+03,5.872817e+03
1.567845e+03,5.879284e+03
1.570738e+03,5.880381e+03
1.573630e+03,5.877323e+03
1.576523e+03,5.848742e+03
1.579416e+03,5.872508e+03
1.582309e+03,5.866729e+03
1.585201e+03,5.857141e+03
1.588094e+03,5.858010e+03
1.590987e+03,5.826756e+03
1.593879e+03,5.840642e+03
1.596772e+03,5.813000e+03
1.599665e+03,5.813395e+03
1.602557e+03,5.795934e+03
1.605450e+03,5.808570e+03
1.608343e+03,5.764765e+03
1.611236e+03,5.764242e+03
1.614128e+03,5.762589e+03
1.617021e+03,5.744672e+03
1.619914e+03,5.738650e+03
1.622806e+03,5.726154e+03
1.625699e+03,5.693591e+03
1.628592e+03,5.688382e+03
1.631484e+03,5.677513e+03
1.634377e+03,5.667868e+03
1.637270e+03,5.636139e+03
1.640163e+03,5.637936e+03
1.643055e+03,5.661099e+03
1.645948e+03,5.638655e+03
1.648841e+03,5.614563e+03
1.651733e+03,5.618735e+03
1.654626e+03,5.578764e+03
1.657519e+03,5.561152e+03
1.660411e+03,5.549602e+03
1.663304e+03,5.527564e+03
1.666197e+03,5.542492e+03
1.669090e+03,5.554438e+03
1.671982e+03,5.511074e+03
1.674875e+03,5.516047e+03
1.677768e+03,5.518201e+03
1.680660e+03,5.477549e+03
1.683553e+03,5.501399e+03
1.686446e+03,5.468209e+03
1.689339e+03,5.454287e+03
1.692231e+03,5.439851e+03
1.695124e+03,5.452671e+03
1.698017e+03,5.438798e+03
1.700909e+03,5.457991e+03
1.703802e+03,5.438011e+03
1.706695e+03,5.413756e+03
1.709587e+03,5.380277e+03
1.712480e+03,5.399660e+03
1.715373e+03,5.369392e+03
1.718266e+03,5.400161e+03
1.721158e+03,5.362656e+03
1.724051e+03,5.357087e+03
1.726944e+03,5.312499e+03
1.729836e+03,5.340061e+03
1.732729e+03,5.334395e+03
1.735622e+03,5.300187e+03
1.738514e+03,5.290230e+03
1.741407e+03,5.316644e+03
1.744300e+03,5.297237e+03
1.747193e+03,5.267438e+03
1.750085e+03,5.281869e+03
1.752978e+03,5.266504e+03
1.755871e+03,5.249537e+03
1.758763e+03,5.249309e+03
1.761656e+03,5.211125e+03
1.764549e+03,5.226257e+03
1.767441e+03,5.204146e+03
1.770334e+03,5.228119e+03
1.773227e+03,5.203969e+03
1.776120e+03,5.182330e+03
1.779012e+03,5.161117e+03
1.781905e+03,5.168387e+03
1.784798e+03,5.169023e+03
1.787690e+03,5.168664e+03
1.790583e+03,5.123409e+03
1.793476e+03,5.097841e+03
1.796368e+03,5.138947e+03
1.799261e+03,5.115860e+03
1.802154e+03,5.111565e+03
1.805047e+03,5.093564e+03
1.807939e+03,5.054429e+03
1.810832e+03,5.069700e+03
1.813725e+03,5.056958e+03
1.816617e+03,5.052130e+03
1.819510e+03,5.055394e+03
1.822403e+03,5.031284e+03
1.825295e+03,5.028554e+03
1.828188e+03,5.017528e+03
1.831081e+03,4.988958e+03
1.833974e+03,4.995212e+03
1.836866e+03,4.999395e+03
1.839759e+03,4.973876e+03
1.842652e+03,4.965206e+03
1.845544e+03,4.957903e+03
1.848437e+03,4.957699e+03
1.851330e+03,4.924320e+03
1.854222e+03,4.930273e+03
1.857115e+03,4.916969e+03
1.860008e+03,4.895411e+03
1.862901e+03,4.909710e+03
1.865793e+03,4.900588e+03
1.868686e+03,4.898550e+03
1.871579e+03,4.888776e+03
1.874471e+03,4.882589e+03
1.877364e+03,4.837973e+03
1.880257e+03,4.848609e+03
1.883149e+03,4.790498e+03
1.886042e+03,4.823963e+03
1.888935e+03,4.805149e+03
1.891828e+03,4.782062e+03
1.894720e+03,4.761747e+03
1.897613e+03,4.761616e+03
1.900506e+03,4.758141e+03
1.903398e+03,4.774201e+03
1.906291e+03,4.750235e+03
1.909184e+03,4.784551e+03
1.912076e+03,4.747495e+03
1.914969e+03,4.709740e+03
1.917862e+03,4.689797e+03
1.920755e+03,4.679819e+03
1.923647e+03,4.682199e+03
1.926540e+03,4.683722e+03
1.929433e+03,4.672299e+03
1.932325e+03,4.674787e+03
1.935218e+03,4.658125e+03
1.938111e+03,4.684602e+03
1.941003e+03,4.659949e+03
1.943896e+03,4.628698e+03
1.946789e+03,4.599700e+03
1.949682e+03,4.589217e+03
1.952574e+03,4.595773e+03
1.955467e+03,4.605802e+03
1.958360e+03,4.573444e+03
1.961252e+03,4.541708e+03
1.964145e+03,4.561697e+03
1.967038e+03,4.516235e+03
1.969930e+03,4.528278e+03
1.972823e+03,4.518400e+03
1.975716e+03,4.518354e+03
1.978609e+03,4.466821e+03
1.981501e+03,4.480969e+03
1.984394e+03,4.478956e+03
1.987287e+03,4.464657e+03
1.990179e+03,4.456535e+03
1.993072e+03,4.463432e+03
1.995965e+03,4.440853e+03
1.998857e+03,4.479230e+03
2.001750e+03,4.443361e+03
2.004643e+03,4.401884e+03
2.007536e+03,4.404824e+03
2.010428e+03,4.371144e+03
2.013321e+03,4.365817e+03
2.016214e+03,4.384866e+03
2.019106e+03,4.352149e+03
2.021999e+03,4.337189e+03
2.024892e+03,4.313726e+03
2.027784e+03,4.348640e+03
2.030677e+03,4.316885e+03
2.033570e+03,4.331006e+03
2.036463e+03,4.302403e+03
2.039355e+03,4.253007e+03
2.042248e+03,4.259728e+03
2.045141e+03,4.259956e+03
2.048033e+03,4.238905e+03
2.050926e+03,4.267751e+03
2.053819e+03,4.222981e+03
2.056711e+03,4.210995e+03
2.059604e+03,4.202460e+03
2.062497e+03,4.208854e+03
2.065390e+03,4.198572e+03
2.068282e+03,4.179590e+03
2.071175e+03,4.179071e+03
2.074068e+03,4.151614e+03
2.076960e+03,4.122989e+03
2.079853e+03,4.145682e+03
2.082746e+03,4.118159e+03
2.085638e+03,4.114572e+03
2.088531e+03,4.137188e+03
2.091424e+03,4.099896e+03
2.094316e+03,4.089617e+03
2.097209e+03,4.078583e+03
2.100102e+03,4.083283e+03
2.102995e+03,4.053061e+03
2.105887e+03,4.014361e+03
2.108780e+03,4.056811e+03
2.111673e+03,4.009964e+03
2.114565e+03,4.010032e+03
2.117458e+03,3.992166e+03
2.120351e+03,4.021172e+03
2.123244e+03,4.023335e+03
2.126136e+03,3.984405e+03
2.129029e+03,3.931401e+03
2.131922e+03,3.980775e+03
2.134814e+03,3.961250e+03
2.137707e+03,3.977060e+03
2.140600e+03,3.930667e+03
2.143492e+03,3.912209e+03
2.146385e+03,3.912612e+03
2.149278e+03,3.921673e+03
2.152170e+03,3.904371e+03
2.155063e+03,3.896873e+03
2.157956e+03,3.865872e+03
2.160849e+03,3.859560e+03
2.163741e+03,3.848610e+03
2.166634e+03,3.840821e+03
2.169527e+03,3.825917e+03
2.172419e+03,3.829145e+03
2.175312e+03,3.802130e+03
2.178205e+03,3.776038e+03
2.181098e+03,3.761480e+03
2.183990e+03,3.795132e+03
2.186883e+03,3.774432e+03
2.189776e+03,3.761152e+03
2.192668e+03,3.748166e+03
2.195561e+03,3.737733e+03
2.198454e+03,3.742957e+03
2.201346e+03,3.747865e+03
2.204239e+03,3.741903e+03
2.207132e+03,3.732680e+03
2.210024e+03,3.694399e+03
2.212917e+03,3.683036e+03
2.215810e+03,3.703690e+03
2.218703e+03,3.668343e+03
2.221595e+03,3.665324e+03
2.224488e+03,3.651739e+03
2.227381e+03,3.618529e+03
2.230273e+03,3.633378e+03
2.233166e+03,3.627609e+03
2.236059e+03,3.633761e+03
2.238952e+03,3.611394e+03
2.241844e+03,3.590700e+03
2.244737e+03,3.568578e+03
2.247630e+03,3.564541e+03
2.250522e+03,3.553054e+03
2.253415e+03,3.576668e+03
2.256308e+03,3.536498e+03
2.259200e+03,3.492784e+03
2.262093e+03,3.520131e+03
2.264986e+03,3.494847e+03
2.267879e+03,3.487405e+03
2.270771e+03,3.449418e+03
2.273664e+03,3.488496e+03
2.276557e+03,3.466800e+03
2.279449e+03,3.462050e+03
2.282342e+03,3.471158e+03
2.285235e+03,3.436944e+03
2.288127e+03,3.423510e+03
2.291020e+03,3.422536e+03
2.293913e+03,3.416602e+03
2.296805e+03,3.428470e+03
2.299698e+03,3.433301e+03
2.302591e+03,3.398167e+03
2.305484e+03,3.378297e+03
2.308376e+03,3.378422e+03
2.311269e+03,3.367004e+03
2.314162e+03,3.365082e+03
2.317054e+03,3.353588e+03
2.319947e+03,3.355531e+03
2.322840e+03,3.353633e+03
2.325733e+03,3.314227e+03
2.328625e+03,3.335848e+03
2.331518e+03,3.318354e+03
2.334411e+03,3.290761e+03
2.337303e+03,3.287976e+03
2.340196e+03,3.273593e+03
2.343089e+03,3.265013e+03
2.345981e+03,3.286274e+03
2.348874e+03,3.269185e+03
2.351767e+03,3.249611e+03
2.354659e+03,3.254609e+03
2.357552e+03,3.239034e+03
2.360445e+03,3.242095e+03
2.363338e+03,3.239979e+03
2.366230e+03,3.225690e+03
2.369123e+03,3.195393e+03
2.372016e+03,3.182226e+03
2.374908e+03,3.175455e+03
2.377801e+03,3.192816e+03
2.380694e+03,3.166109e+03
2.383587e+03,3.164250e+03
2.386479e+03,3.153113e+03
2.389372e+03,3.161246e+03
2.392265e+03,3.135473e+03
2.395157e+03,3.124119e+03
2.398050e+03,3.117158e+03
2.400943e+03,3.107142e+03
2.403835e+03,3.116691e+03
2.406728e+03,3.092153e+03
2.409621e+03,3.085688e+03
2.412513e+03,3.082724e+03
2.415406e+03,3.069559e+03
2.418299e+03,3.077615e+03
2.421192e+03,3.075888e+03
2.424084e+03,3.082055e+03
2.426977e+03,3.058306e+03
2.429870e+03,3.043258e+03
2.432762e+03,3.035450e+03
2.435655e+03,3.042483e+03
2.438548e+03,3.021645e+03
2.441441e+03,3.011272e+03
2.444333e+03,3.002668e+03
2.447226e+03,2.991452e+03
2.450119e+03,2.989928e+03
2.453011e+03,2.995448e+03
2.455904e+03,2.986182e+03
2.458797e+03,2.970987e+03
2.461689e+03,2.936312e+03
2.464582e+03,2.964510e+03
2.467475e+03,2.968461e+03
2.470367e+03,2.917871e+03
2.473260e+03,2.937682e+03
2.476153e+03,2.930354e+03
2.479046e+03,2.946008e+03
2.481938e+03,2.945918e+03
2.484831e+03,2.921365e+03
2.487724e+03,2.899658e+03
2.490616e+03,2.875225e+03
2.493509e+03,2.903751e+03
2.496402e+03,2.884080e+03
2.499295e+03,2.896875e+03
2.502187e+03,2.861656e+03
2.505080e+03,2.871015e+03
2.507973e+03,2.863831e+03
2.510865e+03,2.870543e+03
2.513758e+03,2.854069e+03
2.516651e+03,2.863819e+03
2.519543e+03,2.831830e+03
2.522436e+03,2.826379e+03
2.525329e+03,2.820622e+03
2.528221e+03,2.822181e+03
2.531114e+03,2.840491e+03
2.534007e+03,2.799022e+03
2.536900e+03,2.812142e+03
2.539792e+03,2.777128e+03
2.542685e+03,2.794024e+03
2.545578e+03,2.798223e+03
2.548470e+03,2.782860e+03
2.551363e+03,2.755238e+03
2.554256e+03,2.769201e+03
2.557149e+03,2.759909e+03
2.560041e+03,2.764042e+03
2.562934e+03,2.761259e+03
2.565827e+03,2.773266e+03
2.568719e+03,2.730469e+03
2.571612e+03,2.742544e+03
2.574505e+03,2.744987e+03
2.577397e+03,2.721280e+03
2.580290e+03,2.714896e+03
2.583183e+03,2.706852e+03
2.586075e+03,2.703460e+03
2.588968e+03,2.693463e+03
2.591861e+03,2.685447e+03
2.594754e+03,2.713981e+03
2.597646e+03,2.685031e+03
2.600539e+03,2.679553e+03
2.603432e+03,2.681243e+03
2.606324e+03,2.625042e+03
2.609217e+03,2.676365e+03
2.612110e+03,2.668836e+03
2.615003e+03,2.659843e+03
2.617895e+03,2.631105e+03
2.620788e+03,2.629472e+03
2.623681e+03,2.650177e+03
2.626573e+03,2.641433e+03
2.629466e+03,2.636327e+03
2.632359e+03,2.603194e+03
2.635251e+03,2.624121e+03
2.638144e+03,2.614840e+03
2.641037e+03,2.598663e+03
2.643929e+03,2.590301e+03
2.646822e+03,2.615036e+03
2.649715e+03,2.574177e+03
2.652608e+03,2.570774e+03
2.655500e+03,2.572067e+03
2.658393e+03,2.584374e+03
2.661286e+03,2.573996e+03
2.664178e+03,2.573305e+03
2.667071e+03,2.585238e+03
2.669964e+03,2.564012e+03
2.672857e+03,2.557861e+03
2.675749e+03,2.543852e+03
2.678642e+03,2.540834e+03
2.681535e+03,2.556097e+03
2.684427e+03,2.531226e+03
2.687320e+03,2.535672e+03
2.690213e+03,2.536569e+03
2.693105e+03,2.510267e+03
2.695998e+03,2.538498e+03
2.698891e+03,2.518043e+03
2.701783e+03,2.499525e+03
2.704676e+03,2.504507e+03
2.707569e+03,2.488777e+03
2.710462e+03,2.463705e+03
2.713354e+03,2.474185e+03
2.716247e+03,2.473492e+03
2.719140e+03,2.458668e+03
2.722032e+03,2.447125e+03
2.724925e+03,2.476236e+03
2.727818e+03,2.449007e+03
2.730711e+03,2.428755e+03
2.733603e+03,2.442688e+03
2.736496e+03,2.442977e+03
2.739389e+03,2.430569e+03
2.742281e+03,2.428656e+03
2.745174e+03,2.436053e+03
2.748067e+03,2.457996e+03
2.750959e+03,2.432237e+03
2.753852e+03,2.406520e+03
2.756745e+03,2.396830e+03
2.759637e+03,2.414847e+03
2.762530e+03,2.445161e+03
2.765423e+03,2.387770e+03
2.768316e+03,2.382021e+03
2.771208e+03,2.379620e+03
2.774101e+03,2.386392e+03
2.776994e+03,2.372379e+03
2.779886e+03,2.371524e+03
2.782779e+03,2.372981e+03
2.785672e+03,2.360098e+03
2.788565e+03,2.357645e+03
2.791457e+03,2.363149e+03
2.794350e+03,2.329778e+03
2.797243e+03,2.338249e+03
2.800135e+03,2.370243e+03
2.803028e+03,2.356839e+03
2.805921e+03,2.354153e+03
2.808813e+03,2.351978e+03
2.811706e+03,2.302813e+03
2.814599e+03,2.334456e+03
2.817491e+03,2.351274e+03
2.820384e+03,2.325173e+03
2.823277e+03,2.341633e+03
2.826170e+03,2.287472e+03
2.829062e+03,2.315728e+03
2.831955e+03,2.328512e+03
2.834848e+03,2.276845e+03
2.837740e+03,2.319316e+03
2.840633e+03,2.294710e+03
2.843526e+03,2.288495e+03
2.846419e+03,2.285328e+03
2.849311e+03,2.309562e+03
2.852204e+03,2.323367e+03
2.855097e+03,2.306822e+03
2.857990e+03,2.296762e+03
2.860882e+03,2.272860e+03
2.863775e+03,2.286187e+03
2.866667e+03,2.281964e+03
2.869560e+03,2.317317e+03
2.872453e+03,2.315738e+03
2.875345e+03,2.258359e+03
2.878238e+03,2.263903e+03
2.881131e+03,2.304615e+03
2.884024e+03,2.268485e+03
2.886916e+03,2.229298e+03
2.889809e+03,2.257755e+03
2.892702e+03,2.236968e+03
2.895594e+03,2.288593e+03
2.898487e+03,2.278961e+03
2.901380e+03,2.272206e+03
2.904273e+03,2.263065e+03
2.907165e+03,2.248916e+03
2.910058e+03,2.218686e+03
2.912951e+03,2.238816e+03
2.915844e+03,2.224815e+03
2.918736e+03,2.204292e+03
2.921629e+03,2.204470e+03
2.924521e+03,2.207738e+03
2.927414e+03,2.196188e+03
2.930307e+03,2.176391e+03
2.933199e+03,2.178969e+03
2.936092e+03,2.183100e+03
2.938985e+03,2.147732e+03
2.941878e+03,2.175900e+03
2.944770e+03,2.226544e+03
2.947663e+03,2.183211e+03
2.950556e+03,2.163531e+03
2.953448e+03,2.167478e+03
2.956341e+03,2.194897e+03
2.959234e+03,2.149455e+03
2.962127e+03,2.175882e+03
2.965019e+03,2.156583e+03
2.967912e+03,2.102801e+03
2.970805e+03,2.105638e+03
2.973698e+03,2.125866e+03
2.976590e+03,2.107266e+03
2.979483e+03,2.112432e+03
2.982375e+03,2.091168e+03
2.985268e+03,2.120617e+03
2.988161e+03,2.125203e+03
2.991053e+03,2.135935e+03
2.993946e+03,2.112272e+03
2.996839e+03,2.132399e+03
2.999732e+03,2.072334e+03
3.002624e+03,2.057870e+03
3.005517e+03,2.051997e+03
3.008410e+03,2.082573e+03
3.011302e+03,2.088037e+03
3.014195e+03,2.082180e+03
3.017088e+03,2.051923e+03
3.019981e+03,2.101073e+03
3.022873e+03,2.097886e+03
3.025766e+03,2.087992e+03
3.028659e+03,2.083800e+03
3.031552e+03,2.066802e+03
3.034444e+03,2.053630e+03
3.037337e+03,2.068733e+03
3.040229e+03,2.064531e+03
3.043122e+03,2.065692e+03
3.046015e+03,2.032198e+03
3.048907e+03,2.052818e+03
3.051800e+03,2.078280e+03
3.054693e+03,2.003312e+03
3.057586e+03,2.018389e+03
3.060478e+03,2.081350e+03
3.063371e+03,2.046543e+03
3.066264e+03,2.058385e+03
3.069156e+03,2.005025e+03
3.072049e+03,2.044576e+03
3.074942e+03,2.068561e+03
3.077835e+03,2.026760e+03
3.080727e+03,2.015068e+03
3.083620e+03,1.999489e+03
3.086513e+03,2.023395e+03
3.089406e+03,2.051954e+03
3.092298e+03,2.023450e+03
3.095191e+03,1.996459e+03
3.098083e+03,1.991630e+03
3.100976e+03,2.000199e+03
3.103869e+03,2.021747e+03
3.106761e+03,1.943745e+03
3.109654e+03,1.983373e+03
3.112547e+03,1.998687e+03
3.115440e+03,1.997183e+03
3.118332e+03,1.980461e+03
3.121225e+03,1.985777e+03
3.124118e+03,1.991841e+03
3.127010e+03,2.001529e+03
3.129903e+03,2.030582e+03
3.132796e+03,1.956021e+03
3.135689e+03,1.970825e+03
3.138581e+03,1.981183e+03
3.141474e+03,2.011702e+03
3.144367e+03,1.930509e+03
3.147260e+03,1.968107e+03
3.150152e+03,2.069724e+03
3.153045e+03,1.994433e+03
3.155938e+03,1.945754e+03
3.158830e+03,2.017120e+03
3.161723e+03,2.047807e+03
3.164615e+03,2.025258e+03
3.167508e+03,2.009307e+03
3.170401e+03,1.982649e+03
3.173294e+03,2.037280e+03
3.176186e+03,1.991349e+03
3.179079e+03,1.989869e+03
3.181972e+03,2.005666e+03
3.184865e+03,2.006304e+03
3.187757e+03,1.974034e+03
3.190650e+03,1.979658e+03
3.193543e+03,2.014593e+03
3.196435e+03,2.004766e+03
3.199328e+03,2.031250e+03
3.200292e+03,2.035504e+03