File: RAMAN_data/13112023_r2/black fibre2.CSV
9.931763e+01,0.000000e+00
1.022103e+02,0.000000e+00
1.051030e+02,0.000000e+00
1.079957e+02,0.000000e+00
1.108884e+02,0.000000e+00
1.137811e+02,0.000000e+00
1.166738e+02,0.000000e+00
1.195665e+02,0.000000e+00
1.224592e+02,0.000000e+00
1.253519e+02,0.000000e+00
1.282446e+02,0.000000e+00
1.311373e+02,0.000000e+00
1.340300e+02,0.000000e+00
1.369227e+02,0.000000e+00
1.398154e+02,0.000000e+00
1.427081e+02,0.000000e+00
1.456008e+02,0.000000e+00
1.484935e+02,0.000000e+00
1.513862e+02,0.000000e+00
1.542789e+02,0.000000e+00
1.571716e+02,0.000000e+00
1.600643e+02,0.000000e+00
1.629570e+02,0.000000e+00
1.658497e+02,0.000000e+00
1.687424e+02,0.000000e+00
1.716351e+02,0.000000e+00
1.745278e+02,0.000000e+00
1.774205e+02,0.000000e+00
1.803132e+02,0.000000e+00
1.832059e+02,0.000000e+00
1.860986e+02,0.000000e+00
1.889913e+02,0.000000e+00
1.918840e+02,0.000000e+00
1.947767e+02,0.000000e+00
1.976694e+02,0.000000e+00
2.005621e+02,1.631637e+03
2.034548e+02,1.627558e+03
2.063475e+02,1.628790e+03
2.092402e+02,1.624051e+03
2.121329e+02,1.621256e+03
2.150256e+02,1.638741e+03
2.179183e+02,1.645505e+03
2.208110e+02,1.640166e+03
2.237037e+02,1.646813e+03
2.265964e+02,1.638712e+03
2.294892e+02,1.638877e+03
2.323819e+02,1.631187e+03
2.352746e+02,1.640899e+03
2.381673e+02,1.643666e+03
2.410600e+02,1.653941e+03
2.439527e+02,1.647497e+03
2.468454e+02,1.645037e+03
2.497381e+02,1.655690e+03
2.526308e+02,1.655811e+03
2.555235e+02,1.645323e+03
2.584161e+02,1.644105e+03
2.613088e+02,1.652828e+03
2.642015e+02,1.654835e+03
2.670942e+02,1.654474e+03
2.699869e+02,1.658542e+03
2.728796e+02,1.658740e+03
2.757723e+02,1.660312e+03
2.786650e+02,1.650041e+03
2.815577e+02,1.669542e+03
2.844504e+02,1.665182e+03
2.873431e+02,1.667890e+03
2.902358e+02,1.672803e+03
2.931285e+02,1.654206e+03
2.960212e+02,1.657960e+03
2.989139e+02,1.661277e+03
3.018066e+02,1.663238e+03
3.046993e+02,1.672529e+03
3.075920e+02,1.657557e+03
3.104847e+02,1.668098e+03
3.133774e+02,1.675046e+03
3.162701e+02,1.676489e+03
3.191628e+02,1.683903e+03
3.220555e+02,1.678903e+03
3.249482e+02,1.677828e+03
3.278409e+02,1.676629e+03
3.307336e+02,1.674281e+03
3.336263e+02,1.671751e+03
3.365190e+02,1.669026e+03
3.394117e+02,1.678409e+03
3.423044e+02,1.665876e+03
3.451971e+02,1.674575e+03
3.480898e+02,1.663567e+03
3.509825e+02,1.665443e+03
3.538752e+02,1.673948e+03
3.567680e+02,1.689188e+03
3.596607e+02,1.682700e+03
3.625534e+02,1.681174e+03
3.654461e+02,1.688386e+03
3.683388e+02,1.665121e+03
3.712315e+02,1.676054e+03
3.741242e+02,1.688668e+03
3.770169e+02,1.694208e+03
3.799096e+02,1.686733e+03
3.828023e+02,1.674858e+03
3.856950e+02,1.677775e+03
3.885877e+02,1.673766e+03
3.914804e+02,1.676910e+03
3.943731e+02,1.670210e+03
3.972658e+02,1.673522e+03
4.001585e+02,1.670533e+03
4.030512e+02,1.668442e+03
4.059439e+02,1.658028e+03
4.088366e+02,1.659652e+03
4.117293e+02,1.661966e+03
4.146220e+02,1.660541e+03
4.175147e+02,1.676885e+03
4.204074e+02,1.675029e+03
4.233001e+02,1.660462e+03
4.261928e+02,1.670523e+03
4.290855e+02,1.674497e+03
4.319782e+02,1.675927e+03
4.348709e+02,1.666538e+03
4.377636e+02,1.670245e+03
4.406563e+02,1.679598e+03
4.435490e+02,1.671543e+03
4.464417e+02,1.658012e+03
4.493344e+02,1.670620e+03
4.522271e+02,1.666832e+03
4.551198e+02,1.663990e+03
4.580125e+02,1.658852e+03
4.609052e+02,1.657956e+03
4.637979e+02,1.656945e+03
4.666906e+02,1.654388e+03
4.695833e+02,1.656820e+03
4.724760e+02,1.646644e+03
4.753687e+02,1.656073e+03
4.782614e+02,1.650641e+03
4.811541e+02,1.645830e+03
4.840468e+02,1.650891e+03
4.869395e+02,1.649353e+03
4.898322e+02,1.658462e+03
4.927249e+02,1.649343e+03
4.956176e+02,1.650323e+03
4.985103e+02,1.654731e+03
5.014030e+02,1.652424e+03
5.042957e+02,1.655559e+03
5.071884e+02,1.650299e+03
5.100811e+02,1.647258e+03
5.129738e+02,1.645999e+03
5.158665e+02,1.649595e+03
5.187592e+02,1.650876e+03
5.216519e+02,1.634318e+03
5.245446e+02,1.643922e+03
5.274373e+02,1.643340e+03
5.303300e+02,1.641932e+03
5.332227e+02,1.649926e+03
5.361154e+02,1.641784e+03
5.390081e+02,1.627965e+03
5.419008e+02,1.647434e+03
5.447935e+02,1.639071e+03
5.476862e+02,1.643660e+03
5.505789e+02,1.637645e+03
5.534716e+02,1.634716e+03
5.563643e+02,1.630362e+03
5.592570e+02,1.634432e+03
5.621497e+02,1.632443e+03
5.650424e+02,1.623997e+03
5.679351e+02,1.625484e+03
5.708278e+02,1.625557e+03
5.737205e+02,1.636863e+03
5.766132e+02,1.636434e+03
5.795059e+02,1.627948e+03
5.823986e+02,1.627387e+03
5.852913e+02,1.613378e+03
5.881840e+02,1.631900e+03
5.910767e+02,1.621577e+03
5.939694e+02,1.620631e+03
5.968621e+02,1.615712e+03
5.997548e+02,1.625913e+03
6.026475e+02,1.625514e+03
6.055402e+02,1.624935e+03
6.084329e+02,1.618521e+03
6.113256e+02,1.623817e+03
6.142183e+02,1.616910e+03
6.171110e+02,1.609297e+03
6.200037e+02,1.606511e+03
6.228964e+02,1.621132e+03
6.257891e+02,1.611395e+03
6.286818e+02,1.598028e+03
6.315745e+02,1.599959e+03
6.344672e+02,1.602443e+03
6.373599e+02,1.595463e+03
6.402526e+02,1.596371e+03
6.431453e+02,1.595604e+03
6.460380e+02,1.596612e+03
6.489307e+02,1.592035e+03
6.518234e+02,1.594906e+03
6.547161e+02,1.596305e+03
6.576088e+02,1.594590e+03
6.605015e+02,1.591900e+03
6.633942e+02,1.590637e+03
6.662869e+02,1.593665e+03
6.691796e+02,1.590648e+03
6.720723e+02,1.581571e+03
6.749650e+02,1.593098e+03
6.778577e+02,1.583948e+03
6.807504e+02,1.583636e+03
6.836431e+02,1.575956e+03
6.865358e+02,1.581968e+03
6.894285e+02,1.589674e+03
6.923212e+02,1.581664e+03
6.952139e+02,1.560089e+03
6.981066e+02,1.574557e+03
7.009993e+02,1.579821e+03
7.038920e+02,1.570458e+03
7.067847e+02,1.568873e+03
7.096774e+02,1.573725e+03
7.125701e+02,1.570929e+03
7.154628e+02,1.587745e+03
7.183555e+02,1.571498e+03
7.212482e+02,1.558311e+03
7.241409e+02,1.558484e+03
7.270336e+02,1.560660e+03
7.299263e+02,1.562579e+03
7.328190e+02,1.574540e+03
7.357117e+02,1.561267e+03
7.386044e+02,1.556515e+03
7.414971e+02,1.556439e+03
7.443898e+02,1.571928e+03
7.472825e+02,1.543649e+03
7.501752e+02,1.548891e+03
7.530679e+02,1.553397e+03
7.559606e+02,1.541375e+03
7.588533e+02,1.541717e+03
7.617460e+02,1.547511e+03
7.646387e+02,1.543586e+03
7.675314e+02,1.544727e+03
7.704241e+02,1.537740e+03
7.733168e+02,1.533174e+03
7.762095e+02,1.538783e+03
7.791022e+02,1.547773e+03
7.819949e+02,1.544830e+03
7.848876e+02,1.534930e+03
7.877803e+02,1.533845e+03
7.906730e+02,1.545189e+03
7.935657e+02,1.541982e+03
7.964584e+02,1.529988e+03
7.993511e+02,1.532470e+03
8.022438e+02,1.529236e+03
8.051365e+02,1.521088e+03
8.080292e+02,1.515300e+03
8.109219e+02,1.531401e+03
8.138146e+02,1.535123e+03
8.167073e+02,1.520629e+03
8.196000e+02,1.517698e+03
8.224927e+02,1.512331e+03
8.253854e+02,1.523079e+03
8.282781e+02,1.517485e+03
8.311708e+02,1.513051e+03
8.340635e+02,1.520664e+03
8.369562e+02,1.508236e+03
8.398489e+02,1.510720e+03
8.427416e+02,1.513019e+03
8.456343e+02,1.499723e+03
8.485270e+02,1.507168e+03
8.514197e+02,1.508644e+03
8.543124e+02,1.514296e+03
8.572051e+02,1.505607e+03
8.600978e+02,1.491776e+03
8.629905e+02,1.513365e+03
8.658832e+02,1.503990e+03
8.687759e+02,1.509767e+03
8.716686e+02,1.493498e+03
8.745613e+02,1.497698e+03
8.774540e+02,1.499957e+03
8.803467e+02,1.492274e+03
8.832394e+02,1.511447e+03
8.861321e+02,1.502590e+03
8.890248e+02,1.497996e+03
8.919175e+02,1.491865e+03
8.948102e+02,1.494430e+03
8.977029e+02,1.492301e+03
9.005956e+02,1.490752e+03
9.034883e+02,1.494962e+03
9.063810e+02,1.483852e+03
9.092737e+02,1.469123e+03
9.121664e+02,1.487445e+03
9.150591e+02,1.486393e+03
9.179518e+02,1.485055e+03
9.208445e+02,1.470499e+03
9.237372e+02,1.472474e+03
9.266299e+02,1.469478e+03
9.295226e+02,1.470179e+03
9.324153e+02,1.461414e+03
9.353080e+02,1.463899e+03
9.382007e+02,1.462549e+03
9.410934e+02,1.460846e+03
9.439861e+02,1.455497e+03
9.468788e+02,1.467299e+03
9.497715e+02,1.455922e+03
9.526642e+02,1.468337e+03
9.555569e+02,1.456859e+03
9.584496e+02,1.457213e+03
9.613423e+02,1.454249e+03
9.642350e+02,1.469714e+03
9.671277e+02,1.456539e+03
9.700204e+02,1.451193e+03
9.729131e+02,1.450190e+03
9.758058e+02,1.453356e+03
9.786985e+02,1.435212e+03
9.815912e+02,1.449863e+03
9.844839e+02,1.440648e+03
9.873766e+02,1.445083e+03
9.902693e+02,1.435720e+03
9.931620e+02,1.445550e+03
9.960547e+02,1.449592e+03
9.989474e+02,1.449866e+03
1.001840e+03,1.441595e+03
1.004733e+03,1.440742e+03
1.007626e+03,1.444447e+03
1.010518e+03,1.439097e+03
1.013411e+03,1.430535e+03
1.016304e+03,1.434415e+03
1.019196e+03,1.425342e+03
1.022089e+03,1.432317e+03
1.024982e+03,1.445664e+03
1.027875e+03,1.426657e+03
1.030767e+03,1.424801e+03
1.033660e+03,1.426373e+03
1.036552e+03,1.433714e+03
1.039445e+03,1.417928e+03
1.042338e+03,1.427360e+03
1.045231e+03,1.422438e+03
1.048123e+03,1.433089e+03
1.051016e+03,1.425440e+03
1.053909e+03,1.417419e+03
1.056802e+03,1.428781e+03
1.059694e+03,1.419381e+03
1.062587e+03,1.419172e+03
1.065479e+03,1.427423e+03
1.068372e+03,1.416087e+03
1.071265e+03,1.423566e+03
1.074158e+03,1.425559e+03
1.077050e+03,1.411310e+03
1.079943e+03,1.414911e+03
1.082836e+03,1.421581e+03
1.085729e+03,1.426991e+03
1.088621e+03,1.428910e+03
1.091514e+03,1.429611e+03
1.094406e+03,1.427794e+03
1.097299e+03,1.430416e+03
1.100192e+03,1.422785e+03
1.103085e+03,1.416412e+03
1.105977e+03,1.415269e+03
1.108870e+03,1.405606e+03
1.111763e+03,1.426558e+03
1.114656e+03,1.415141e+03
1.117548e+03,1.421145e+03
1.120441e+03,1.418482e+03
1.123334e+03,1.412162e+03
1.126226e+03,1.407974e+03
1.129119e+03,1.414635e+03
1.132012e+03,1.408000e+03
1.134904e+03,1.389590e+03
1.137797e+03,1.396785e+03
1.140690e+03,1.394397e+03
1.143583e+03,1.404977e+03
1.146475e+03,1.401675e+03
1.149368e+03,1.398774e+03
1.152261e+03,1.403958e+03
1.155153e+03,1.400316e+03
1.158046e+03,1.383357e+03
1.160939e+03,1.399025e+03
1.163831e+03,1.389292e+03
1.166724e+03,1.390472e+03
1.169617e+03,1.392595e+03
1.172510e+03,1.379146e+03
1.175402e+03,1.394416e+03
1.178295e+03,1.389677e+03
1.181188e+03,1.403939e+03
1.184080e+03,1.393839e+03
1.186973e+03,1.383080e+03
1.189866e+03,1.386995e+03
1.192758e+03,1.383460e+03
1.195651e+03,1.382331e+03
1.198544e+03,1.393480e+03
1.201437e+03,1.377971e+03
1.204329e+03,1.376354e+03
1.207222e+03,1.382806e+03
1.210115e+03,1.389211e+03
1.213007e+03,1.383037e+03
1.215900e+03,1.376073e+03
1.218793e+03,1.374825e+03
1.221685e+03,1.376629e+03
1.224578e+03,1.381552e+03
1.227471e+03,1.391560e+03
1.230364e+03,1.391937e+03
1.233256e+03,1.376109e+03
1.236149e+03,1.374992e+03
1.239042e+03,1.391683e+03
1.241934e+03,1.395542e+03
1.244827e+03,1.381984e+03
1.247720e+03,1.385068e+03
1.250612e+03,1.383429e+03
1.253505e+03,1.377318e+03
1.256398e+03,1.375124e+03
1.259291e+03,1.377078e+03
1.262183e+03,1.377855e+03
1.265076e+03,1.370276e+03
1.267969e+03,1.389427e+03
1.270861e+03,1.386557e+03
1.273754e+03,1.388754e+03
1.276647e+03,1.384299e+03
1.279539e+03,1.379836e+03
1.282432e+03,1.375230e+03
1.285325e+03,1.383442e+03
1.288218e+03,1.388243e+03
1.291110e+03,1.381285e+03
1.294003e+03,1.384519e+03
1.296896e+03,1.370985e+03
1.299788e+03,1.376168e+03
1.302681e+03,1.374090e+03
1.305574e+03,1.377299e+03
1.308466e+03,1.380022e+03
1.311359e+03,1.382084e+03
1.314252e+03,1.376202e+03
1.317145e+03,1.381363e+03
1.320037e+03,1.385840e+03
1.322930e+03,1.388920e+03
1.325823e+03,1.382450e+03
1.328715e+03,1.388953e+03
1.331608e+03,1.372163e+03
1.334501e+03,1.385561e+03
1.337393e+03,1.381507e+03
1.340286e+03,1.377566e+03
1.343179e+03,1.376764e+03
1.346072e+03,1.378407e+03
1.348964e+03,1.368645e+03
1.351857e+03,1.360105e+03
1.354750e+03,1.376766e+03
1.357642e+03,1.371789e+03
1.360535e+03,1.371000e+03
1.363428e+03,1.369142e+03
1.366320e+03,1.375618e+03
1.369213e+03,1.364082e+03
1.372106e+03,1.364284e+03
1.374999e+03,1.362636e+03
1.377891e+03,1.365633e+03
1.380784e+03,1.360076e+03
1.383677e+03,1.356127e+03
1.386569e+03,1.359005e+03
1.389462e+03,1.351998e+03
1.392355e+03,1.341502e+03
1.395247e+03,1.339777e+03
1.398140e+03,1.340131e+03
1.401033e+03,1.339103e+03
1.403926e+03,1.335969e+03
1.406818e+03,1.337151e+03
1.409711e+03,1.336369e+03
1.412604e+03,1.338598e+03
1.415496e+03,1.328773e+03
1.418389e+03,1.341330e+03
1.421282e+03,1.321600e+03
1.424174e+03,1.322708e+03
1.427067e+03,1.325117e+03
1.429960e+03,1.333544e+03
1.432853e+03,1.314869e+03
1.435745e+03,1.325460e+03
1.438638e+03,1.324361e+03
1.441531e+03,1.333152e+03
1.444423e+03,1.331344e+03
1.447316e+03,1.327778e+03
1.450209e+03,1.314240e+03
1.453101e+03,1.324426e+03
1.455994e+03,1.319677e+03
1.458887e+03,1.322527e+03
1.461780e+03,1.315311e+03
1.464672e+03,1.309670e+03
1.467565e+03,1.305954e+03
1.470458e+03,1.314409e+03
1.473350e+03,1.307440e+03
1.476243e+03,1.317127e+03
1.479136e+03,1.317079e+03
1.482028e+03,1.305516e+03
1.484921e+03,1.308184e+03
1.487814e+03,1.310357e+03
1.490707e+03,1.298062e+03
1.493599e+03,1.308416e+03
1.496492e+03,1.305485e+03
1.499385e+03,1.291959e+03
1.502277e+03,1.295472e+03
1.505170e+03,1.307643e+03
1.508063e+03,1.300741e+03
1.510955e+03,1.297552e+03
1.513848e+03,1.304057e+03
1.516741e+03,1.291455e+03
1.519634e+03,1.294053e+03
1.522526e+03,1.298327e+03
1.525419e+03,1.298795e+03
1.528312e+03,1.290383e+03
1.531204e+03,1.303605e+03
1.534097e+03,1.301616e+03
1.536990e+03,1.295233e+03
1.539882e+03,1.301213e+03
1.542775e+03,1.299715e+03
1.545668e+03,1.293461e+03
1.548561e+03,1.298436e+03
1.551453e+03,1.295245e+03
1.554346e+03,1.313710e+03
1.557239e+03,1.298684e+03
1.560131e+03,1.321130e+03
1.563024e+03,1.312270e+03
1.565917e+03,1.313597e+03
1.568809e+03,1.317395e+03
1.571702e+03,1.312834e+03
1.574595e+03,1.313065e+03
1.577488e+03,1.304969e+03
1.580380e+03,1.314806e+03
1.583273e+03,1.312019e+03
1.586166e+03,1.318328e+03
1.589058e+03,1.309737e+03
1.591951e+03,1.315259e+03
1.594844e+03,1.320568e+03
1.597736e+03,1.302737e+03
1.600629e+03,1.304187e+03
1.603522e+03,1.308091e+03
1.606415e+03,1.293832e+03
1.609307e+03,1.290648e+03
1.612200e+03,1.288566e+03
1.615093e+03,1.283540e+03
1.617985e+03,1.287136e+03
1.620878e+03,1.269662e+03
1.623771e+03,1.271152e+03
1.626663e+03,1.260903e+03
1.629556e+03,1.275113e+03
1.632449e+03,1.271812e+03
1.635342e+03,1.255359e+03
1.638234e+03,1.257816e+03
1.641127e+03,1.258630e+03
1.644020e+03,1.249676e+03
1.646912e+03,1.248854e+03
1.649805e+03,1.246968e+03
1.652698e+03,1.246201e+03
1.655590e+03,1.235333e+03
1.658483e+03,1.234668e+03
1.661376e+03,1.243829e+03
1.664269e+03,1.231514e+03
1.667161e+03,1.229809e+03
1.670054e+03,1.230190e+03
1.672947e+03,1.236432e+03
1.675839e+03,1.224110e+03
1.678732e+03,1.223430e+03
1.681625e+03,1.229755e+03
1.684517e+03,1.232910e+03
1.687410e+03,1.224835e+03
1.690303e+03,1.234035e+03
1.693196e+03,1.220478e+03
1.696088e+03,1.221585e+03
1.698981e+03,1.216498e+03
1.701874e+03,1.222992e+03
1.704766e+03,1.233142e+03
1.707659e+03,1.202927e+03
1.710552e+03,1.218471e+03
1.713444e+03,1.218959e+03
1.716337e+03,1.202644e+03
1.719230e+03,1.202721e+03
1.722123e+03,1.219445e+03
1.725015e+03,1.216756e+03
1.727908e+03,1.215787e+03
1.730801e+03,1.212354e+03
1.733693e+03,1.196256e+03
1.736586e+03,1.208261e+03
1.739479e+03,1.202899e+03
1.742371e+03,1.213866e+03
1.745264e+03,1.196061e+03
1.748157e+03,1.203034e+03
1.751050e+03,1.193380e+03
1.753942e+03,1.206727e+03
1.756835e+03,1.208625e+03
1.759728e+03,1.180636e+03
1.762620e+03,1.185639e+03
1.765513e+03,1.190442e+03
1.768406e+03,1.186766e+03
1.771298e+03,1.193756e+03
1.774191e+03,1.174690e+03
1.777084e+03,1.185232e+03
1.779977e+03,1.171469e+03
1.782869e+03,1.176772e+03
1.785762e+03,1.176564e+03
1.788655e+03,1.174220e+03
1.791547e+03,1.165931e+03
1.794440e+03,1.175210e+03
1.797333e+03,1.186144e+03
1.800225e+03,1.174147e+03
1.803118e+03,1.173117e+03
1.806011e+03,1.168703e+03
1.808904e+03,1.175385e+03
1.811796e+03,1.171399e+03
1.814689e+03,1.164738e+03
1.817582e+03,1.144592e+03
1.820474e+03,1.165952e+03
1.823367e+03,1.161888e+03
1.826260e+03,1.163554e+03
1.829152e+03,1.152451e+03
1.832045e+03,1.162758e+03
1.834938e+03,1.168708e+03
1.837831e+03,1.146301e+03
1.840723e+03,1.168686e+03
1.843616e+03,1.153388e+03
1.846509e+03,1.170553e+03
1.849401e+03,1.144578e+03
1.852294e+03,1.149418e+03
1.855187e+03,1.136348e+03
1.858079e+03,1.151833e+03
1.860972e+03,1.136595e+03
1.863865e+03,1.144383e+03
1.866758e+03,1.133674e+03
1.869650e+03,1.158807e+03
1.872543e+03,1.138541e+03
1.875436e+03,1.143913e+03
1.878328e+03,1.141942e+03
1.881221e+03,1.147667e+03
1.884114e+03,1.127063e+03
1.887006e+03,1.119071e+03
1.889899e+03,1.127671e+03
1.892792e+03,1.132453e+03
1.895685e+03,1.127799e+03
1.898577e+03,1.124744e+03
1.901470e+03,1.118475e+03
1.904363e+03,1.121237e+03
1.907255e+03,1.125528e+03
1.910148e+03,1.119529e+03
1.913041e+03,1.121294e+03
1.915933e+03,1.096308e+03
1.918826e+03,1.117835e+03
1.921719e+03,1.107947e+03
1.924612e+03,1.106687e+03
1.927504e+03,1.124342e+03
1.930397e+03,1.116367e+03
1.933290e+03,1.109423e+03
1.936182e+03,1.108214e+03
1.939075e+03,1.102234e+03
1.941968e+03,1.107974e+03
1.944860e+03,1.085867e+03
1.947753e+03,1.108279e+03
1.950646e+03,1.078191e+03
1.953539e+03,1.098431e+03
1.956431e+03,1.095095e+03
1.959324e+03,1.076194e+03
1.962217e+03,1.105165e+03
1.965109e+03,1.065630e+03
1.968002e+03,1.097864e+03
1.970895e+03,1.092126e+03
1.973787e+03,1.085754e+03
1.976680e+03,1.088914e+03
1.979573e+03,1.073479e+03
1.982466e+03,1.084966e+03
1.985358e+03,1.084495e+03
1.988251e+03,1.066864e+03
1.991144e+03,1.075786e+03
1.994036e+03,1.068901e+03
1.996929e+03,1.072403e+03
1.999822e+03,1.065985e+03
2.002714e+03,1.064353e+03
2.005607e+03,1.070980e+03
2.008500e+03,1.066013e+03
2.011393e+03,1.061518e+03
2.014285e+03,1.067538e+03
2.017178e+03,1.059553e+03
2.020071e+03,1.054030e+03
2.022963e+03,1.049017e+03
2.025856e+03,1.049123e+03
2.028749e+03,1.067473e+03
2.031641e+03,1.063010e+03
2.034534e+03,1.043207e+03
2.037427e+03,1.041608e+03
2.040320e+03,1.033934e+03
2.043212e+03,1.043560e+03
2.046105e+03,1.053756e+03
2.048998e+03,1.035367e+03
2.051890e+03,1.032934e+03
2.054783e+03,1.042338e+03
2.057676e+03,1.031968e+03
2.060568e+03,1.023515e+03
2.063461e+03,1.025501e+03
2.066354e+03,1.024609e+03
2.069247e+03,1.026198e+03
2.072139e+03,1.027755e+03
2.075032e+03,1.023884e+03
2.077925e+03,1.039299e+03
2.080817e+03,1.008431e+03
2.083710e+03,1.020637e+03
2.086603e+03,1.018236e+03
2.089496e+03,1.015102e+03
2.092388e+03,1.000305e+03
2.095281e+03,1.021607e+03
2.098174e+03,1.019167e+03
2.101066e+03,1.005014e+03
2.103959e+03,9.861807e+02
2.106852e+03,1.010917e+03
2.109744e+03,9.933176e+02
2.112637e+03,9.991324e+02
2.115530e+03,9.961125e+02
2.118422e+03,9.810667e+02
2.121315e+03,1.000815e+03
2.124208e+03,9.983361e+02
2.127101e+03,9.934454e+02
2.129993e+03,9.852255e+02
2.132886e+03,9.871259e+02
2.135779e+03,9.916845e+02
2.138671e+03,9.720414e+02
2.141564e+03,9.911080e+02
2.144457e+03,9.907982e+02
2.147350e+03,9.771406e+02
2.150242e+03,9.661849e+02
2.153135e+03,9.950359e+02
2.156028e+03,9.924081e+02
2.158920e+03,9.784519e+02
2.161813e+03,9.665635e+02
2.164706e+03,9.651127e+02
2.167598e+03,9.758460e+02
2.170491e+03,9.830768e+02
2.173384e+03,9.776651e+02
2.176277e+03,9.565909e+02
2.179169e+03,9.715063e+02
2.182062e+03,9.689717e+02
2.184955e+03,9.615042e+02
2.187847e+03,9.623178e+02
2.190740e+03,9.559655e+02
2.193633e+03,9.596400e+02
2.196525e+03,9.392296e+02
2.199418e+03,9.562607e+02
2.202311e+03,9.465629e+02
2.205204e+03,9.535685e+02
2.208096e+03,9.525820e+02
2.210989e+03,9.574885e+02
2.213882e+03,9.456201e+02
2.216774e+03,9.432264e+02
2.219667e+03,9.283754e+02
2.222560e+03,9.408583e+02
2.225452e+03,9.300517e+02
2.228345e+03,9.299425e+02
2.231238e+03,9.361152e+02
2.234131e+03,9.361637e+02
2.237023e+03,9.393260e+02
2.239916e+03,9.353963e+02
2.242809e+03,9.292803e+02
2.245701e+03,9.297289e+02
2.248594e+03,9.226180e+02
2.251487e+03,9.223585e+02
2.254379e+03,9.192559e+02
2.257272e+03,9.254484e+02
2.260165e+03,9.109948e+02
2.263058e+03,9.097460e+02
2.265950e+03,9.209000e+02
2.268843e+03,8.900654e+02
2.271736e+03,8.954880e+02
2.274628e+03,9.124269e+02
2.277521e+03,8.942225e+02
2.280414e+03,9.085344e+02
2.283306e+03,9.086655e+02
2.286199e+03,9.041773e+02
2.289092e+03,9.064600e+02
2.291985e+03,8.882637e+02
2.294877e+03,9.063765e+02
2.297770e+03,8.980881e+02
2.300663e+03,8.732625e+02
2.303555e+03,8.874772e+02
2.306448e+03,8.809819e+02
2.309341e+03,8.940969e+02
2.312233e+03,8.821884e+02
2.315126e+03,8.838403e+02
2.318019e+03,8.765935e+02
2.320912e+03,8.769764e+02
2.323804e+03,8.953380e+02
2.326697e+03,8.731572e+02
2.329590e+03,8.759889e+02
2.332482e+03,8.775447e+02
2.335375e+03,8.774170e+02
2.338268e+03,8.644258e+02
2.341160e+03,8.734162e+02
2.344053e+03,8.612269e+02
2.346946e+03,8.696243e+02
2.349839e+03,8.639489e+02
2.352731e+03,8.701834e+02
2.355624e+03,8.704222e+02
2.358517e+03,8.779875e+02
2.361409e+03,8.688438e+02
2.364302e+03,8.516749e+02
2.367195e+03,8.552191e+02
2.370087e+03,8.489939e+02
2.372980e+03,8.559971e+02
2.375873e+03,8.595597e+02
2.378766e+03,8.537360e+02
2.381658e+03,8.541768e+02
2.384551e+03,8.475021e+02
2.387444e+03,8.509786e+02
2.390336e+03,8.606495e+02
2.393229e+03,8.555585e+02
2.396122e+03,8.588054e+02
2.399014e+03,8.236081e+02
2.401907e+03,8.390466e+02
2.404800e+03,8.334805e+02
2.407693e+03,8.326908e+02
2.410585e+03,8.444250e+02
2.413478e+03,8.254200e+02
2.416371e+03,8.538376e+02
2.419263e+03,8.421910e+02
2.422156e+03,8.351198e+02
2.425049e+03,8.286677e+02
2.427941e+03,8.364318e+02
2.430834e+03,8.369254e+02
2.433727e+03,8.210106e+02
2.436620e+03,8.339285e+02
2.439512e+03,8.198682e+02
2.442405e+03,8.255895e+02
2.445298e+03,8.441586e+02
2.448190e+03,8.141898e+02
2.451083e+03,8.189920e+02
2.453976e+03,8.198708e+02
2.456868e+03,8.213428e+02
2.459761e+03,8.161892e+02
2.462654e+03,8.154583e+02
2.465547e+03,8.072328e+02
2.468439e+03,8.034954e+02
2.471332e+03,8.215609e+02
2.474225e+03,8.175300e+02
2.477117e+03,8.135566e+02
2.480010e+03,8.265717e+02
2.482903e+03,8.099613e+02
2.485795e+03,8.108339e+02
2.488688e+03,8.088218e+02
2.491581e+03,7.962223e+02
2.494474e+03,7.992610e+02
2.497366e+03,7.978909e+02
2.500259e+03,7.911351e+02
2.503152e+03,7.922286e+02
2.506044e+03,8.024250e+02
2.508937e+03,7.867293e+02
2.511830e+03,8.048721e+02
2.514722e+03,8.013553e+02
2.517615e+03,7.976553e+02
2.520508e+03,8.085090e+02
2.523401e+03,7.934391e+02
2.526293e+03,7.969213e+02
2.529186e+03,7.762848e+02
2.532079e+03,7.838021e+02
2.534971e+03,7.858923e+02
2.537864e+03,7.845195e+02
2.540757e+03,7.795084e+02
2.543649e+03,7.924914e+02
2.546542e+03,7.940564e+02
2.549435e+03,7.903622e+02
2.552328e+03,7.772682e+02
2.555220e+03,7.969014e+02
2.558113e+03,7.937768e+02
2.561006e+03,7.801268e+02
2.563898e+03,7.835574e+02
2.566791e+03,7.945635e+02
2.569684e+03,7.751059e+02
2.572576e+03,7.922949e+02
2.575469e+03,7.841915e+02
2.578362e+03,7.733221e+02
2.581255e+03,7.717767e+02
2.584147e+03,7.751940e+02
2.587040e+03,7.716085e+02
2.589933e+03,7.738384e+02
2.592825e+03,7.686786e+02
2.595718e+03,7.741129e+02
2.598611e+03,7.626420e+02
2.601503e+03,7.719474e+02
2.604396e+03,7.616396e+02
2.607289e+03,7.756432e+02
2.610182e+03,7.690612e+02
2.613074e+03,7.611985e+02
2.615967e+03,7.505525e+02
2.618860e+03,7.587675e+02
2.621752e+03,7.630236e+02
2.624645e+03,7.662462e+02
2.627538e+03,7.729818e+02
2.630430e+03,7.658954e+02
2.633323e+03,7.471691e+02
2.636216e+03,7.500389e+02
2.639109e+03,7.587402e+02
2.642001e+03,7.637206e+02
2.644894e+03,7.471028e+02
2.647787e+03,7.385829e+02
2.650679e+03,7.511259e+02
2.653572e+03,7.502971e+02
2.656465e+03,7.520624e+02
2.659357e+03,7.471953e+02
2.662250e+03,7.360281e+02
2.665143e+03,7.468146e+02
2.668036e+03,7.462078e+02
2.670928e+03,7.418356e+02
2.673821e+03,7.522198e+02
2.676714e+03,7.503672e+02
2.679606e+03,7.474713e+02
2.682499e+03,7.624763e+02
2.685392e+03,7.313275e+02
2.688284e+03,7.541085e+02
2.691177e+03,7.439304e+02
2.694070e+03,7.265600e+02
2.696963e+03,7.459353e+02
2.699855e+03,7.317694e+02
2.702748e+03,7.444874e+02
2.705641e+03,7.394078e+02
2.708533e+03,7.453489e+02
2.711426e+03,7.330687e+02
2.714319e+03,7.249408e+02
2.717211e+03,7.457223e+02
2.720104e+03,7.261993e+02
2.722997e+03,7.368490e+02
2.725890e+03,7.263800e+02
2.728782e+03,7.369196e+02
2.731675e+03,7.338704e+02
2.734568e+03,7.183813e+02
2.737460e+03,7.302952e+02
2.740353e+03,7.229754e+02
2.743246e+03,7.283719e+02
2.746138e+03,7.255290e+02
2.749031e+03,7.402297e+02
2.751924e+03,7.170624e+02
2.754817e+03,7.139886e+02
2.757709e+03,7.316083e+02
2.760602e+03,7.284315e+02
2.763495e+03,7.209620e+02
2.766387e+03,7.229015e+02
2.769280e+03,7.244269e+02
2.772173e+03,7.112645e+02
2.775065e+03,6.947775e+02
2.777958e+03,7.330894e+02
2.780851e+03,7.147990e+02
2.783744e+03,7.075685e+02
2.786636e+03,7.070890e+02
2.789529e+03,6.924471e+02
2.792422e+03,7.145404e+02
2.795314e+03,7.089083e+02
2.798207e+03,7.203119e+02
2.801100e+03,7.205690e+02
2.803992e+03,6.995831e+02
2.806885e+03,6.850740e+02
2.809778e+03,7.087013e+02
2.812671e+03,7.209883e+02
2.815563e+03,7.002889e+02
2.818456e+03,6.985162e+02
2.821349e+03,6.930745e+02
2.824241e+03,7.089252e+02
2.827134e+03,7.107247e+02
2.830027e+03,7.027269e+02
2.832919e+03,7.097963e+02
2.835812e+03,6.888122e+02
2.838705e+03,7.134225e+02
2.841598e+03,7.139688e+02
2.844490e+03,7.019412e+02
2.847383e+03,6.951218e+02
2.850276e+03,6.921155e+02
2.853168e+03,7.193390e+02
2.856061e+03,7.104237e+02
2.858954e+03,7.054999e+02
2.861846e+03,7.062620e+02
2.864739e+03,7.200424e+02
2.867632e+03,7.223168e+02
2.870525e+03,7.211791e+02
2.873417e+03,7.211350e+02
2.876310e+03,7.129786e+02
2.879203e+03,7.077401e+02
2.882095e+03,7.031960e+02
2.884988e+03,7.222996e+02
2.887881e+03,7.441129e+02
2.890773e+03,7.039822e+02
2.893666e+03,7.116957e+02
2.896559e+03,7.198809e+02
2.899452e+03,7.018198e+02
2.902344e+03,7.035695e+02
2.905237e+03,7.106487e+02
2.908130e+03,7.004577e+02
2.911022e+03,7.072761e+02
2.913915e+03,6.994391e+02
2.916808e+03,6.796795e+02
2.919700e+03,6.958547e+02
2.922593e+03,6.854651e+02
2.925486e+03,6.830631e+02
2.928379e+03,6.643777e+02
2.931271e+03,6.942057e+02
2.934164e+03,7.059516e+02
2.937057e+03,6.904821e+02
2.939949e+03,6.969338e+02
2.942842e+03,6.629203e+02
2.945735e+03,6.729727e+02
2.948627e+03,6.923041e+02
2.951520e+03,6.773109e+02
2.954413e+03,6.916053e+02
2.957306e+03,7.067308e+02
2.960198e+03,6.937728e+02
2.963091e+03,6.682365e+02
2.965984e+03,6.848309e+02
2.968876e+03,6.715177e+02
2.971769e+03,6.975673e+02
2.974662e+03,6.708223e+02
2.977554e+03,6.733615e+02
2.980447e+03,6.886415e+02
2.983340e+03,6.885208e+02
2.986233e+03,6.422366e+02
2.989125e+03,6.683134e+02
2.992018e+03,6.482442e+02
2.994911e+03,6.533845e+02
2.997803e+03,6.571384e+02
3.000696e+03,6.739444e+02
3.003589e+03,6.691824e+02
3.006481e+03,6.448312e+02
3.009374e+03,6.821332e+02
3.012267e+03,6.499125e+02
3.015160e+03,6.546506e+02
3.018052e+03,6.624227e+02
3.020945e+03,6.761522e+02
3.023838e+03,6.458992e+02
3.026730e+03,6.610549e+02
3.029623e+03,6.559647e+02
3.032516e+03,6.464772e+02
3.035408e+03,6.391801e+02
3.038301e+03,6.625624e+02
3.041194e+03,6.379879e+02
3.044087e+03,6.440605e+02
3.046979e+03,6.617685e+02
3.049872e+03,6.591722e+02
3.052765e+03,6.613865e+02
3.055657e+03,6.455078e+02
3.058550e+03,6.496250e+02
3.061443e+03,6.339247e+02
3.064335e+03,6.438192e+02
3.067228e+03,6.343269e+02
3.070121e+03,6.329141e+02
3.073014e+03,6.409574e+02
3.075906e+03,6.532426e+02
3.078799e+03,6.191051e+02
3.081692e+03,6.549464e+02
3.084584e+03,6.524605e+02
3.087477e+03,6.306317e+02
3.090370e+03,6.405255e+02
3.093262e+03,6.359921e+02
3.096155e+03,6.226446e+02
3.099048e+03,6.463292e+02
3.101941e+03,6.199658e+02
3.104833e+03,6.492635e+02
3.107726e+03,6.226163e+02
3.110619e+03,6.320435e+02
3.113511e+03,6.202091e+02
3.116404e+03,6.607890e+02
3.119297e+03,6.298334e+02
3.122189e+03,6.438556e+02
3.125082e+03,6.409882e+02
3.127975e+03,6.394235e+02
3.130868e+03,6.472991e+02
3.133760e+03,6.381252e+02
3.136653e+03,6.402857e+02
3.139546e+03,6.395790e+02
3.142438e+03,6.613030e+02
3.145331e+03,6.450475e+02
3.148224e+03,6.486186e+02
3.151116e+03,6.558763e+02
3.154009e+03,6.573705e+02
3.156902e+03,6.269980e+02
3.159795e+03,6.060146e+02
3.162687e+03,6.260941e+02
3.165580e+03,6.394958e+02
3.168473e+03,6.662327e+02
3.171365e+03,6.630439e+02
3.174258e+03,6.225864e+02
3.177151e+03,6.204554e+02
3.180043e+03,6.384894e+02
3.182936e+03,6.449951e+02
3.185829e+03,6.386607e+02
3.188722e+03,6.713143e+02
3.191614e+03,6.901406e+02
3.194507e+03,6.311046e+02
3.197400e+03,6.454059e+02
3.200292e+03,6.492584e+02
3.203185e+03,0.000000e+00
3.206078e+03,0.000000e+00
3.208970e+03,0.000000e+00
3.211863e+03,0.000000e+00
3.214756e+03,0.000000e+00
3.217649e+03,0.000000e+00
3.220541e+03,0.000000e+00
3.223434e+03,0.000000e+00
3.226327e+03,0.000000e+00
3.229219e+03,0.000000e+00
3.232112e+03,0.000000e+00
3.235005e+03,0.000000e+00
3.237897e+03,0.000000e+00
3.240790e+03,0.000000e+00
3.243683e+03,0.000000e+00
3.246576e+03,0.000000e+00
3.249468e+03,0.000000e+00
3.252361e+03,0.000000e+00
3.255254e+03,0.000000e+00
3.258146e+03,0.000000e+00
3.261039e+03,0.000000e+00
3.263932e+03,0.000000e+00
3.266824e+03,0.000000e+00
3.269717e+03,0.000000e+00
3.272610e+03,0.000000e+00
3.275503e+03,0.000000e+00
3.278395e+03,0.000000e+00
3.281288e+03,0.000000e+00
3.284181e+03,0.000000e+00
3.287073e+03,0.000000e+00
3.289966e+03,0.000000e+00
3.292859e+03,0.000000e+00
3.295751e+03,0.000000e+00
3.298644e+03,0.000000e+00
3.301537e+03,0.000000e+00
3.304430e+03,0.000000e+00
3.307322e+03,0.000000e+00
3.310215e+03,0.000000e+00
3.313108e+03,0.000000e+00
3.316000e+03,0.000000e+00
3.318893e+03,0.000000e+00
3.321786e+03,0.000000e+00
3.324678e+03,0.000000e+00
3.327571e+03,0.000000e+00
3.330464e+03,0.000000e+00
3.333357e+03,0.000000e+00
3.336249e+03,0.000000e+00
3.339142e+03,0.000000e+00
3.342035e+03,0.000000e+00
3.344927e+03,0.000000e+00
3.347820e+03,0.000000e+00
3.350713e+03,0.000000e+00
3.353605e+03,0.000000e+00
3.356498e+03,0.000000e+00
3.359391e+03,0.000000e+00
3.362284e+03,0.000000e+00
3.365176e+03,0.000000e+00
3.368069e+03,0.000000e+00
3.370962e+03,0.000000e+00
3.373854e+03,0.000000e+00
3.376747e+03,0.000000e+00
3.379640e+03,0.000000e+00
3.382532e+03,0.000000e+00
3.385425e+03,0.000000e+00
3.388318e+03,0.000000e+00
3.391211e+03,0.000000e+00
3.394103e+03,0.000000e+00
3.396996e+03,0.000000e+00
3.399889e+03,0.000000e+00
3.402781e+03,0.000000e+00
3.405674e+03,0.000000e+00
3.408567e+03,0.000000e+00
3.411459e+03,0.000000e+00
3.414352e+03,0.000000e+00
3.417245e+03,0.000000e+00
3.420138e+03,0.000000e+00
3.423030e+03,0.000000e+00
3.425923e+03,0.000000e+00
3.428816e+03,0.000000e+00
3.431708e+03,0.000000e+00
3.434601e+03,0.000000e+00
3.437494e+03,0.000000e+00
3.440386e+03,0.000000e+00
3.443279e+03,0.000000e+00
3.446172e+03,0.000000e+00
3.449065e+03,0.000000e+00
3.451957e+03,0.000000e+00
3.454850e+03,0.000000e+00
3.457743e+03,0.000000e+00
3.460635e+03,0.000000e+00
3.463528e+03,0.000000e+00
3.466421e+03,0.000000e+00
3.469313e+03,0.000000e+00
3.472206e+03,0.000000e+00
3.475099e+03,0.000000e+00
3.477992e+03,0.000000e+00
3.480884e+03,0.000000e+00
3.483777e+03,0.000000e+00
3.486670e+03,0.000000e+00
3.489563e+03,0.000000e+00
3.492455e+03,0.000000e+00
3.495348e+03,0.000000e+00
3.498240e+03,0.000000e+00
3.500169e+03,0.000000e+00