File: RAMAN_data/13112023_r2/black fibre3.CSV
9.931763e+01,0.000000e+00
1.022103e+02,0.000000e+00
1.051030e+02,0.000000e+00
1.079957e+02,0.000000e+00
1.108884e+02,0.000000e+00
1.137811e+02,0.000000e+00
1.166738e+02,0.000000e+00
1.195665e+02,0.000000e+00
1.224592e+02,0.000000e+00
1.253519e+02,0.000000e+00
1.282446e+02,0.000000e+00
1.311373e+02,0.000000e+00
1.340300e+02,0.000000e+00
1.369227e+02,0.000000e+00
1.398154e+02,0.000000e+00
1.427081e+02,0.000000e+00
1.456008e+02,0.000000e+00
1.484935e+02,0.000000e+00
1.513862e+02,0.000000e+00
1.542789e+02,0.000000e+00
1.571716e+02,0.000000e+00
1.600643e+02,0.000000e+00
1.629570e+02,0.000000e+00
1.658497e+02,0.000000e+00
1.687424e+02,0.000000e+00
1.716351e+02,0.000000e+00
1.745278e+02,0.000000e+00
1.774205e+02,0.000000e+00
1.803132e+02,0.000000e+00
1.832059e+02,0.000000e+00
1.860986e+02,0.000000e+00
1.889913e+02,0.000000e+00
1.918840e+02,0.000000e+00
1.947767e+02,0.000000e+00
1.976694e+02,0.000000e+00
2.005621e+02,1.696068e+03
2.034548e+02,1.702051e+03
2.063475e+02,1.701488e+03
2.092402e+02,1.708255e+03
2.121329e+02,1.698856e+03
2.150256e+02,1.698600e+03
2.179183e+02,1.714171e+03
2.208110e+02,1.721810e+03
2.237037e+02,1.709383e+03
2.265964e+02,1.701188e+03
2.294892e+02,1.704001e+03
2.323819e+02,1.711284e+03
2.352746e+02,1.716969e+03
2.381673e+02,1.717654e+03
2.410600e+02,1.718047e+03
2.439527e+02,1.709107e+03
2.468454e+02,1.732188e+03
2.497381e+02,1.720210e+03
2.526308e+02,1.714947e+03
2.555235e+02,1.721203e+03
2.584161e+02,1.722114e+03
2.613088e+02,1.723483e+03
2.642015e+02,1.725231e+03
2.670942e+02,1.727175e+03
2.699869e+02,1.733574e+03
2.728796e+02,1.728793e+03
2.757723e+02,1.734286e+03
2.786650e+02,1.735272e+03
2.815577e+02,1.732413e+03
2.844504e+02,1.729478e+03
2.873431e+02,1.737487e+03
2.902358e+02,1.736241e+03
2.931285e+02,1.737806e+03
2.960212e+02,1.742937e+03
2.989139e+02,1.743887e+03
3.018066e+02,1.742343e+03
3.046993e+02,1.746548e+03
3.075920e+02,1.734863e+03
3.104847e+02,1.750777e+03
3.133774e+02,1.741941e+03
3.162701e+02,1.752492e+03
3.191628e+02,1.752898e+03
3.220555e+02,1.748405e+03
3.249482e+02,1.759762e+03
3.278409e+02,1.766059e+03
3.307336e+02,1.763383e+03
3.336263e+02,1.754769e+03
3.365190e+02,1.753639e+03
3.394117e+02,1.753888e+03
3.423044e+02,1.759472e+03
3.451971e+02,1.763044e+03
3.480898e+02,1.759751e+03
3.509825e+02,1.748150e+03
3.538752e+02,1.756237e+03
3.567680e+02,1.756937e+03
3.596607e+02,1.775048e+03
3.625534e+02,1.767702e+03
3.654461e+02,1.765016e+03
3.683388e+02,1.767967e+03
3.712315e+02,1.768456e+03
3.741242e+02,1.768287e+03
3.770169e+02,1.784197e+03
3.799096e+02,1.786341e+03
3.828023e+02,1.780737e+03
3.856950e+02,1.773640e+03
3.885877e+02,1.776782e+03
3.914804e+02,1.756093e+03
3.943731e+02,1.746004e+03
3.972658e+02,1.755474e+03
4.001585e+02,1.755496e+03
4.030512e+02,1.770033e+03
4.059439e+02,1.747572e+03
4.088366e+02,1.758343e+03
4.117293e+02,1.756680e+03
4.146220e+02,1.759815e+03
4.175147e+02,1.763212e+03
4.204074e+02,1.742635e+03
4.233001e+02,1.755042e+03
4.261928e+02,1.757508e+03
4.290855e+02,1.762986e+03
4.319782e+02,1.768850e+03
4.348709e+02,1.776355e+03
4.377636e+02,1.766641e+03
4.406563e+02,1.761323e+03
4.435490e+02,1.759193e+03
4.464417e+02,1.755766e+03
4.493344e+02,1.758985e+03
4.522271e+02,1.756254e+03
4.551198e+02,1.757441e+03
4.580125e+02,1.762114e+03
4.609052e+02,1.750208e+03
4.637979e+02,1.741642e+03
4.666906e+02,1.735219e+03
4.695833e+02,1.733373e+03
4.724760e+02,1.732034e+03
4.753687e+02,1.743376e+03
4.782614e+02,1.738086e+03
4.811541e+02,1.735460e+03
4.840468e+02,1.757811e+03
4.869395e+02,1.755666e+03
4.898322e+02,1.744176e+03
4.927249e+02,1.743833e+03
4.956176e+02,1.753972e+03
4.985103e+02,1.747831e+03
5.014030e+02,1.738929e+03
5.042957e+02,1.746035e+03
5.071884e+02,1.745514e+03
5.100811e+02,1.734752e+03
5.129738e+02,1.738496e+03
5.158665e+02,1.740999e+03
5.187592e+02,1.747471e+03
5.216519e+02,1.731703e+03
5.245446e+02,1.721670e+03
5.274373e+02,1.722694e+03
5.303300e+02,1.723954e+03
5.332227e+02,1.716747e+03
5.361154e+02,1.713440e+03
5.390081e+02,1.706555e+03
5.419008e+02,1.706405e+03
5.447935e+02,1.714998e+03
5.476862e+02,1.721170e+03
5.505789e+02,1.714707e+03
5.534716e+02,1.705385e+03
5.563643e+02,1.714036e+03
5.592570e+02,1.717455e+03
5.621497e+02,1.723510e+03
5.650424e+02,1.720860e+03
5.679351e+02,1.714496e+03
5.708278e+02,1.715495e+03
5.737205e+02,1.721528e+03
5.766132e+02,1.719950e+03
5.795059e+02,1.712984e+03
5.823986e+02,1.693734e+03
5.852913e+02,1.708941e+03
5.881840e+02,1.708968e+03
5.910767e+02,1.699061e+03
5.939694e+02,1.692458e+03
5.968621e+02,1.684709e+03
5.997548e+02,1.692737e+03
6.026475e+02,1.700166e+03
6.055402e+02,1.696454e+03
6.084329e+02,1.693396e+03
6.113256e+02,1.695877e+03
6.142183e+02,1.691864e+03
6.171110e+02,1.685474e+03
6.200037e+02,1.686730e+03
6.228964e+02,1.681425e+03
6.257891e+02,1.689915e+03
6.286818e+02,1.684451e+03
6.315745e+02,1.683811e+03
6.344672e+02,1.684981e+03
6.373599e+02,1.671081e+03
6.402526e+02,1.672619e+03
6.431453e+02,1.673975e+03
6.460380e+02,1.669929e+03
6.489307e+02,1.675090e+03
6.518234e+02,1.682528e+03
6.547161e+02,1.666293e+03
6.576088e+02,1.672482e+03
6.605015e+02,1.661057e+03
6.633942e+02,1.667935e+03
6.662869e+02,1.661395e+03
6.691796e+02,1.668025e+03
6.720723e+02,1.674708e+03
6.749650e+02,1.663004e+03
6.778577e+02,1.646301e+03
6.807504e+02,1.648225e+03
6.836431e+02,1.659156e+03
6.865358e+02,1.649280e+03
6.894285e+02,1.646730e+03
6.923212e+02,1.647644e+03
6.952139e+02,1.643382e+03
6.981066e+02,1.647091e+03
7.009993e+02,1.638648e+03
7.038920e+02,1.638622e+03
7.067847e+02,1.642078e+03
7.096774e+02,1.642449e+03
7.125701e+02,1.644846e+03
7.154628e+02,1.648929e+03
7.183555e+02,1.634928e+03
7.212482e+02,1.632531e+03
7.241409e+02,1.639553e+03
7.270336e+02,1.621900e+03
7.299263e+02,1.639205e+03
7.328190e+02,1.627445e+03
7.357117e+02,1.619404e+03
7.386044e+02,1.612198e+03
7.414971e+02,1.620799e+03
7.443898e+02,1.608413e+03
7.472825e+02,1.615714e+03
7.501752e+02,1.623447e+03
7.530679e+02,1.621185e+03
7.559606e+02,1.618482e+03
7.588533e+02,1.617117e+03
7.617460e+02,1.610367e+03
7.646387e+02,1.593241e+03
7.675314e+02,1.601219e+03
7.704241e+02,1.598110e+03
7.733168e+02,1.597991e+03
7.762095e+02,1.590559e+03
7.791022e+02,1.598430e+03
7.819949e+02,1.597197e+03
7.848876e+02,1.593159e+03
7.877803e+02,1.599851e+03
7.906730e+02,1.584041e+03
7.935657e+02,1.589688e+03
7.964584e+02,1.595953e+03
7.993511e+02,1.578332e+03
8.022438e+02,1.583672e+03
8.051365e+02,1.572835e+03
8.080292e+02,1.574389e+03
8.109219e+02,1.577135e+03
8.138146e+02,1.574424e+03
8.167073e+02,1.580145e+03
8.196000e+02,1.562996e+03
8.224927e+02,1.574125e+03
8.253854e+02,1.580095e+03
8.282781e+02,1.570598e+03
8.311708e+02,1.561038e+03
8.340635e+02,1.550022e+03
8.369562e+02,1.557754e+03
8.398489e+02,1.559430e+03
8.427416e+02,1.562784e+03
8.456343e+02,1.552589e+03
8.485270e+02,1.558070e+03
8.514197e+02,1.546141e+03
8.543124e+02,1.556810e+03
8.572051e+02,1.549096e+03
8.600978e+02,1.558721e+03
8.629905e+02,1.533133e+03
8.658832e+02,1.547376e+03
8.687759e+02,1.545079e+03
8.716686e+02,1.543012e+03
8.745613e+02,1.544414e+03
8.774540e+02,1.545370e+03
8.803467e+02,1.537225e+03
8.832394e+02,1.541343e+03
8.861321e+02,1.537086e+03
8.890248e+02,1.531539e+03
8.919175e+02,1.536311e+03
8.948102e+02,1.525781e+03
8.977029e+02,1.526887e+03
9.005956e+02,1.534559e+03
9.034883e+02,1.516495e+03
9.063810e+02,1.514928e+03
9.092737e+02,1.521961e+03
9.121664e+02,1.521378e+03
9.150591e+02,1.516676e+03
9.179518e+02,1.508560e+03
9.208445e+02,1.507228e+03
9.237372e+02,1.506706e+03
9.266299e+02,1.512831e+03
9.295226e+02,1.518237e+03
9.324153e+02,1.495288e+03
9.353080e+02,1.500713e+03
9.382007e+02,1.488629e+03
9.410934e+02,1.492824e+03
9.439861e+02,1.496334e+03
9.468788e+02,1.497164e+03
9.497715e+02,1.492478e+03
9.526642e+02,1.485498e+03
9.555569e+02,1.477184e+03
9.584496e+02,1.488542e+03
9.613423e+02,1.479232e+03
9.642350e+02,1.472486e+03
9.671277e+02,1.473365e+03
9.700204e+02,1.482348e+03
9.729131e+02,1.473467e+03
9.758058e+02,1.467778e+03
9.786985e+02,1.469766e+03
9.815912e+02,1.468068e+03
9.844839e+02,1.459990e+03
9.873766e+02,1.462043e+03
9.902693e+02,1.467196e+03
9.931620e+02,1.464972e+03
9.960547e+02,1.465629e+03
9.989474e+02,1.465716e+03
1.001840e+03,1.446424e+03
1.004733e+03,1.461311e+03
1.007626e+03,1.463882e+03
1.010518e+03,1.457371e+03
1.013411e+03,1.445107e+03
1.016304e+03,1.457456e+03
1.019196e+03,1.453852e+03
1.022089e+03,1.448971e+03
1.024982e+03,1.442132e+03
1.027875e+03,1.456393e+03
1.030767e+03,1.453204e+03
1.033660e+03,1.447182e+03
1.036552e+03,1.442984e+03
1.039445e+03,1.438910e+03
1.042338e+03,1.441947e+03
1.045231e+03,1.438057e+03
1.048123e+03,1.436886e+03
1.051016e+03,1.441006e+03
1.053909e+03,1.438824e+03
1.056802e+03,1.439218e+03
1.059694e+03,1.430378e+03
1.062587e+03,1.432870e+03
1.065479e+03,1.425484e+03
1.068372e+03,1.431296e+03
1.071265e+03,1.435693e+03
1.074158e+03,1.424223e+03
1.077050e+03,1.424238e+03
1.079943e+03,1.426147e+03
1.082836e+03,1.430596e+03
1.085729e+03,1.434969e+03
1.088621e+03,1.455031e+03
1.091514e+03,1.462003e+03
1.094406e+03,1.456828e+03
1.097299e+03,1.459005e+03
1.100192e+03,1.447401e+03
1.103085e+03,1.431588e+03
1.105977e+03,1.433018e+03
1.108870e+03,1.426980e+03
1.111763e+03,1.437712e+03
1.114656e+03,1.432907e+03
1.117548e+03,1.441412e+03
1.120441e+03,1.448623e+03
1.123334e+03,1.442923e+03
1.126226e+03,1.428433e+03
1.129119e+03,1.431153e+03
1.132012e+03,1.423596e+03
1.134904e+03,1.413502e+03
1.137797e+03,1.407532e+03
1.140690e+03,1.417169e+03
1.143583e+03,1.410092e+03
1.146475e+03,1.409235e+03
1.149368e+03,1.407496e+03
1.152261e+03,1.414498e+03
1.155153e+03,1.401120e+03
1.158046e+03,1.394859e+03
1.160939e+03,1.391281e+03
1.163831e+03,1.390750e+03
1.166724e+03,1.373900e+03
1.169617e+03,1.384076e+03
1.172510e+03,1.377422e+03
1.175402e+03,1.377178e+03
1.178295e+03,1.379676e+03
1.181188e+03,1.373393e+03
1.184080e+03,1.373912e+03
1.186973e+03,1.373745e+03
1.189866e+03,1.371424e+03
1.192758e+03,1.357366e+03
1.195651e+03,1.373567e+03
1.198544e+03,1.367520e+03
1.201437e+03,1.370912e+03
1.204329e+03,1.358726e+03
1.207222e+03,1.360147e+03
1.210115e+03,1.365996e+03
1.213007e+03,1.369330e+03
1.215900e+03,1.363009e+03
1.218793e+03,1.358030e+03
1.221685e+03,1.349812e+03
1.224578e+03,1.362707e+03
1.227471e+03,1.352747e+03
1.230364e+03,1.347513e+03
1.233256e+03,1.345046e+03
1.236149e+03,1.349687e+03
1.239042e+03,1.354054e+03
1.241934e+03,1.352510e+03
1.244827e+03,1.344290e+03
1.247720e+03,1.347070e+03
1.250612e+03,1.342913e+03
1.253505e+03,1.349314e+03
1.256398e+03,1.345105e+03
1.259291e+03,1.349692e+03
1.262183e+03,1.343735e+03
1.265076e+03,1.350313e+03
1.267969e+03,1.338593e+03
1.270861e+03,1.343570e+03
1.273754e+03,1.347673e+03
1.276647e+03,1.340236e+03
1.279539e+03,1.356256e+03
1.282432e+03,1.338664e+03
1.285325e+03,1.350293e+03
1.288218e+03,1.354083e+03
1.291110e+03,1.346580e+03
1.294003e+03,1.337539e+03
1.296896e+03,1.334285e+03
1.299788e+03,1.326178e+03
1.302681e+03,1.327910e+03
1.305574e+03,1.335697e+03
1.308466e+03,1.342778e+03
1.311359e+03,1.327778e+03
1.314252e+03,1.323924e+03
1.317145e+03,1.322177e+03
1.320037e+03,1.334259e+03
1.322930e+03,1.335826e+03
1.325823e+03,1.344155e+03
1.328715e+03,1.335239e+03
1.331608e+03,1.337884e+03
1.334501e+03,1.335684e+03
1.337393e+03,1.335873e+03
1.340286e+03,1.327590e+03
1.343179e+03,1.334977e+03
1.346072e+03,1.317754e+03
1.348964e+03,1.323615e+03
1.351857e+03,1.325585e+03
1.354750e+03,1.320545e+03
1.357642e+03,1.311544e+03
1.360535e+03,1.317916e+03
1.363428e+03,1.316650e+03
1.366320e+03,1.329681e+03
1.369213e+03,1.315292e+03
1.372106e+03,1.306536e+03
1.374999e+03,1.317614e+03
1.377891e+03,1.315763e+03
1.380784e+03,1.320176e+03
1.383677e+03,1.309090e+03
1.386569e+03,1.299928e+03
1.389462e+03,1.296544e+03
1.392355e+03,1.297417e+03
1.395247e+03,1.285471e+03
1.398140e+03,1.293843e+03
1.401033e+03,1.287910e+03
1.403926e+03,1.284301e+03
1.406818e+03,1.283864e+03
1.409711e+03,1.285917e+03
1.412604e+03,1.287731e+03
1.415496e+03,1.289824e+03
1.418389e+03,1.265744e+03
1.421282e+03,1.281551e+03
1.424174e+03,1.262855e+03
1.427067e+03,1.273342e+03
1.429960e+03,1.276834e+03
1.432853e+03,1.263618e+03
1.435745e+03,1.265898e+03
1.438638e+03,1.265635e+03
1.441531e+03,1.263820e+03
1.444423e+03,1.263887e+03
1.447316e+03,1.266335e+03
1.450209e+03,1.247971e+03
1.453101e+03,1.257761e+03
1.455994e+03,1.254649e+03
1.458887e+03,1.254100e+03
1.461780e+03,1.259770e+03
1.464672e+03,1.246526e+03
1.467565e+03,1.251105e+03
1.470458e+03,1.248375e+03
1.473350e+03,1.259240e+03
1.476243e+03,1.243902e+03
1.479136e+03,1.244007e+03
1.482028e+03,1.248406e+03
1.484921e+03,1.228443e+03
1.487814e+03,1.231299e+03
1.490707e+03,1.234100e+03
1.493599e+03,1.237621e+03
1.496492e+03,1.232750e+03
1.499385e+03,1.223484e+03
1.502277e+03,1.237725e+03
1.505170e+03,1.219761e+03
1.508063e+03,1.220052e+03
1.510955e+03,1.226785e+03
1.513848e+03,1.218476e+03
1.516741e+03,1.202724e+03
1.519634e+03,1.225911e+03
1.522526e+03,1.219333e+03
1.525419e+03,1.215813e+03
1.528312e+03,1.207132e+03
1.531204e+03,1.218753e+03
1.534097e+03,1.218302e+03
1.536990e+03,1.216632e+03
1.539882e+03,1.202082e+03
1.542775e+03,1.199868e+03
1.545668e+03,1.206866e+03
1.548561e+03,1.203249e+03
1.551453e+03,1.211468e+03
1.554346e+03,1.209354e+03
1.557239e+03,1.212451e+03
1.560131e+03,1.206917e+03
1.563024e+03,1.204283e+03
1.565917e+03,1.205670e+03
1.568809e+03,1.206459e+03
1.571702e+03,1.202162e+03
1.574595e+03,1.197431e+03
1.577488e+03,1.198485e+03
1.580380e+03,1.213055e+03
1.583273e+03,1.204108e+03
1.586166e+03,1.207776e+03
1.589058e+03,1.197613e+03
1.591951e+03,1.194949e+03
1.594844e+03,1.198685e+03
1.597736e+03,1.197159e+03
1.600629e+03,1.193827e+03
1.603522e+03,1.184474e+03
1.606415e+03,1.177631e+03
1.609307e+03,1.186125e+03
1.612200e+03,1.188408e+03
1.615093e+03,1.180992e+03
1.617985e+03,1.173769e+03
1.620878e+03,1.162011e+03
1.623771e+03,1.158199e+03
1.626663e+03,1.171305e+03
1.629556e+03,1.167293e+03
1.632449e+03,1.163421e+03
1.635342e+03,1.169808e+03
1.638234e+03,1.155843e+03
1.641127e+03,1.156695e+03
1.644020e+03,1.163990e+03
1.646912e+03,1.154862e+03
1.649805e+03,1.152115e+03
1.652698e+03,1.146874e+03
1.655590e+03,1.149025e+03
1.658483e+03,1.123605e+03
1.661376e+03,1.141535e+03
1.664269e+03,1.135382e+03
1.667161e+03,1.135454e+03
1.670054e+03,1.136684e+03
1.672947e+03,1.152109e+03
1.675839e+03,1.128264e+03
1.678732e+03,1.124149e+03
1.681625e+03,1.125344e+03
1.684517e+03,1.132253e+03
1.687410e+03,1.128002e+03
1.690303e+03,1.124632e+03
1.693196e+03,1.102650e+03
1.696088e+03,1.125520e+03
1.698981e+03,1.108609e+03
1.701874e+03,1.111061e+03
1.704766e+03,1.123983e+03
1.707659e+03,1.110258e+03
1.710552e+03,1.104426e+03
1.713444e+03,1.106518e+03
1.716337e+03,1.113625e+03
1.719230e+03,1.106987e+03
1.722123e+03,1.099390e+03
1.725015e+03,1.109287e+03
1.727908e+03,1.105361e+03
1.730801e+03,1.093530e+03
1.733693e+03,1.089577e+03
1.736586e+03,1.088426e+03
1.739479e+03,1.096297e+03
1.742371e+03,1.086393e+03
1.745264e+03,1.079888e+03
1.748157e+03,1.091601e+03
1.751050e+03,1.078323e+03
1.753942e+03,1.087057e+03
1.756835e+03,1.081628e+03
1.759728e+03,1.087869e+03
1.762620e+03,1.070459e+03
1.765513e+03,1.075101e+03
1.768406e+03,1.080033e+03
1.771298e+03,1.073906e+03
1.774191e+03,1.071278e+03
1.777084e+03,1.057704e+03
1.779977e+03,1.067299e+03
1.782869e+03,1.064870e+03
1.785762e+03,1.065055e+03
1.788655e+03,1.066372e+03
1.791547e+03,1.057828e+03
1.794440e+03,1.055073e+03
1.797333e+03,1.035018e+03
1.800225e+03,1.061060e+03
1.803118e+03,1.061172e+03
1.806011e+03,1.053359e+03
1.808904e+03,1.027790e+03
1.811796e+03,1.053567e+03
1.814689e+03,1.051555e+03
1.817582e+03,1.038134e+03
1.820474e+03,1.035586e+03
1.823367e+03,1.030086e+03
1.826260e+03,1.044598e+03
1.829152e+03,1.034233e+03
1.832045e+03,1.029679e+03
1.834938e+03,1.048770e+03
1.837831e+03,1.025821e+03
1.840723e+03,1.024770e+03
1.843616e+03,1.023526e+03
1.846509e+03,9.988879e+02
1.849401e+03,1.022509e+03
1.852294e+03,1.008262e+03
1.855187e+03,1.007680e+03
1.858079e+03,1.003668e+03
1.860972e+03,1.017513e+03
1.863865e+03,9.969149e+02
1.866758e+03,9.964402e+02
1.869650e+03,1.013701e+03
1.872543e+03,1.004042e+03
1.875436e+03,1.005786e+03
1.878328e+03,9.900417e+02
1.881221e+03,9.800363e+02
1.884114e+03,9.921316e+02
1.887006e+03,9.913475e+02
1.889899e+03,9.932465e+02
1.892792e+03,9.830720e+02
1.895685e+03,9.837994e+02
1.898577e+03,9.788156e+02
1.901470e+03,9.758428e+02
1.904363e+03,9.736608e+02
1.907255e+03,9.753881e+02
1.910148e+03,9.795633e+02
1.913041e+03,9.891661e+02
1.915933e+03,9.845053e+02
1.918826e+03,9.564765e+02
1.921719e+03,9.567090e+02
1.924612e+03,9.662387e+02
1.927504e+03,9.615511e+02
1.930397e+03,9.635723e+02
1.933290e+03,9.431722e+02
1.936182e+03,9.582734e+02
1.939075e+03,9.575676e+02
1.941968e+03,9.471525e+02
1.944860e+03,9.580368e+02
1.947753e+03,9.404315e+02
1.950646e+03,9.504828e+02
1.953539e+03,9.448611e+02
1.956431e+03,9.355588e+02
1.959324e+03,9.474241e+02
1.962217e+03,9.398897e+02
1.965109e+03,9.229940e+02
1.968002e+03,9.293344e+02
1.970895e+03,9.416075e+02
1.973787e+03,9.297183e+02
1.976680e+03,9.404217e+02
1.979573e+03,9.299871e+02
1.982466e+03,9.220407e+02
1.985358e+03,9.272298e+02
1.988251e+03,9.256208e+02
1.991144e+03,9.140768e+02
1.994036e+03,9.187000e+02
1.996929e+03,9.125583e+02
1.999822e+03,9.260327e+02
2.002714e+03,9.061934e+02
2.005607e+03,9.005013e+02
2.008500e+03,9.032624e+02
2.011393e+03,8.873212e+02
2.014285e+03,8.975028e+02
2.017178e+03,8.995733e+02
2.020071e+03,8.873596e+02
2.022963e+03,8.923936e+02
2.025856e+03,8.903907e+02
2.028749e+03,8.833099e+02
2.031641e+03,8.935847e+02
2.034534e+03,8.739361e+02
2.037427e+03,8.876266e+02
2.040320e+03,8.808976e+02
2.043212e+03,8.625860e+02
2.046105e+03,8.915027e+02
2.048998e+03,8.721642e+02
2.051890e+03,8.601928e+02
2.054783e+03,8.680398e+02
2.057676e+03,8.637409e+02
2.060568e+03,8.567591e+02
2.063461e+03,8.701234e+02
2.066354e+03,8.631242e+02
2.069247e+03,8.568691e+02
2.072139e+03,8.452253e+02
2.075032e+03,8.542971e+02
2.077925e+03,8.436290e+02
2.080817e+03,8.414914e+02
2.083710e+03,8.470809e+02
2.086603e+03,8.420085e+02
2.089496e+03,8.382623e+02
2.092388e+03,8.439885e+02
2.095281e+03,8.343836e+02
2.098174e+03,8.414950e+02
2.101066e+03,8.342165e+02
2.103959e+03,8.333323e+02
2.106852e+03,8.356683e+02
2.109744e+03,8.329820e+02
2.112637e+03,8.291133e+02
2.115530e+03,8.158909e+02
2.118422e+03,8.191433e+02
2.121315e+03,8.226184e+02
2.124208e+03,8.214171e+02
2.127101e+03,8.212878e+02
2.129993e+03,8.215833e+02
2.132886e+03,8.302344e+02
2.135779e+03,8.083306e+02
2.138671e+03,8.140020e+02
2.141564e+03,7.980681e+02
2.144457e+03,8.070361e+02
2.147350e+03,7.869288e+02
2.150242e+03,8.026921e+02
2.153135e+03,8.049741e+02
2.156028e+03,7.915320e+02
2.158920e+03,8.002141e+02
2.161813e+03,7.917847e+02
2.164706e+03,7.882523e+02
2.167598e+03,7.948830e+02
2.170491e+03,7.834282e+02
2.173384e+03,7.935451e+02
2.176277e+03,7.915852e+02
2.179169e+03,7.782750e+02
2.182062e+03,7.854135e+02
2.184955e+03,7.897244e+02
2.187847e+03,7.688846e+02
2.190740e+03,7.769323e+02
2.193633e+03,7.744572e+02
2.196525e+03,7.732737e+02
2.199418e+03,7.599224e+02
2.202311e+03,7.616403e+02
2.205204e+03,7.605659e+02
2.208096e+03,7.560201e+02
2.210989e+03,7.668791e+02
2.213882e+03,7.536915e+02
2.216774e+03,7.795866e+02
2.219667e+03,7.497786e+02
2.222560e+03,7.508004e+02
2.225452e+03,7.408861e+02
2.228345e+03,7.415926e+02
2.231238e+03,7.463729e+02
2.234131e+03,7.545013e+02
2.237023e+03,7.439382e+02
2.239916e+03,7.402725e+02
2.242809e+03,7.306341e+02
2.245701e+03,7.290585e+02
2.248594e+03,7.326346e+02
2.251487e+03,7.429855e+02
2.254379e+03,7.220429e+02
2.257272e+03,7.223771e+02
2.260165e+03,7.184197e+02
2.263058e+03,7.182494e+02
2.265950e+03,7.273629e+02
2.268843e+03,7.246989e+02
2.271736e+03,7.045590e+02
2.274628e+03,7.132267e+02
2.277521e+03,7.252795e+02
2.280414e+03,7.100156e+02
2.283306e+03,7.223548e+02
2.286199e+03,6.905733e+02
2.289092e+03,7.021928e+02
2.291985e+03,7.055603e+02
2.294877e+03,7.015596e+02
2.297770e+03,7.128384e+02
2.300663e+03,6.934600e+02
2.303555e+03,6.902194e+02
2.306448e+03,6.860559e+02
2.309341e+03,6.966208e+02
2.312233e+03,6.828895e+02
2.315126e+03,6.992348e+02
2.318019e+03,6.909824e+02
2.320912e+03,6.728515e+02
2.323804e+03,6.946027e+02
2.326697e+03,6.966484e+02
2.329590e+03,6.915627e+02
2.332482e+03,6.788263e+02
2.335375e+03,6.840711e+02
2.338268e+03,6.802391e+02
2.341160e+03,6.662623e+02
2.344053e+03,6.790767e+02
2.346946e+03,6.696963e+02
2.349839e+03,6.669963e+02
2.352731e+03,6.654063e+02
2.355624e+03,6.644648e+02
2.358517e+03,6.646533e+02
2.361409e+03,6.747253e+02
2.364302e+03,6.636860e+02
2.367195e+03,6.578447e+02
2.370087e+03,6.556702e+02
2.372980e+03,6.568223e+02
2.375873e+03,6.604981e+02
2.378766e+03,6.515524e+02
2.381658e+03,6.535571e+02
2.384551e+03,6.423662e+02
2.387444e+03,6.522952e+02
2.390336e+03,6.420012e+02
2.393229e+03,6.317787e+02
2.396122e+03,6.399708e+02
2.399014e+03,6.356560e+02
2.401907e+03,6.336306e+02
2.404800e+03,6.406327e+02
2.407693e+03,6.375124e+02
2.410585e+03,6.293273e+02
2.413478e+03,6.366522e+02
2.416371e+03,6.365616e+02
2.419263e+03,6.200634e+02
2.422156e+03,6.223885e+02
2.425049e+03,6.275084e+02
2.427941e+03,6.301786e+02
2.430834e+03,6.208981e+02
2.433727e+03,6.312599e+02
2.436620e+03,6.249664e+02
2.439512e+03,6.233752e+02
2.442405e+03,6.231216e+02
2.445298e+03,6.109046e+02
2.448190e+03,6.103914e+02
2.451083e+03,6.174534e+02
2.453976e+03,6.083629e+02
2.456868e+03,6.002887e+02
2.459761e+03,6.123362e+02
2.462654e+03,6.084636e+02
2.465547e+03,6.016796e+02
2.468439e+03,6.100622e+02
2.471332e+03,6.105975e+02
2.474225e+03,6.077957e+02
2.477117e+03,6.018448e+02
2.480010e+03,6.091882e+02
2.482903e+03,6.057748e+02
2.485795e+03,5.953458e+02
2.488688e+03,5.951838e+02
2.491581e+03,5.909099e+02
2.494474e+03,5.898867e+02
2.497366e+03,5.874803e+02
2.500259e+03,5.872399e+02
2.503152e+03,5.883531e+02
2.506044e+03,5.853646e+02
2.508937e+03,5.922402e+02
2.511830e+03,5.898425e+02
2.514722e+03,5.834471e+02
2.517615e+03,5.785900e+02
2.520508e+03,5.840139e+02
2.523401e+03,5.804156e+02
2.526293e+03,5.657361e+02
2.529186e+03,5.702815e+02
2.532079e+03,5.779515e+02
2.534971e+03,5.824754e+02
2.537864e+03,5.778373e+02
2.540757e+03,5.737638e+02
2.543649e+03,5.599846e+02
2.546542e+03,5.855430e+02
2.549435e+03,5.610139e+02
2.552328e+03,5.726975e+02
2.555220e+03,5.894744e+02
2.558113e+03,5.596543e+02
2.561006e+03,5.781226e+02
2.563898e+03,5.624431e+02
2.566791e+03,5.657145e+02
2.569684e+03,5.669852e+02
2.572576e+03,5.630010e+02
2.575469e+03,5.670756e+02
2.578362e+03,5.669941e+02
2.581255e+03,5.469183e+02
2.584147e+03,5.497557e+02
2.587040e+03,5.536765e+02
2.589933e+03,5.496144e+02
2.592825e+03,5.403663e+02
2.595718e+03,5.560525e+02
2.598611e+03,5.427598e+02
2.601503e+03,5.415303e+02
2.604396e+03,5.426740e+02
2.607289e+03,5.457477e+02
2.610182e+03,5.393903e+02
2.613074e+03,5.337269e+02
2.615967e+03,5.390544e+02
2.618860e+03,5.386110e+02
2.621752e+03,5.454952e+02
2.624645e+03,5.381707e+02
2.627538e+03,5.424014e+02
2.630430e+03,5.322834e+02
2.633323e+03,5.336597e+02
2.636216e+03,5.261767e+02
2.639109e+03,5.310305e+02
2.642001e+03,5.307604e+02
2.644894e+03,5.248604e+02
2.647787e+03,5.143672e+02
2.650679e+03,5.210656e+02
2.653572e+03,5.116950e+02
2.656465e+03,5.265258e+02
2.659357e+03,5.219446e+02
2.662250e+03,5.231444e+02
2.665143e+03,5.258964e+02
2.668036e+03,5.339241e+02
2.670928e+03,5.239770e+02
2.673821e+03,5.242822e+02
2.676714e+03,5.083952e+02
2.679606e+03,5.147250e+02
2.682499e+03,5.225081e+02
2.685392e+03,5.117968e+02
2.688284e+03,5.259363e+02
2.691177e+03,5.235754e+02
2.694070e+03,5.072301e+02
2.696963e+03,5.181276e+02
2.699855e+03,5.164866e+02
2.702748e+03,5.077618e+02
2.705641e+03,4.988020e+02
2.708533e+03,5.217117e+02
2.711426e+03,5.006721e+02
2.714319e+03,5.105458e+02
2.717211e+03,5.056230e+02
2.720104e+03,5.176423e+02
2.722997e+03,5.003175e+02
2.725890e+03,4.857049e+02
2.728782e+03,5.031871e+02
2.731675e+03,4.989220e+02
2.734568e+03,5.071263e+02
2.737460e+03,4.845486e+02
2.740353e+03,5.002322e+02
2.743246e+03,4.868674e+02
2.746138e+03,4.983398e+02
2.749031e+03,4.960363e+02
2.751924e+03,4.972946e+02
2.754817e+03,4.792845e+02
2.757709e+03,5.014659e+02
2.760602e+03,4.877034e+02
2.763495e+03,4.882576e+02
2.766387e+03,4.891959e+02
2.769280e+03,4.930434e+02
2.772173e+03,4.894528e+02
2.775065e+03,4.873768e+02
2.777958e+03,4.758613e+02
2.780851e+03,4.962189e+02
2.783744e+03,4.895622e+02
2.786636e+03,4.727464e+02
2.789529e+03,4.801696e+02
2.792422e+03,4.842471e+02
2.795314e+03,4.839380e+02
2.798207e+03,4.882538e+02
2.801100e+03,4.797210e+02
2.803992e+03,4.788821e+02
2.806885e+03,4.836687e+02
2.809778e+03,4.860508e+02
2.812671e+03,4.791549e+02
2.815563e+03,4.709576e+02
2.818456e+03,4.552272e+02
2.821349e+03,4.719423e+02
2.824241e+03,4.734130e+02
2.827134e+03,4.619375e+02
2.830027e+03,4.664654e+02
2.832919e+03,4.671383e+02
2.835812e+03,4.677706e+02
2.838705e+03,4.878416e+02
2.841598e+03,4.848691e+02
2.844490e+03,4.696440e+02
2.847383e+03,4.735573e+02
2.850276e+03,4.836147e+02
2.853168e+03,4.808540e+02
2.856061e+03,4.904707e+02
2.858954e+03,4.776217e+02
2.861846e+03,4.893775e+02
2.864739e+03,4.725302e+02
2.867632e+03,5.016022e+02
2.870525e+03,4.941491e+02
2.873417e+03,5.036554e+02
2.876310e+03,5.080738e+02
2.879203e+03,4.797153e+02
2.882095e+03,4.993708e+02
2.884988e+03,4.919235e+02
2.887881e+03,5.136901e+02
2.890773e+03,4.950864e+02
2.893666e+03,5.135044e+02
2.896559e+03,5.111426e+02
2.899452e+03,4.998422e+02
2.902344e+03,4.890858e+02
2.905237e+03,4.815576e+02
2.908130e+03,4.817246e+02
2.911022e+03,4.983684e+02
2.913915e+03,4.629881e+02
2.916808e+03,4.695573e+02
2.919700e+03,4.664557e+02
2.922593e+03,4.807369e+02
2.925486e+03,4.795450e+02
2.928379e+03,4.709803e+02
2.931271e+03,4.600944e+02
2.934164e+03,4.775949e+02
2.937057e+03,4.633281e+02
2.939949e+03,4.503459e+02
2.942842e+03,4.489736e+02
2.945735e+03,4.625946e+02
2.948627e+03,4.529322e+02
2.951520e+03,4.540862e+02
2.954413e+03,4.382940e+02
2.957306e+03,4.751230e+02
2.960198e+03,4.615356e+02
2.963091e+03,4.361495e+02
2.965984e+03,4.466335e+02
2.968876e+03,4.510065e+02
2.971769e+03,4.325243e+02
2.974662e+03,4.499736e+02
2.977554e+03,4.624993e+02
2.980447e+03,4.243581e+02
2.983340e+03,4.248121e+02
2.986233e+03,4.278833e+02
2.989125e+03,4.093647e+02
2.992018e+03,4.351247e+02
2.994911e+03,4.100144e+02
2.997803e+03,4.253534e+02
3.000696e+03,4.331169e+02
3.003589e+03,4.249398e+02
3.006481e+03,4.315668e+02
3.009374e+03,4.106065e+02
3.012267e+03,4.406569e+02
3.015160e+03,4.278868e+02
3.018052e+03,4.247766e+02
3.020945e+03,4.045736e+02
3.023838e+03,3.919518e+02
3.026730e+03,4.070780e+02
3.029623e+03,4.061108e+02
3.032516e+03,4.084706e+02
3.035408e+03,3.809634e+02
3.038301e+03,3.938815e+02
3.041194e+03,4.176174e+02
3.044087e+03,3.732162e+02
3.046979e+03,4.118376e+02
3.049872e+03,4.051946e+02
3.052765e+03,3.964974e+02
3.055657e+03,4.021455e+02
3.058550e+03,4.027819e+02
3.061443e+03,4.085060e+02
3.064335e+03,4.138596e+02
3.067228e+03,3.911768e+02
3.070121e+03,4.296093e+02
3.073014e+03,4.139574e+02
3.075906e+03,3.922124e+02
3.078799e+03,4.085677e+02
3.081692e+03,3.964033e+02
3.084584e+03,4.093895e+02
3.087477e+03,4.072238e+02
3.090370e+03,4.099574e+02
3.093262e+03,3.950898e+02
3.096155e+03,3.969634e+02
3.099048e+03,4.107753e+02
3.101941e+03,3.934722e+02
3.104833e+03,4.084999e+02
3.107726e+03,4.094510e+02
3.110619e+03,4.142986e+02
3.113511e+03,3.881682e+02
3.116404e+03,3.915112e+02
3.119297e+03,4.012784e+02
3.122189e+03,4.035103e+02
3.125082e+03,4.260753e+02
3.127975e+03,4.118965e+02
3.130868e+03,4.118803e+02
3.133760e+03,4.101525e+02
3.136653e+03,3.963329e+02
3.139546e+03,4.093628e+02
3.142438e+03,4.007104e+02
3.145331e+03,3.672572e+02
3.148224e+03,3.850461e+02
3.151116e+03,3.815213e+02
3.154009e+03,4.167846e+02
3.156902e+03,3.814124e+02
3.159795e+03,3.822890e+02
3.162687e+03,3.879951e+02
3.165580e+03,4.125831e+02
3.168473e+03,4.235728e+02
3.171365e+03,4.091518e+02
3.174258e+03,3.883232e+02
3.177151e+03,3.846634e+02
3.180043e+03,3.782865e+02
3.182936e+03,3.944702e+02
3.185829e+03,4.228932e+02
3.188722e+03,3.922020e+02
3.191614e+03,3.982925e+02
3.194507e+03,4.147187e+02
3.197400e+03,3.811292e+02
3.200292e+03,4.161683e+02
3.203185e+03,0.000000e+00
3.206078e+03,0.000000e+00
3.208970e+03,0.000000e+00
3.211863e+03,0.000000e+00
3.214756e+03,0.000000e+00
3.217649e+03,0.000000e+00
3.220541e+03,0.000000e+00
3.223434e+03,0.000000e+00
3.226327e+03,0.000000e+00
3.229219e+03,0.000000e+00
3.232112e+03,0.000000e+00
3.235005e+03,0.000000e+00
3.237897e+03,0.000000e+00
3.240790e+03,0.000000e+00
3.243683e+03,0.000000e+00
3.246576e+03,0.000000e+00
3.249468e+03,0.000000e+00
3.252361e+03,0.000000e+00
3.255254e+03,0.000000e+00
3.258146e+03,0.000000e+00
3.261039e+03,0.000000e+00
3.263932e+03,0.000000e+00
3.266824e+03,0.000000e+00
3.269717e+03,0.000000e+00
3.272610e+03,0.000000e+00
3.275503e+03,0.000000e+00
3.278395e+03,0.000000e+00
3.281288e+03,0.000000e+00
3.284181e+03,0.000000e+00
3.287073e+03,0.000000e+00
3.289966e+03,0.000000e+00
3.292859e+03,0.000000e+00
3.295751e+03,0.000000e+00
3.298644e+03,0.000000e+00
3.301537e+03,0.000000e+00
3.304430e+03,0.000000e+00
3.307322e+03,0.000000e+00
3.310215e+03,0.000000e+00
3.313108e+03,0.000000e+00
3.316000e+03,0.000000e+00
3.318893e+03,0.000000e+00
3.321786e+03,0.000000e+00
3.324678e+03,0.000000e+00
3.327571e+03,0.000000e+00
3.330464e+03,0.000000e+00
3.333357e+03,0.000000e+00
3.336249e+03,0.000000e+00
3.339142e+03,0.000000e+00
3.342035e+03,0.000000e+00
3.344927e+03,0.000000e+00
3.347820e+03,0.000000e+00
3.350713e+03,0.000000e+00
3.353605e+03,0.000000e+00
3.356498e+03,0.000000e+00
3.359391e+03,0.000000e+00
3.362284e+03,0.000000e+00
3.365176e+03,0.000000e+00
3.368069e+03,0.000000e+00
3.370962e+03,0.000000e+00
3.373854e+03,0.000000e+00
3.376747e+03,0.000000e+00
3.379640e+03,0.000000e+00
3.382532e+03,0.000000e+00
3.385425e+03,0.000000e+00
3.388318e+03,0.000000e+00
3.391211e+03,0.000000e+00
3.394103e+03,0.000000e+00
3.396996e+03,0.000000e+00
3.399889e+03,0.000000e+00
3.402781e+03,0.000000e+00
3.405674e+03,0.000000e+00
3.408567e+03,0.000000e+00
3.411459e+03,0.000000e+00
3.414352e+03,0.000000e+00
3.417245e+03,0.000000e+00
3.420138e+03,0.000000e+00
3.423030e+03,0.000000e+00
3.425923e+03,0.000000e+00
3.428816e+03,0.000000e+00
3.431708e+03,0.000000e+00
3.434601e+03,0.000000e+00
3.437494e+03,0.000000e+00
3.440386e+03,0.000000e+00
3.443279e+03,0.000000e+00
3.446172e+03,0.000000e+00
3.449065e+03,0.000000e+00
3.451957e+03,0.000000e+00
3.454850e+03,0.000000e+00
3.457743e+03,0.000000e+00
3.460635e+03,0.000000e+00
3.463528e+03,0.000000e+00
3.466421e+03,0.000000e+00
3.469313e+03,0.000000e+00
3.472206e+03,0.000000e+00
3.475099e+03,0.000000e+00
3.477992e+03,0.000000e+00
3.480884e+03,0.000000e+00
3.483777e+03,0.000000e+00
3.486670e+03,0.000000e+00
3.489563e+03,0.000000e+00
3.492455e+03,0.000000e+00
3.495348e+03,0.000000e+00
3.498240e+03,0.000000e+00
3.500169e+03,0.000000e+00