File: RAMAN_data/13112023_r2/blue frag9.CSV
9.931763e+01,0.000000e+00
1.022103e+02,0.000000e+00
1.051030e+02,0.000000e+00
1.079957e+02,0.000000e+00
1.108884e+02,0.000000e+00
1.137811e+02,0.000000e+00
1.166738e+02,0.000000e+00
1.195665e+02,0.000000e+00
1.224592e+02,0.000000e+00
1.253519e+02,0.000000e+00
1.282446e+02,0.000000e+00
1.311373e+02,0.000000e+00
1.340300e+02,0.000000e+00
1.369227e+02,0.000000e+00
1.398154e+02,0.000000e+00
1.427081e+02,0.000000e+00
1.456008e+02,0.000000e+00
1.484935e+02,0.000000e+00
1.513862e+02,0.000000e+00
1.542789e+02,0.000000e+00
1.571716e+02,0.000000e+00
1.600643e+02,0.000000e+00
1.629570e+02,0.000000e+00
1.658497e+02,0.000000e+00
1.687424e+02,0.000000e+00
1.716351e+02,0.000000e+00
1.745278e+02,0.000000e+00
1.774205e+02,0.000000e+00
1.803132e+02,0.000000e+00
1.832059e+02,0.000000e+00
1.860986e+02,0.000000e+00
1.889913e+02,0.000000e+00
1.918840e+02,0.000000e+00
1.947767e+02,0.000000e+00
1.976694e+02,0.000000e+00
2.005621e+02,9.090412e+03
2.034548e+02,9.117182e+03
2.063475e+02,9.141467e+03
2.092402e+02,9.152348e+03
2.121329e+02,9.164882e+03
2.150256e+02,9.215080e+03
2.179183e+02,9.221597e+03
2.208110e+02,9.244524e+03
2.237037e+02,9.273021e+03
2.265964e+02,9.226448e+03
2.294892e+02,9.260938e+03
2.323819e+02,9.294663e+03
2.352746e+02,9.313024e+03
2.381673e+02,9.364213e+03
2.410600e+02,9.336794e+03
2.439527e+02,9.347166e+03
2.468454e+02,9.379501e+03
2.497381e+02,9.403319e+03
2.526308e+02,9.391669e+03
2.555235e+02,9.428330e+03
2.584161e+02,9.433387e+03
2.613088e+02,9.454561e+03
2.642015e+02,9.494658e+03
2.670942e+02,9.514941e+03
2.699869e+02,9.533659e+03
2.728796e+02,9.513550e+03
2.757723e+02,9.557979e+03
2.786650e+02,9.577526e+03
2.815577e+02,9.606935e+03
2.844504e+02,9.657763e+03
2.873431e+02,9.652134e+03
2.902358e+02,9.653721e+03
2.931285e+02,9.687740e+03
2.960212e+02,9.691813e+03
2.989139e+02,9.700840e+03
3.018066e+02,9.727862e+03
3.046993e+02,9.720166e+03
3.075920e+02,9.745093e+03
3.104847e+02,9.778272e+03
3.133774e+02,9.785015e+03
3.162701e+02,9.821829e+03
3.191628e+02,9.828018e+03
3.220555e+02,9.826162e+03
3.249482e+02,9.859299e+03
3.278409e+02,9.859063e+03
3.307336e+02,9.894400e+03
3.336263e+02,9.901512e+03
3.365190e+02,9.884993e+03
3.394117e+02,9.924567e+03
3.423044e+02,9.944550e+03
3.451971e+02,9.959302e+03
3.480898e+02,9.991140e+03
3.509825e+02,9.973507e+03
3.538752e+02,1.000290e+04
3.567680e+02,1.001243e+04
3.596607e+02,1.006071e+04
3.625534e+02,1.006376e+04
3.654461e+02,1.004530e+04
3.683388e+02,1.001803e+04
3.712315e+02,1.010634e+04
3.741242e+02,1.010837e+04
3.770169e+02,1.014268e+04
3.799096e+02,1.016017e+04
3.828023e+02,1.012528e+04
3.856950e+02,1.014177e+04
3.885877e+02,1.015255e+04
3.914804e+02,1.018073e+04
3.943731e+02,1.018695e+04
3.972658e+02,1.016320e+04
4.001585e+02,1.015336e+04
4.030512e+02,1.023330e+04
4.059439e+02,1.021542e+04
4.088366e+02,1.023949e+04
4.117293e+02,1.024137e+04
4.146220e+02,1.023592e+04
4.175147e+02,1.027520e+04
4.204074e+02,1.026175e+04
4.233001e+02,1.030085e+04
4.261928e+02,1.029708e+04
4.290855e+02,1.030933e+04
4.319782e+02,1.034159e+04
4.348709e+02,1.034118e+04
4.377636e+02,1.036841e+04
4.406563e+02,1.036644e+04
4.435490e+02,1.032732e+04
4.464417e+02,1.034392e+04
4.493344e+02,1.041725e+04
4.522271e+02,1.038833e+04
4.551198e+02,1.039952e+04
4.580125e+02,1.039102e+04
4.609052e+02,1.038650e+04
4.637979e+02,1.040259e+04
4.666906e+02,1.043553e+04
4.695833e+02,1.040853e+04
4.724760e+02,1.040301e+04
4.753687e+02,1.043036e+04
4.782614e+02,1.043207e+04
4.811541e+02,1.047455e+04
4.840468e+02,1.048180e+04
4.869395e+02,1.047576e+04
4.898322e+02,1.047502e+04
4.927249e+02,1.050358e+04
4.956176e+02,1.052847e+04
4.985103e+02,1.052219e+04
5.014030e+02,1.053468e+04
5.042957e+02,1.055753e+04
5.071884e+02,1.053336e+04
5.100811e+02,1.049968e+04
5.129738e+02,1.051505e+04
5.158665e+02,1.056096e+04
5.187592e+02,1.057120e+04
5.216519e+02,1.054930e+04
5.245446e+02,1.052502e+04
5.274373e+02,1.057927e+04
5.303300e+02,1.058456e+04
5.332227e+02,1.055207e+04
5.361154e+02,1.057595e+04
5.390081e+02,1.055412e+04
5.419008e+02,1.059923e+04
5.447935e+02,1.062403e+04
5.476862e+02,1.063872e+04
5.505789e+02,1.060016e+04
5.534716e+02,1.057092e+04
5.563643e+02,1.059545e+04
5.592570e+02,1.063123e+04
5.621497e+02,1.064358e+04
5.650424e+02,1.064370e+04
5.679351e+02,1.062411e+04
5.708278e+02,1.059875e+04
5.737205e+02,1.063852e+04
5.766132e+02,1.067219e+04
5.795059e+02,1.066839e+04
5.823986e+02,1.065949e+04
5.852913e+02,1.066639e+04
5.881840e+02,1.066770e+04
5.910767e+02,1.067395e+04
5.939694e+02,1.067867e+04
5.968621e+02,1.069245e+04
5.997548e+02,1.066584e+04
6.026475e+02,1.074785e+04
6.055402e+02,1.072907e+04
6.084329e+02,1.071612e+04
6.113256e+02,1.072240e+04
6.142183e+02,1.069095e+04
6.171110e+02,1.068289e+04
6.200037e+02,1.069235e+04
6.228964e+02,1.073979e+04
6.257891e+02,1.075348e+04
6.286818e+02,1.073888e+04
6.315745e+02,1.073908e+04
6.344672e+02,1.076159e+04
6.373599e+02,1.071283e+04
6.402526e+02,1.074206e+04
6.431453e+02,1.072623e+04
6.460380e+02,1.072423e+04
6.489307e+02,1.075250e+04
6.518234e+02,1.076825e+04
6.547161e+02,1.074882e+04
6.576088e+02,1.074235e+04
6.605015e+02,1.069346e+04
6.633942e+02,1.075212e+04
6.662869e+02,1.074429e+04
6.691796e+02,1.078235e+04
6.720723e+02,1.075184e+04
6.749650e+02,1.076421e+04
6.778577e+02,1.072919e+04
6.807504e+02,1.071052e+04
6.836431e+02,1.074377e+04
6.865358e+02,1.073081e+04
6.894285e+02,1.073831e+04
6.923212e+02,1.076651e+04
6.952139e+02,1.074657e+04
6.981066e+02,1.073886e+04
7.009993e+02,1.077488e+04
7.038920e+02,1.077240e+04
7.067847e+02,1.076822e+04
7.096774e+02,1.075486e+04
7.125701e+02,1.076798e+04
7.154628e+02,1.077998e+04
7.183555e+02,1.076587e+04
7.212482e+02,1.071896e+04
7.241409e+02,1.075332e+04
7.270336e+02,1.075366e+04
7.299263e+02,1.074569e+04
7.328190e+02,1.071256e+04
7.357117e+02,1.073876e+04
7.386044e+02,1.068695e+04
7.414971e+02,1.072890e+04
7.443898e+02,1.077560e+04
7.472825e+02,1.080357e+04
7.501752e+02,1.074801e+04
7.530679e+02,1.072654e+04
7.559606e+02,1.067148e+04
7.588533e+02,1.071306e+04
7.617460e+02,1.071758e+04
7.646387e+02,1.066354e+04
7.675314e+02,1.066154e+04
7.704241e+02,1.063075e+04
7.733168e+02,1.062039e+04
7.762095e+02,1.064893e+04
7.791022e+02,1.068338e+04
7.819949e+02,1.068482e+04
7.848876e+02,1.066090e+04
7.877803e+02,1.065796e+04
7.906730e+02,1.065394e+04
7.935657e+02,1.061426e+04
7.964584e+02,1.063410e+04
7.993511e+02,1.063842e+04
8.022438e+02,1.062631e+04
8.051365e+02,1.064963e+04
8.080292e+02,1.063962e+04
8.109219e+02,1.063031e+04
8.138146e+02,1.062965e+04
8.167073e+02,1.061998e+04
8.196000e+02,1.063833e+04
8.224927e+02,1.059141e+04
8.253854e+02,1.056983e+04
8.282781e+02,1.061799e+04
8.311708e+02,1.058123e+04
8.340635e+02,1.060110e+04
8.369562e+02,1.059266e+04
8.398489e+02,1.057690e+04
8.427416e+02,1.059538e+04
8.456343e+02,1.055206e+04
8.485270e+02,1.053933e+04
8.514197e+02,1.055408e+04
8.543124e+02,1.055526e+04
8.572051e+02,1.054031e+04
8.600978e+02,1.055549e+04
8.629905e+02,1.053416e+04
8.658832e+02,1.048595e+04
8.687759e+02,1.052130e+04
8.716686e+02,1.050744e+04
8.745613e+02,1.047672e+04
8.774540e+02,1.047113e+04
8.803467e+02,1.049243e+04
8.832394e+02,1.052266e+04
8.861321e+02,1.050941e+04
8.890248e+02,1.049737e+04
8.919175e+02,1.054354e+04
8.948102e+02,1.045641e+04
8.977029e+02,1.045175e+04
9.005956e+02,1.042274e+04
9.034883e+02,1.047223e+04
9.063810e+02,1.039058e+04
9.092737e+02,1.043306e+04
9.121664e+02,1.045047e+04
9.150591e+02,1.042273e+04
9.179518e+02,1.042246e+04
9.208445e+02,1.037837e+04
9.237372e+02,1.037704e+04
9.266299e+02,1.039123e+04
9.295226e+02,1.036856e+04
9.324153e+02,1.038131e+04
9.353080e+02,1.034539e+04
9.382007e+02,1.032119e+04
9.410934e+02,1.032142e+04
9.439861e+02,1.028881e+04
9.468788e+02,1.034222e+04
9.497715e+02,1.031592e+04
9.526642e+02,1.030589e+04
9.555569e+02,1.029722e+04
9.584496e+02,1.026564e+04
9.613423e+02,1.027139e+04
9.642350e+02,1.028574e+04
9.671277e+02,1.028411e+04
9.700204e+02,1.026876e+04
9.729131e+02,1.023115e+04
9.758058e+02,1.023750e+04
9.786985e+02,1.024126e+04
9.815912e+02,1.020490e+04
9.844839e+02,1.018501e+04
9.873766e+02,1.019281e+04
9.902693e+02,1.017471e+04
9.931620e+02,1.015961e+04
9.960547e+02,1.021111e+04
9.989474e+02,1.020728e+04
1.001840e+03,1.016122e+04
1.004733e+03,1.012853e+04
1.007626e+03,1.015550e+04
1.010518e+03,1.016691e+04
1.013411e+03,1.014228e+04
1.016304e+03,1.012342e+04
1.019196e+03,1.008310e+04
1.022089e+03,1.011207e+04
1.024982e+03,1.009609e+04
1.027875e+03,1.010835e+04
1.030767e+03,1.007464e+04
1.033660e+03,1.007962e+04
1.036552e+03,1.008343e+04
1.039445e+03,1.008967e+04
1.042338e+03,1.005746e+04
1.045231e+03,1.004783e+04
1.048123e+03,1.002658e+04
1.051016e+03,1.004306e+04
1.053909e+03,1.001751e+04
1.056802e+03,1.003365e+04
1.059694e+03,1.001721e+04
1.062587e+03,9.972723e+03
1.065479e+03,9.964259e+03
1.068372e+03,1.000126e+04
1.071265e+03,9.992855e+03
1.074158e+03,1.001837e+04
1.077050e+03,9.964825e+03
1.079943e+03,9.962959e+03
1.082836e+03,9.997297e+03
1.085729e+03,9.970012e+03
1.088621e+03,9.993307e+03
1.091514e+03,9.981373e+03
1.094406e+03,9.927799e+03
1.097299e+03,9.914775e+03
1.100192e+03,9.914156e+03
1.103085e+03,9.913815e+03
1.105977e+03,9.896313e+03
1.108870e+03,9.885226e+03
1.111763e+03,9.882827e+03
1.114656e+03,9.876679e+03
1.117548e+03,9.913094e+03
1.120441e+03,9.891449e+03
1.123334e+03,9.855468e+03
1.126226e+03,9.839409e+03
1.129119e+03,9.828005e+03
1.132012e+03,9.844053e+03
1.134904e+03,9.839128e+03
1.137797e+03,9.806672e+03
1.140690e+03,9.805553e+03
1.143583e+03,9.834609e+03
1.146475e+03,9.802145e+03
1.149368e+03,9.776215e+03
1.152261e+03,9.810262e+03
1.155153e+03,9.780525e+03
1.158046e+03,9.755394e+03
1.160939e+03,9.759101e+03
1.163831e+03,9.747021e+03
1.166724e+03,9.728287e+03
1.169617e+03,9.712855e+03
1.172510e+03,9.682767e+03
1.175402e+03,9.710161e+03
1.178295e+03,9.683029e+03
1.181188e+03,9.703307e+03
1.184080e+03,9.664952e+03
1.186973e+03,9.608712e+03
1.189866e+03,9.661294e+03
1.192758e+03,9.661484e+03
1.195651e+03,9.650457e+03
1.198544e+03,9.650369e+03
1.201437e+03,9.600675e+03
1.204329e+03,9.610284e+03
1.207222e+03,9.604744e+03
1.210115e+03,9.633710e+03
1.213007e+03,9.617986e+03
1.215900e+03,9.568150e+03
1.218793e+03,9.562854e+03
1.221685e+03,9.533923e+03
1.224578e+03,9.526849e+03
1.227471e+03,9.521776e+03
1.230364e+03,9.497356e+03
1.233256e+03,9.457291e+03
1.236149e+03,9.447896e+03
1.239042e+03,9.470646e+03
1.241934e+03,9.476004e+03
1.244827e+03,9.465515e+03
1.247720e+03,9.451293e+03
1.250612e+03,9.449165e+03
1.253505e+03,9.461288e+03
1.256398e+03,9.460295e+03
1.259291e+03,9.421832e+03
1.262183e+03,9.411933e+03
1.265076e+03,9.426638e+03
1.267969e+03,9.413480e+03
1.270861e+03,9.409582e+03
1.273754e+03,9.397202e+03
1.276647e+03,9.391999e+03
1.279539e+03,9.365469e+03
1.282432e+03,9.351186e+03
1.285325e+03,9.384315e+03
1.288218e+03,9.368585e+03
1.291110e+03,9.347286e+03
1.294003e+03,9.327995e+03
1.296896e+03,9.312027e+03
1.299788e+03,9.319589e+03
1.302681e+03,9.302639e+03
1.305574e+03,9.309715e+03
1.308466e+03,9.301436e+03
1.311359e+03,9.262480e+03
1.314252e+03,9.253438e+03
1.317145e+03,9.267983e+03
1.320037e+03,9.272821e+03
1.322930e+03,9.264255e+03
1.325823e+03,9.252440e+03
1.328715e+03,9.248491e+03
1.331608e+03,9.273684e+03
1.334501e+03,9.301455e+03
1.337393e+03,9.292938e+03
1.340286e+03,9.270835e+03
1.343179e+03,9.223978e+03
1.346072e+03,9.219755e+03
1.348964e+03,9.200804e+03
1.351857e+03,9.210281e+03
1.354750e+03,9.186403e+03
1.357642e+03,9.141501e+03
1.360535e+03,9.142862e+03
1.363428e+03,9.147136e+03
1.366320e+03,9.144035e+03
1.369213e+03,9.131182e+03
1.372106e+03,9.091458e+03
1.374999e+03,9.079859e+03
1.377891e+03,9.099368e+03
1.380784e+03,9.108073e+03
1.383677e+03,9.076697e+03
1.386569e+03,9.085669e+03
1.389462e+03,9.052385e+03
1.392355e+03,9.031122e+03
1.395247e+03,9.006355e+03
1.398140e+03,9.023987e+03
1.401033e+03,9.023504e+03
1.403926e+03,8.975389e+03
1.406818e+03,8.979530e+03
1.409711e+03,8.997876e+03
1.412604e+03,8.995761e+03
1.415496e+03,8.977688e+03
1.418389e+03,8.975218e+03
1.421282e+03,8.935310e+03
1.424174e+03,8.913546e+03
1.427067e+03,8.930111e+03
1.429960e+03,8.939937e+03
1.432853e+03,8.883515e+03
1.435745e+03,8.880881e+03
1.438638e+03,8.869446e+03
1.441531e+03,8.897036e+03
1.444423e+03,8.871554e+03
1.447316e+03,8.861563e+03
1.450209e+03,8.846433e+03
1.453101e+03,8.822894e+03
1.455994e+03,8.848101e+03
1.458887e+03,8.840949e+03
1.461780e+03,8.817692e+03
1.464672e+03,8.774408e+03
1.467565e+03,8.772513e+03
1.470458e+03,8.764736e+03
1.473350e+03,8.748434e+03
1.476243e+03,8.770318e+03
1.479136e+03,8.740316e+03
1.482028e+03,8.700664e+03
1.484921e+03,8.698322e+03
1.487814e+03,8.714004e+03
1.490707e+03,8.679113e+03
1.493599e+03,8.670754e+03
1.496492e+03,8.684090e+03
1.499385e+03,8.645769e+03
1.502277e+03,8.650052e+03
1.505170e+03,8.678499e+03
1.508063e+03,8.672020e+03
1.510955e+03,8.622866e+03
1.513848e+03,8.609735e+03
1.516741e+03,8.602661e+03
1.519634e+03,8.627264e+03
1.522526e+03,8.623574e+03
1.525419e+03,8.646497e+03
1.528312e+03,8.615219e+03
1.531204e+03,8.621462e+03
1.534097e+03,8.650278e+03
1.536990e+03,8.606982e+03
1.539882e+03,8.599301e+03
1.542775e+03,8.572909e+03
1.545668e+03,8.549689e+03
1.548561e+03,8.549387e+03
1.551453e+03,8.525956e+03
1.554346e+03,8.492698e+03
1.557239e+03,8.478762e+03
1.560131e+03,8.471371e+03
1.563024e+03,8.448178e+03
1.565917e+03,8.429459e+03
1.568809e+03,8.423611e+03
1.571702e+03,8.435344e+03
1.574595e+03,8.395551e+03
1.577488e+03,8.401636e+03
1.580380e+03,8.406253e+03
1.583273e+03,8.383508e+03
1.586166e+03,8.329929e+03
1.589058e+03,8.320897e+03
1.591951e+03,8.345944e+03
1.594844e+03,8.299486e+03
1.597736e+03,8.317435e+03
1.600629e+03,8.294222e+03
1.603522e+03,8.256514e+03
1.606415e+03,8.264157e+03
1.609307e+03,8.242604e+03
1.612200e+03,8.268379e+03
1.615093e+03,8.253839e+03
1.617985e+03,8.251227e+03
1.620878e+03,8.192865e+03
1.623771e+03,8.189417e+03
1.626663e+03,8.180801e+03
1.629556e+03,8.187729e+03
1.632449e+03,8.115626e+03
1.635342e+03,8.115903e+03
1.638234e+03,8.107756e+03
1.641127e+03,8.108044e+03
1.644020e+03,8.094932e+03
1.646912e+03,8.077284e+03
1.649805e+03,8.078468e+03
1.652698e+03,8.054833e+03
1.655590e+03,8.059779e+03
1.658483e+03,8.024958e+03
1.661376e+03,8.008462e+03
1.664269e+03,7.981896e+03
1.667161e+03,8.006354e+03
1.670054e+03,7.949755e+03
1.672947e+03,7.963884e+03
1.675839e+03,7.980893e+03
1.678732e+03,7.939800e+03
1.681625e+03,7.922127e+03
1.684517e+03,7.919226e+03
1.687410e+03,7.906397e+03
1.690303e+03,7.896364e+03
1.693196e+03,7.905397e+03
1.696088e+03,7.910040e+03
1.698981e+03,7.883180e+03
1.701874e+03,7.833638e+03
1.704766e+03,7.842874e+03
1.707659e+03,7.849334e+03
1.710552e+03,7.838612e+03
1.713444e+03,7.788692e+03
1.716337e+03,7.804897e+03
1.719230e+03,7.727737e+03
1.722123e+03,7.753175e+03
1.725015e+03,7.748049e+03
1.727908e+03,7.721362e+03
1.730801e+03,7.736743e+03
1.733693e+03,7.687034e+03
1.736586e+03,7.686366e+03
1.739479e+03,7.665125e+03
1.742371e+03,7.663367e+03
1.745264e+03,7.658613e+03
1.748157e+03,7.648030e+03
1.751050e+03,7.630998e+03
1.753942e+03,7.636522e+03
1.756835e+03,7.639615e+03
1.759728e+03,7.590094e+03
1.762620e+03,7.577271e+03
1.765513e+03,7.561045e+03
1.768406e+03,7.562744e+03
1.771298e+03,7.536187e+03
1.774191e+03,7.544367e+03
1.777084e+03,7.545915e+03
1.779977e+03,7.519215e+03
1.782869e+03,7.482306e+03
1.785762e+03,7.495322e+03
1.788655e+03,7.463596e+03
1.791547e+03,7.428500e+03
1.794440e+03,7.446493e+03
1.797333e+03,7.417776e+03
1.800225e+03,7.427575e+03
1.803118e+03,7.430148e+03
1.806011e+03,7.347102e+03
1.808904e+03,7.361153e+03
1.811796e+03,7.377125e+03
1.814689e+03,7.365469e+03
1.817582e+03,7.348499e+03
1.820474e+03,7.334487e+03
1.823367e+03,7.296686e+03
1.826260e+03,7.343307e+03
1.829152e+03,7.291711e+03
1.832045e+03,7.275196e+03
1.834938e+03,7.320838e+03
1.837831e+03,7.274544e+03
1.840723e+03,7.212521e+03
1.843616e+03,7.254858e+03
1.846509e+03,7.241065e+03
1.849401e+03,7.211859e+03
1.852294e+03,7.182129e+03
1.855187e+03,7.165680e+03
1.858079e+03,7.166003e+03
1.860972e+03,7.126506e+03
1.863865e+03,7.127500e+03
1.866758e+03,7.106835e+03
1.869650e+03,7.119867e+03
1.872543e+03,7.103158e+03
1.875436e+03,7.154837e+03
1.878328e+03,7.091837e+03
1.881221e+03,7.046215e+03
1.884114e+03,7.032519e+03
1.887006e+03,7.005922e+03
1.889899e+03,7.026787e+03
1.892792e+03,7.004651e+03
1.895685e+03,7.017931e+03
1.898577e+03,7.002956e+03
1.901470e+03,6.974979e+03
1.904363e+03,6.927006e+03
1.907255e+03,6.934087e+03
1.910148e+03,6.939447e+03
1.913041e+03,6.897991e+03
1.915933e+03,6.886261e+03
1.918826e+03,6.897378e+03
1.921719e+03,6.882542e+03
1.924612e+03,6.866601e+03
1.927504e+03,6.831925e+03
1.930397e+03,6.800750e+03
1.933290e+03,6.814489e+03
1.936182e+03,6.827280e+03
1.939075e+03,6.824523e+03
1.941968e+03,6.784419e+03
1.944860e+03,6.767611e+03
1.947753e+03,6.740895e+03
1.950646e+03,6.704374e+03
1.953539e+03,6.749157e+03
1.956431e+03,6.714217e+03
1.959324e+03,6.689749e+03
1.962217e+03,6.690146e+03
1.965109e+03,6.655502e+03
1.968002e+03,6.686255e+03
1.970895e+03,6.658421e+03
1.973787e+03,6.625745e+03
1.976680e+03,6.607223e+03
1.979573e+03,6.626044e+03
1.982466e+03,6.607550e+03
1.985358e+03,6.584873e+03
1.988251e+03,6.582830e+03
1.991144e+03,6.566326e+03
1.994036e+03,6.547952e+03
1.996929e+03,6.530074e+03
1.999822e+03,6.509550e+03
2.002714e+03,6.480797e+03
2.005607e+03,6.488486e+03
2.008500e+03,6.477753e+03
2.011393e+03,6.424852e+03
2.014285e+03,6.451794e+03
2.017178e+03,6.478151e+03
2.020071e+03,6.401774e+03
2.022963e+03,6.420739e+03
2.025856e+03,6.367014e+03
2.028749e+03,6.387330e+03
2.031641e+03,6.372550e+03
2.034534e+03,6.368838e+03
2.037427e+03,6.326793e+03
2.040320e+03,6.299921e+03
2.043212e+03,6.309948e+03
2.046105e+03,6.315098e+03
2.048998e+03,6.301031e+03
2.051890e+03,6.266060e+03
2.054783e+03,6.232405e+03
2.057676e+03,6.240947e+03
2.060568e+03,6.243661e+03
2.063461e+03,6.212991e+03
2.066354e+03,6.215637e+03
2.069247e+03,6.164881e+03
2.072139e+03,6.102192e+03
2.075032e+03,6.148049e+03
2.077925e+03,6.158921e+03
2.080817e+03,6.134159e+03
2.083710e+03,6.124753e+03
2.086603e+03,6.063500e+03
2.089496e+03,6.068516e+03
2.092388e+03,6.064354e+03
2.095281e+03,6.049533e+03
2.098174e+03,6.054704e+03
2.101066e+03,6.004850e+03
2.103959e+03,5.982126e+03
2.106852e+03,5.996203e+03
2.109744e+03,5.963389e+03
2.112637e+03,5.971002e+03
2.115530e+03,5.971771e+03
2.118422e+03,5.908775e+03
2.121315e+03,5.950299e+03
2.124208e+03,5.919755e+03
2.127101e+03,5.867041e+03
2.129993e+03,5.834774e+03
2.132886e+03,5.863047e+03
2.135779e+03,5.886770e+03
2.138671e+03,5.853177e+03
2.141564e+03,5.812087e+03
2.144457e+03,5.835000e+03
2.147350e+03,5.779621e+03
2.150242e+03,5.781513e+03
2.153135e+03,5.802498e+03
2.156028e+03,5.778914e+03
2.158920e+03,5.743310e+03
2.161813e+03,5.734919e+03
2.164706e+03,5.756095e+03
2.167598e+03,5.677813e+03
2.170491e+03,5.725139e+03
2.173384e+03,5.704555e+03
2.176277e+03,5.670697e+03
2.179169e+03,5.656726e+03
2.182062e+03,5.619313e+03
2.184955e+03,5.645682e+03
2.187847e+03,5.632637e+03
2.190740e+03,5.613089e+03
2.193633e+03,5.583354e+03
2.196525e+03,5.595341e+03
2.199418e+03,5.586476e+03
2.202311e+03,5.570969e+03
2.205204e+03,5.551158e+03
2.208096e+03,5.551737e+03
2.210989e+03,5.471570e+03
2.213882e+03,5.465089e+03
2.216774e+03,5.523851e+03
2.219667e+03,5.501296e+03
2.222560e+03,5.476904e+03
2.225452e+03,5.412323e+03
2.228345e+03,5.419170e+03
2.231238e+03,5.421554e+03
2.234131e+03,5.423452e+03
2.237023e+03,5.414646e+03
2.239916e+03,5.392239e+03
2.242809e+03,5.353188e+03
2.245701e+03,5.363687e+03
2.248594e+03,5.347231e+03
2.251487e+03,5.332136e+03
2.254379e+03,5.325485e+03
2.257272e+03,5.263472e+03
2.260165e+03,5.299839e+03
2.263058e+03,5.249481e+03
2.265950e+03,5.228646e+03
2.268843e+03,5.238347e+03
2.271736e+03,5.189029e+03
2.274628e+03,5.220978e+03
2.277521e+03,5.216716e+03
2.280414e+03,5.196423e+03
2.283306e+03,5.192166e+03
2.286199e+03,5.149042e+03
2.289092e+03,5.147985e+03
2.291985e+03,5.120700e+03
2.294877e+03,5.145287e+03
2.297770e+03,5.150937e+03
2.300663e+03,5.130557e+03
2.303555e+03,5.079651e+03
2.306448e+03,5.066099e+03
2.309341e+03,5.031303e+03
2.312233e+03,5.061784e+03
2.315126e+03,5.045904e+03
2.318019e+03,4.990755e+03
2.320912e+03,5.019012e+03
2.323804e+03,5.031833e+03
2.326697e+03,5.014875e+03
2.329590e+03,4.994976e+03
2.332482e+03,4.942962e+03
2.335375e+03,4.961689e+03
2.338268e+03,4.957542e+03
2.341160e+03,4.940821e+03
2.344053e+03,4.929991e+03
2.346946e+03,4.922546e+03
2.349839e+03,4.910931e+03
2.352731e+03,4.859862e+03
2.355624e+03,4.907421e+03
2.358517e+03,4.887906e+03
2.361409e+03,4.884291e+03
2.364302e+03,4.830935e+03
2.367195e+03,4.831361e+03
2.370087e+03,4.830087e+03
2.372980e+03,4.805717e+03
2.375873e+03,4.818599e+03
2.378766e+03,4.789280e+03
2.381658e+03,4.761775e+03
2.384551e+03,4.743162e+03
2.387444e+03,4.738573e+03
2.390336e+03,4.745046e+03
2.393229e+03,4.721962e+03
2.396122e+03,4.710374e+03
2.399014e+03,4.683639e+03
2.401907e+03,4.725686e+03
2.404800e+03,4.667750e+03
2.407693e+03,4.696841e+03
2.410585e+03,4.638058e+03
2.413478e+03,4.613516e+03
2.416371e+03,4.619393e+03
2.419263e+03,4.576267e+03
2.422156e+03,4.606034e+03
2.425049e+03,4.612792e+03
2.427941e+03,4.576955e+03
2.430834e+03,4.560026e+03
2.433727e+03,4.548955e+03
2.436620e+03,4.561910e+03
2.439512e+03,4.516752e+03
2.442405e+03,4.495248e+03
2.445298e+03,4.524989e+03
2.448190e+03,4.491646e+03
2.451083e+03,4.528070e+03
2.453976e+03,4.494591e+03
2.456868e+03,4.470448e+03
2.459761e+03,4.471243e+03
2.462654e+03,4.465742e+03
2.465547e+03,4.453880e+03
2.468439e+03,4.437499e+03
2.471332e+03,4.401236e+03
2.474225e+03,4.378692e+03
2.477117e+03,4.393303e+03
2.480010e+03,4.418469e+03
2.482903e+03,4.399413e+03
2.485795e+03,4.392728e+03
2.488688e+03,4.364735e+03
2.491581e+03,4.388888e+03
2.494474e+03,4.335824e+03
2.497366e+03,4.327452e+03
2.500259e+03,4.333994e+03
2.503152e+03,4.323184e+03
2.506044e+03,4.311489e+03
2.508937e+03,4.311175e+03
2.511830e+03,4.304818e+03
2.514722e+03,4.275530e+03
2.517615e+03,4.289330e+03
2.520508e+03,4.253207e+03
2.523401e+03,4.243097e+03
2.526293e+03,4.259600e+03
2.529186e+03,4.247678e+03
2.532079e+03,4.211020e+03
2.534971e+03,4.194616e+03
2.537864e+03,4.197120e+03
2.540757e+03,4.198037e+03
2.543649e+03,4.166880e+03
2.546542e+03,4.198377e+03
2.549435e+03,4.151712e+03
2.552328e+03,4.134655e+03
2.555220e+03,4.112565e+03
2.558113e+03,4.168483e+03
2.561006e+03,4.134092e+03
2.563898e+03,4.125594e+03
2.566791e+03,4.093576e+03
2.569684e+03,4.092963e+03
2.572576e+03,4.081352e+03
2.575469e+03,4.093979e+03
2.578362e+03,4.102333e+03
2.581255e+03,4.076808e+03
2.584147e+03,4.045565e+03
2.587040e+03,4.019583e+03
2.589933e+03,4.033013e+03
2.592825e+03,4.017130e+03
2.595718e+03,4.006683e+03
2.598611e+03,3.990962e+03
2.601503e+03,3.981614e+03
2.604396e+03,4.006184e+03
2.607289e+03,3.947185e+03
2.610182e+03,3.936556e+03
2.613074e+03,3.949866e+03
2.615967e+03,3.962673e+03
2.618860e+03,3.937238e+03
2.621752e+03,3.933828e+03
2.624645e+03,3.912673e+03
2.627538e+03,3.910613e+03
2.630430e+03,3.875602e+03
2.633323e+03,3.889223e+03
2.636216e+03,3.880780e+03
2.639109e+03,3.911395e+03
2.642001e+03,3.898755e+03
2.644894e+03,3.880434e+03
2.647787e+03,3.828519e+03
2.650679e+03,3.847186e+03
2.653572e+03,3.847073e+03
2.656465e+03,3.851687e+03
2.659357e+03,3.798385e+03
2.662250e+03,3.801117e+03
2.665143e+03,3.838584e+03
2.668036e+03,3.787580e+03
2.670928e+03,3.774741e+03
2.673821e+03,3.777994e+03
2.676714e+03,3.745840e+03
2.679606e+03,3.754266e+03
2.682499e+03,3.733533e+03
2.685392e+03,3.748053e+03
2.688284e+03,3.714740e+03
2.691177e+03,3.716405e+03
2.694070e+03,3.708755e+03
2.696963e+03,3.706746e+03
2.699855e+03,3.687407e+03
2.702748e+03,3.691607e+03
2.705641e+03,3.689754e+03
2.708533e+03,3.677104e+03
2.711426e+03,3.639653e+03
2.714319e+03,3.686379e+03
2.717211e+03,3.668552e+03
2.720104e+03,3.657320e+03
2.722997e+03,3.616495e+03
2.725890e+03,3.623097e+03
2.728782e+03,3.639528e+03
2.731675e+03,3.594620e+03
2.734568e+03,3.642296e+03
2.737460e+03,3.615372e+03
2.740353e+03,3.597694e+03
2.743246e+03,3.596198e+03
2.746138e+03,3.586177e+03
2.749031e+03,3.587579e+03
2.751924e+03,3.615847e+03
2.754817e+03,3.563686e+03
2.757709e+03,3.524238e+03
2.760602e+03,3.533151e+03
2.763495e+03,3.521587e+03
2.766387e+03,3.533606e+03
2.769280e+03,3.547466e+03
2.772173e+03,3.549972e+03
2.775065e+03,3.473763e+03
2.777958e+03,3.493997e+03
2.780851e+03,3.482951e+03
2.783744e+03,3.480630e+03
2.786636e+03,3.454839e+03
2.789529e+03,3.459719e+03
2.792422e+03,3.471452e+03
2.795314e+03,3.436243e+03
2.798207e+03,3.465990e+03
2.801100e+03,3.434552e+03
2.803992e+03,3.436952e+03
2.806885e+03,3.407029e+03
2.809778e+03,3.392943e+03
2.812671e+03,3.369799e+03
2.815563e+03,3.435626e+03
2.818456e+03,3.397441e+03
2.821349e+03,3.400613e+03
2.824241e+03,3.397224e+03
2.827134e+03,3.360091e+03
2.830027e+03,3.325451e+03
2.832919e+03,3.385443e+03
2.835812e+03,3.344545e+03
2.838705e+03,3.358629e+03
2.841598e+03,3.373231e+03
2.844490e+03,3.306461e+03
2.847383e+03,3.314524e+03
2.850276e+03,3.330975e+03
2.853168e+03,3.325495e+03
2.856061e+03,3.304728e+03
2.858954e+03,3.326568e+03
2.861846e+03,3.310192e+03
2.864739e+03,3.291323e+03
2.867632e+03,3.266878e+03
2.870525e+03,3.292470e+03
2.873417e+03,3.301062e+03
2.876310e+03,3.310064e+03
2.879203e+03,3.253489e+03
2.882095e+03,3.259964e+03
2.884988e+03,3.253771e+03
2.887881e+03,3.285932e+03
2.890773e+03,3.270121e+03
2.893666e+03,3.258139e+03
2.896559e+03,3.222939e+03
2.899452e+03,3.261988e+03
2.902344e+03,3.249221e+03
2.905237e+03,3.246278e+03
2.908130e+03,3.241003e+03
2.911022e+03,3.216323e+03
2.913915e+03,3.215741e+03
2.916808e+03,3.176245e+03
2.919700e+03,3.186748e+03
2.922593e+03,3.174822e+03
2.925486e+03,3.180844e+03
2.928379e+03,3.157924e+03
2.931271e+03,3.178359e+03
2.934164e+03,3.188276e+03
2.937057e+03,3.118983e+03
2.939949e+03,3.144961e+03
2.942842e+03,3.087823e+03
2.945735e+03,3.163872e+03
2.948627e+03,3.150997e+03
2.951520e+03,3.067728e+03
2.954413e+03,3.083220e+03
2.957306e+03,3.146968e+03
2.960198e+03,3.080706e+03
2.963091e+03,3.082270e+03
2.965984e+03,3.130823e+03
2.968876e+03,3.063608e+03
2.971769e+03,3.047762e+03
2.974662e+03,3.066420e+03
2.977554e+03,3.051592e+03
2.980447e+03,3.060384e+03
2.983340e+03,3.055370e+03
2.986233e+03,3.059971e+03
2.989125e+03,3.021284e+03
2.992018e+03,3.053866e+03
2.994911e+03,3.018286e+03
2.997803e+03,3.019522e+03
3.000696e+03,2.976565e+03
3.003589e+03,2.990104e+03
3.006481e+03,3.004176e+03
3.009374e+03,3.049376e+03
3.012267e+03,2.958283e+03
3.015160e+03,2.941971e+03
3.018052e+03,2.935543e+03
3.020945e+03,2.982004e+03
3.023838e+03,2.968056e+03
3.026730e+03,2.942016e+03
3.029623e+03,2.936857e+03
3.032516e+03,2.924521e+03
3.035408e+03,2.900891e+03
3.038301e+03,2.914788e+03
3.041194e+03,2.918611e+03
3.044087e+03,2.988028e+03
3.046979e+03,2.953262e+03
3.049872e+03,2.911969e+03
3.052765e+03,2.910416e+03
3.055657e+03,2.893980e+03
3.058550e+03,2.922144e+03
3.061443e+03,2.887104e+03
3.064335e+03,2.891833e+03
3.067228e+03,2.852865e+03
3.070121e+03,2.950703e+03
3.073014e+03,2.864444e+03
3.075906e+03,2.882851e+03
3.078799e+03,2.863004e+03
3.081692e+03,2.858730e+03
3.084584e+03,2.821243e+03
3.087477e+03,2.844404e+03
3.090370e+03,2.887458e+03
3.093262e+03,2.902054e+03
3.096155e+03,2.827673e+03
3.099048e+03,2.789032e+03
3.101941e+03,2.874820e+03
3.104833e+03,2.874172e+03
3.107726e+03,2.788655e+03
3.110619e+03,2.855834e+03
3.113511e+03,2.834231e+03
3.116404e+03,2.835643e+03
3.119297e+03,2.810243e+03
3.122189e+03,2.837189e+03
3.125082e+03,2.841170e+03
3.127975e+03,2.840371e+03
3.130868e+03,2.819167e+03
3.133760e+03,2.863589e+03
3.136653e+03,2.785531e+03
3.139546e+03,2.844773e+03
3.142438e+03,2.843561e+03
3.145331e+03,2.777079e+03
3.148224e+03,2.743219e+03
3.151116e+03,2.783796e+03
3.154009e+03,2.813030e+03
3.156902e+03,2.818922e+03
3.159795e+03,2.847214e+03
3.162687e+03,2.780049e+03
3.165580e+03,2.834957e+03
3.168473e+03,2.820050e+03
3.171365e+03,2.776750e+03
3.174258e+03,2.792461e+03
3.177151e+03,2.795803e+03
3.180043e+03,2.814543e+03
3.182936e+03,2.807605e+03
3.185829e+03,2.777143e+03
3.188722e+03,2.797036e+03
3.191614e+03,2.832706e+03
3.194507e+03,2.746381e+03
3.197400e+03,2.783029e+03
3.200292e+03,2.823181e+03
3.203185e+03,0.000000e+00
3.206078e+03,0.000000e+00
3.208970e+03,0.000000e+00
3.211863e+03,0.000000e+00
3.214756e+03,0.000000e+00
3.217649e+03,0.000000e+00
3.220541e+03,0.000000e+00
3.223434e+03,0.000000e+00
3.226327e+03,0.000000e+00
3.229219e+03,0.000000e+00
3.232112e+03,0.000000e+00
3.235005e+03,0.000000e+00
3.237897e+03,0.000000e+00
3.240790e+03,0.000000e+00
3.243683e+03,0.000000e+00
3.246576e+03,0.000000e+00
3.249468e+03,0.000000e+00
3.252361e+03,0.000000e+00
3.255254e+03,0.000000e+00
3.258146e+03,0.000000e+00
3.261039e+03,0.000000e+00
3.263932e+03,0.000000e+00
3.266824e+03,0.000000e+00
3.269717e+03,0.000000e+00
3.272610e+03,0.000000e+00
3.275503e+03,0.000000e+00
3.278395e+03,0.000000e+00
3.281288e+03,0.000000e+00
3.284181e+03,0.000000e+00
3.287073e+03,0.000000e+00
3.289966e+03,0.000000e+00
3.292859e+03,0.000000e+00
3.295751e+03,0.000000e+00
3.298644e+03,0.000000e+00
3.301537e+03,0.000000e+00
3.304430e+03,0.000000e+00
3.307322e+03,0.000000e+00
3.310215e+03,0.000000e+00
3.313108e+03,0.000000e+00
3.316000e+03,0.000000e+00
3.318893e+03,0.000000e+00
3.321786e+03,0.000000e+00
3.324678e+03,0.000000e+00
3.327571e+03,0.000000e+00
3.330464e+03,0.000000e+00
3.333357e+03,0.000000e+00
3.336249e+03,0.000000e+00
3.339142e+03,0.000000e+00
3.342035e+03,0.000000e+00
3.344927e+03,0.000000e+00
3.347820e+03,0.000000e+00
3.350713e+03,0.000000e+00
3.353605e+03,0.000000e+00
3.356498e+03,0.000000e+00
3.359391e+03,0.000000e+00
3.362284e+03,0.000000e+00
3.365176e+03,0.000000e+00
3.368069e+03,0.000000e+00
3.370962e+03,0.000000e+00
3.373854e+03,0.000000e+00
3.376747e+03,0.000000e+00
3.379640e+03,0.000000e+00
3.382532e+03,0.000000e+00
3.385425e+03,0.000000e+00
3.388318e+03,0.000000e+00
3.391211e+03,0.000000e+00
3.394103e+03,0.000000e+00
3.396996e+03,0.000000e+00
3.399889e+03,0.000000e+00
3.402781e+03,0.000000e+00
3.405674e+03,0.000000e+00
3.408567e+03,0.000000e+00
3.411459e+03,0.000000e+00
3.414352e+03,0.000000e+00
3.417245e+03,0.000000e+00
3.420138e+03,0.000000e+00
3.423030e+03,0.000000e+00
3.425923e+03,0.000000e+00
3.428816e+03,0.000000e+00
3.431708e+03,0.000000e+00
3.434601e+03,0.000000e+00
3.437494e+03,0.000000e+00
3.440386e+03,0.000000e+00
3.443279e+03,0.000000e+00
3.446172e+03,0.000000e+00
3.449065e+03,0.000000e+00
3.451957e+03,0.000000e+00
3.454850e+03,0.000000e+00
3.457743e+03,0.000000e+00
3.460635e+03,0.000000e+00
3.463528e+03,0.000000e+00
3.466421e+03,0.000000e+00
3.469313e+03,0.000000e+00
3.472206e+03,0.000000e+00
3.475099e+03,0.000000e+00
3.477992e+03,0.000000e+00
3.480884e+03,0.000000e+00
3.483777e+03,0.000000e+00
3.486670e+03,0.000000e+00
3.489563e+03,0.000000e+00
3.492455e+03,0.000000e+00
3.495348e+03,0.000000e+00
3.498240e+03,0.000000e+00
3.500169e+03,0.000000e+00