File: RAMAN_data/13112023_r2/blue frag2.CSV
9.931763e+01,0.000000e+00
1.022103e+02,0.000000e+00
1.051030e+02,0.000000e+00
1.079957e+02,0.000000e+00
1.108884e+02,0.000000e+00
1.137811e+02,0.000000e+00
1.166738e+02,0.000000e+00
1.195665e+02,0.000000e+00
1.224592e+02,0.000000e+00
1.253519e+02,0.000000e+00
1.282446e+02,0.000000e+00
1.311373e+02,0.000000e+00
1.340300e+02,0.000000e+00
1.369227e+02,0.000000e+00
1.398154e+02,0.000000e+00
1.427081e+02,0.000000e+00
1.456008e+02,0.000000e+00
1.484935e+02,0.000000e+00
1.513862e+02,0.000000e+00
1.542789e+02,0.000000e+00
1.571716e+02,0.000000e+00
1.600643e+02,0.000000e+00
1.629570e+02,0.000000e+00
1.658497e+02,0.000000e+00
1.687424e+02,0.000000e+00
1.716351e+02,0.000000e+00
1.745278e+02,0.000000e+00
1.774205e+02,0.000000e+00
1.803132e+02,0.000000e+00
1.832059e+02,0.000000e+00
1.860986e+02,0.000000e+00
1.889913e+02,0.000000e+00
1.918840e+02,0.000000e+00
1.947767e+02,0.000000e+00
1.976694e+02,0.000000e+00
2.005621e+02,1.047899e+04
2.034548e+02,1.051899e+04
2.063475e+02,1.054891e+04
2.092402e+02,1.054938e+04
2.121329e+02,1.055037e+04
2.150256e+02,1.057905e+04
2.179183e+02,1.060927e+04
2.208110e+02,1.066068e+04
2.237037e+02,1.067604e+04
2.265964e+02,1.068651e+04
2.294892e+02,1.071479e+04
2.323819e+02,1.076347e+04
2.352746e+02,1.080069e+04
2.381673e+02,1.083713e+04
2.410600e+02,1.083247e+04
2.439527e+02,1.084990e+04
2.468454e+02,1.088676e+04
2.497381e+02,1.092278e+04
2.526308e+02,1.095922e+04
2.555235e+02,1.097428e+04
2.584161e+02,1.097618e+04
2.613088e+02,1.101875e+04
2.642015e+02,1.107090e+04
2.670942e+02,1.109680e+04
2.699869e+02,1.113129e+04
2.728796e+02,1.114345e+04
2.757723e+02,1.118588e+04
2.786650e+02,1.122837e+04
2.815577e+02,1.125757e+04
2.844504e+02,1.128443e+04
2.873431e+02,1.128894e+04
2.902358e+02,1.131662e+04
2.931285e+02,1.134527e+04
2.960212e+02,1.138987e+04
2.989139e+02,1.141438e+04
3.018066e+02,1.143403e+04
3.046993e+02,1.146588e+04
3.075920e+02,1.148845e+04
3.104847e+02,1.152735e+04
3.133774e+02,1.157835e+04
3.162701e+02,1.159458e+04
3.191628e+02,1.160775e+04
3.220555e+02,1.163998e+04
3.249482e+02,1.168473e+04
3.278409e+02,1.172350e+04
3.307336e+02,1.175910e+04
3.336263e+02,1.178434e+04
3.365190e+02,1.179563e+04
3.394117e+02,1.184454e+04
3.423044e+02,1.188976e+04
3.451971e+02,1.195046e+04
3.480898e+02,1.197444e+04
3.509825e+02,1.198815e+04
3.538752e+02,1.203829e+04
3.567680e+02,1.208699e+04
3.596607e+02,1.212620e+04
3.625534e+02,1.216527e+04
3.654461e+02,1.215099e+04
3.683388e+02,1.217619e+04
3.712315e+02,1.223918e+04
3.741242e+02,1.227458e+04
3.770169e+02,1.231110e+04
3.799096e+02,1.235298e+04
3.828023e+02,1.236815e+04
3.856950e+02,1.240989e+04
3.885877e+02,1.246675e+04
3.914804e+02,1.251700e+04
3.943731e+02,1.254452e+04
3.972658e+02,1.257093e+04
4.001585e+02,1.259455e+04
4.030512e+02,1.265127e+04
4.059439e+02,1.268371e+04
4.088366e+02,1.272614e+04
4.117293e+02,1.274362e+04
4.146220e+02,1.277177e+04
4.175147e+02,1.281287e+04
4.204074e+02,1.285215e+04
4.233001e+02,1.288550e+04
4.261928e+02,1.290769e+04
4.290855e+02,1.294545e+04
4.319782e+02,1.298619e+04
4.348709e+02,1.304495e+04
4.377636e+02,1.309429e+04
4.406563e+02,1.313490e+04
4.435490e+02,1.317557e+04
4.464417e+02,1.321596e+04
4.493344e+02,1.326363e+04
4.522271e+02,1.329423e+04
4.551198e+02,1.332356e+04
4.580125e+02,1.333318e+04
4.609052e+02,1.337746e+04
4.637979e+02,1.340270e+04
4.666906e+02,1.342675e+04
4.695833e+02,1.347341e+04
4.724760e+02,1.351124e+04
4.753687e+02,1.353445e+04
4.782614e+02,1.356081e+04
4.811541e+02,1.360224e+04
4.840468e+02,1.364769e+04
4.869395e+02,1.368037e+04
4.898322e+02,1.370541e+04
4.927249e+02,1.374474e+04
4.956176e+02,1.378795e+04
4.985103e+02,1.383418e+04
5.014030e+02,1.385629e+04
5.042957e+02,1.387491e+04
5.071884e+02,1.389021e+04
5.100811e+02,1.391298e+04
5.129738e+02,1.394550e+04
5.158665e+02,1.399692e+04
5.187592e+02,1.401215e+04
5.216519e+02,1.400737e+04
5.245446e+02,1.405473e+04
5.274373e+02,1.410203e+04
5.303300e+02,1.412631e+04
5.332227e+02,1.412495e+04
5.361154e+02,1.414645e+04
5.390081e+02,1.416972e+04
5.419008e+02,1.421837e+04
5.447935e+02,1.426084e+04
5.476862e+02,1.428283e+04
5.505789e+02,1.428556e+04
5.534716e+02,1.427678e+04
5.563643e+02,1.431946e+04
5.592570e+02,1.435454e+04
5.621497e+02,1.439837e+04
5.650424e+02,1.440425e+04
5.679351e+02,1.440188e+04
5.708278e+02,1.441501e+04
5.737205e+02,1.446632e+04
5.766132e+02,1.451403e+04
5.795059e+02,1.453861e+04
5.823986e+02,1.455699e+04
5.852913e+02,1.457575e+04
5.881840e+02,1.461467e+04
5.910767e+02,1.465716e+04
5.939694e+02,1.469887e+04
5.968621e+02,1.471280e+04
5.997548e+02,1.472232e+04
6.026475e+02,1.474915e+04
6.055402e+02,1.479449e+04
6.084329e+02,1.480358e+04
6.113256e+02,1.479925e+04
6.142183e+02,1.479783e+04
6.171110e+02,1.480373e+04
6.200037e+02,1.484330e+04
6.228964e+02,1.487319e+04
6.257891e+02,1.490916e+04
6.286818e+02,1.490022e+04
6.315745e+02,1.490827e+04
6.344672e+02,1.494896e+04
6.373599e+02,1.498388e+04
6.402526e+02,1.499741e+04
6.431453e+02,1.500741e+04
6.460380e+02,1.501156e+04
6.489307e+02,1.505279e+04
6.518234e+02,1.509670e+04
6.547161e+02,1.510578e+04
6.576088e+02,1.509450e+04
6.605015e+02,1.509527e+04
6.633942e+02,1.510781e+04
6.662869e+02,1.514584e+04
6.691796e+02,1.518046e+04
6.720723e+02,1.518342e+04
6.749650e+02,1.516799e+04
6.778577e+02,1.514799e+04
6.807504e+02,1.516651e+04
6.836431e+02,1.520496e+04
6.865358e+02,1.520200e+04
6.894285e+02,1.519395e+04
6.923212e+02,1.520169e+04
6.952139e+02,1.521573e+04
6.981066e+02,1.526848e+04
7.009993e+02,1.527256e+04
7.038920e+02,1.526983e+04
7.067847e+02,1.525350e+04
7.096774e+02,1.525943e+04
7.125701e+02,1.527661e+04
7.154628e+02,1.528766e+04
7.183555e+02,1.528962e+04
7.212482e+02,1.527218e+04
7.241409e+02,1.527022e+04
7.270336e+02,1.526573e+04
7.299263e+02,1.527459e+04
7.328190e+02,1.527758e+04
7.357117e+02,1.526974e+04
7.386044e+02,1.526134e+04
7.414971e+02,1.526304e+04
7.443898e+02,1.526429e+04
7.472825e+02,1.529838e+04
7.501752e+02,1.526561e+04
7.530679e+02,1.525480e+04
7.559606e+02,1.524167e+04
7.588533e+02,1.525349e+04
7.617460e+02,1.528168e+04
7.646387e+02,1.524539e+04
7.675314e+02,1.525528e+04
7.704241e+02,1.520913e+04
7.733168e+02,1.518211e+04
7.762095e+02,1.522906e+04
7.791022e+02,1.524386e+04
7.819949e+02,1.520059e+04
7.848876e+02,1.517197e+04
7.877803e+02,1.515915e+04
7.906730e+02,1.514186e+04
7.935657e+02,1.517592e+04
7.964584e+02,1.512679e+04
7.993511e+02,1.512022e+04
8.022438e+02,1.510676e+04
8.051365e+02,1.511077e+04
8.080292e+02,1.512238e+04
8.109219e+02,1.510789e+04
8.138146e+02,1.510323e+04
8.167073e+02,1.508295e+04
8.196000e+02,1.507191e+04
8.224927e+02,1.507937e+04
8.253854e+02,1.507339e+04
8.282781e+02,1.504160e+04
8.311708e+02,1.500352e+04
8.340635e+02,1.500693e+04
8.369562e+02,1.499833e+04
8.398489e+02,1.497732e+04
8.427416e+02,1.495447e+04
8.456343e+02,1.491304e+04
8.485270e+02,1.488165e+04
8.514197e+02,1.485258e+04
8.543124e+02,1.485084e+04
8.572051e+02,1.483557e+04
8.600978e+02,1.479902e+04
8.629905e+02,1.478478e+04
8.658832e+02,1.475820e+04
8.687759e+02,1.476748e+04
8.716686e+02,1.475810e+04
8.745613e+02,1.470254e+04
8.774540e+02,1.467971e+04
8.803467e+02,1.467756e+04
8.832394e+02,1.466605e+04
8.861321e+02,1.467136e+04
8.890248e+02,1.463373e+04
8.919175e+02,1.458521e+04
8.948102e+02,1.457301e+04
8.977029e+02,1.454933e+04
9.005956e+02,1.451807e+04
9.034883e+02,1.452813e+04
9.063810e+02,1.448119e+04
9.092737e+02,1.445538e+04
9.121664e+02,1.443234e+04
9.150591e+02,1.441818e+04
9.179518e+02,1.442170e+04
9.208445e+02,1.435555e+04
9.237372e+02,1.432419e+04
9.266299e+02,1.431949e+04
9.295226e+02,1.431703e+04
9.324153e+02,1.430228e+04
9.353080e+02,1.429442e+04
9.382007e+02,1.424799e+04
9.410934e+02,1.422677e+04
9.439861e+02,1.419758e+04
9.468788e+02,1.418892e+04
9.497715e+02,1.417117e+04
9.526642e+02,1.410833e+04
9.555569e+02,1.405309e+04
9.584496e+02,1.401675e+04
9.613423e+02,1.400245e+04
9.642350e+02,1.396611e+04
9.671277e+02,1.394241e+04
9.700204e+02,1.389674e+04
9.729131e+02,1.383819e+04
9.758058e+02,1.383006e+04
9.786985e+02,1.383075e+04
9.815912e+02,1.379767e+04
9.844839e+02,1.373209e+04
9.873766e+02,1.369642e+04
9.902693e+02,1.367490e+04
9.931620e+02,1.368169e+04
9.960547e+02,1.365736e+04
9.989474e+02,1.360553e+04
1.001840e+03,1.353509e+04
1.004733e+03,1.352063e+04
1.007626e+03,1.352195e+04
1.010518e+03,1.352315e+04
1.013411e+03,1.346450e+04
1.016304e+03,1.341521e+04
1.019196e+03,1.339259e+04
1.022089e+03,1.337200e+04
1.024982e+03,1.337917e+04
1.027875e+03,1.333640e+04
1.030767e+03,1.328678e+04
1.033660e+03,1.325537e+04
1.036552e+03,1.323313e+04
1.039445e+03,1.322859e+04
1.042338e+03,1.319648e+04
1.045231e+03,1.316415e+04
1.048123e+03,1.311727e+04
1.051016e+03,1.309154e+04
1.053909e+03,1.310688e+04
1.056802e+03,1.308644e+04
1.059694e+03,1.305441e+04
1.062587e+03,1.301874e+04
1.065479e+03,1.300166e+04
1.068372e+03,1.299629e+04
1.071265e+03,1.300379e+04
1.074158e+03,1.298102e+04
1.077050e+03,1.292546e+04
1.079943e+03,1.289797e+04
1.082836e+03,1.290117e+04
1.085729e+03,1.288339e+04
1.088621e+03,1.286494e+04
1.091514e+03,1.279978e+04
1.094406e+03,1.274686e+04
1.097299e+03,1.273169e+04
1.100192e+03,1.273034e+04
1.103085e+03,1.271158e+04
1.105977e+03,1.268010e+04
1.108870e+03,1.264655e+04
1.111763e+03,1.262012e+04
1.114656e+03,1.261370e+04
1.117548e+03,1.262516e+04
1.120441e+03,1.259989e+04
1.123334e+03,1.255476e+04
1.126226e+03,1.251250e+04
1.129119e+03,1.251101e+04
1.132012e+03,1.251856e+04
1.134904e+03,1.249088e+04
1.137797e+03,1.244471e+04
1.140690e+03,1.242159e+04
1.143583e+03,1.240856e+04
1.146475e+03,1.239991e+04
1.149368e+03,1.239142e+04
1.152261e+03,1.239111e+04
1.155153e+03,1.233228e+04
1.158046e+03,1.230157e+04
1.160939e+03,1.231762e+04
1.163831e+03,1.232199e+04
1.166724e+03,1.228634e+04
1.169617e+03,1.224983e+04
1.172510e+03,1.222074e+04
1.175402e+03,1.221769e+04
1.178295e+03,1.221967e+04
1.181188e+03,1.222204e+04
1.184080e+03,1.218831e+04
1.186973e+03,1.215562e+04
1.189866e+03,1.215787e+04
1.192758e+03,1.215338e+04
1.195651e+03,1.215508e+04
1.198544e+03,1.215958e+04
1.201437e+03,1.210147e+04
1.204329e+03,1.206927e+04
1.207222e+03,1.208336e+04
1.210115e+03,1.211081e+04
1.213007e+03,1.210103e+04
1.215900e+03,1.207091e+04
1.218793e+03,1.206090e+04
1.221685e+03,1.206943e+04
1.224578e+03,1.208853e+04
1.227471e+03,1.209388e+04
1.230364e+03,1.207938e+04
1.233256e+03,1.204628e+04
1.236149e+03,1.203708e+04
1.239042e+03,1.207636e+04
1.241934e+03,1.209637e+04
1.244827e+03,1.207817e+04
1.247720e+03,1.205847e+04
1.250612e+03,1.205658e+04
1.253505e+03,1.207111e+04
1.256398e+03,1.208695e+04
1.259291e+03,1.209946e+04
1.262183e+03,1.207352e+04
1.265076e+03,1.206679e+04
1.267969e+03,1.206690e+04
1.270861e+03,1.211000e+04
1.273754e+03,1.212802e+04
1.276647e+03,1.211681e+04
1.279539e+03,1.209122e+04
1.282432e+03,1.208585e+04
1.285325e+03,1.212119e+04
1.288218e+03,1.214299e+04
1.291110e+03,1.213679e+04
1.294003e+03,1.213494e+04
1.296896e+03,1.212579e+04
1.299788e+03,1.215171e+04
1.302681e+03,1.218424e+04
1.305574e+03,1.221203e+04
1.308466e+03,1.219233e+04
1.311359e+03,1.220740e+04
1.314252e+03,1.220847e+04
1.317145e+03,1.224543e+04
1.320037e+03,1.227719e+04
1.322930e+03,1.225932e+04
1.325823e+03,1.225572e+04
1.328715e+03,1.227864e+04
1.331608e+03,1.231272e+04
1.334501e+03,1.234825e+04
1.337393e+03,1.235253e+04
1.340286e+03,1.236631e+04
1.343179e+03,1.235705e+04
1.346072e+03,1.238784e+04
1.348964e+03,1.241398e+04
1.351857e+03,1.243559e+04
1.354750e+03,1.245079e+04
1.357642e+03,1.244293e+04
1.360535e+03,1.246655e+04
1.363428e+03,1.248774e+04
1.366320e+03,1.253402e+04
1.369213e+03,1.254847e+04
1.372106e+03,1.257025e+04
1.374999e+03,1.257956e+04
1.377891e+03,1.261221e+04
1.380784e+03,1.265458e+04
1.383677e+03,1.270507e+04
1.386569e+03,1.272542e+04
1.389462e+03,1.274404e+04
1.392355e+03,1.276393e+04
1.395247e+03,1.281187e+04
1.398140e+03,1.286800e+04
1.401033e+03,1.290916e+04
1.403926e+03,1.292369e+04
1.406818e+03,1.293171e+04
1.409711e+03,1.299844e+04
1.412604e+03,1.305446e+04
1.415496e+03,1.308217e+04
1.418389e+03,1.311750e+04
1.421282e+03,1.312815e+04
1.424174e+03,1.316641e+04
1.427067e+03,1.323378e+04
1.429960e+03,1.328471e+04
1.432853e+03,1.330363e+04
1.435745e+03,1.332605e+04
1.438638e+03,1.335624e+04
1.441531e+03,1.341893e+04
1.444423e+03,1.348317e+04
1.447316e+03,1.350676e+04
1.450209e+03,1.352216e+04
1.453101e+03,1.357500e+04
1.455994e+03,1.363620e+04
1.458887e+03,1.371863e+04
1.461780e+03,1.377251e+04
1.464672e+03,1.378792e+04
1.467565e+03,1.382664e+04
1.470458e+03,1.389782e+04
1.473350e+03,1.395834e+04
1.476243e+03,1.403125e+04
1.479136e+03,1.406588e+04
1.482028e+03,1.410551e+04
1.484921e+03,1.417197e+04
1.487814e+03,1.425464e+04
1.490707e+03,1.429366e+04
1.493599e+03,1.434971e+04
1.496492e+03,1.441526e+04
1.499385e+03,1.445623e+04
1.502277e+03,1.453362e+04
1.505170e+03,1.462233e+04
1.508063e+03,1.468518e+04
1.510955e+03,1.473543e+04
1.513848e+03,1.478075e+04
1.516741e+03,1.485148e+04
1.519634e+03,1.492080e+04
1.522526e+03,1.498123e+04
1.525419e+03,1.502229e+04
1.528312e+03,1.503566e+04
1.531204e+03,1.506766e+04
1.534097e+03,1.514749e+04
1.536990e+03,1.516914e+04
1.539882e+03,1.522867e+04
1.542775e+03,1.524667e+04
1.545668e+03,1.526807e+04
1.548561e+03,1.533558e+04
1.551453e+03,1.541319e+04
1.554346e+03,1.541786e+04
1.557239e+03,1.541226e+04
1.560131e+03,1.542358e+04
1.563024e+03,1.542570e+04
1.565917e+03,1.546343e+04
1.568809e+03,1.547092e+04
1.571702e+03,1.545253e+04
1.574595e+03,1.542663e+04
1.577488e+03,1.546548e+04
1.580380e+03,1.547388e+04
1.583273e+03,1.545920e+04
1.586166e+03,1.551161e+04
1.589058e+03,1.549075e+04
1.591951e+03,1.549257e+04
1.594844e+03,1.551192e+04
1.597736e+03,1.552283e+04
1.600629e+03,1.556591e+04
1.603522e+03,1.560449e+04
1.606415e+03,1.551121e+04
1.609307e+03,1.552721e+04
1.612200e+03,1.542267e+04
1.615093e+03,1.548123e+04
1.617985e+03,1.546069e+04
1.620878e+03,1.541768e+04
1.623771e+03,1.539809e+04
1.626663e+03,1.541982e+04
1.629556e+03,1.533619e+04
1.632449e+03,1.531812e+04
1.635342e+03,1.536267e+04
1.638234e+03,1.525950e+04
1.641127e+03,1.520886e+04
1.644020e+03,1.522667e+04
1.646912e+03,1.519901e+04
1.649805e+03,1.512228e+04
1.652698e+03,1.509071e+04
1.655590e+03,1.505191e+04
1.658483e+03,1.502717e+04
1.661376e+03,1.500833e+04
1.664269e+03,1.499729e+04
1.667161e+03,1.494345e+04
1.670054e+03,1.489022e+04
1.672947e+03,1.487470e+04
1.675839e+03,1.487103e+04
1.678732e+03,1.487037e+04
1.681625e+03,1.482305e+04
1.684517e+03,1.473175e+04
1.687410e+03,1.477794e+04
1.690303e+03,1.476561e+04
1.693196e+03,1.472572e+04
1.696088e+03,1.472972e+04
1.698981e+03,1.469799e+04
1.701874e+03,1.464463e+04
1.704766e+03,1.462050e+04
1.707659e+03,1.459537e+04
1.710552e+03,1.459141e+04
1.713444e+03,1.455925e+04
1.716337e+03,1.445433e+04
1.719230e+03,1.444905e+04
1.722123e+03,1.435654e+04
1.725015e+03,1.440237e+04
1.727908e+03,1.435307e+04
1.730801e+03,1.435614e+04
1.733693e+03,1.435298e+04
1.736586e+03,1.436581e+04
1.739479e+03,1.429719e+04
1.742371e+03,1.421892e+04
1.745264e+03,1.423590e+04
1.748157e+03,1.417929e+04
1.751050e+03,1.416312e+04
1.753942e+03,1.415561e+04
1.756835e+03,1.418485e+04
1.759728e+03,1.405321e+04
1.762620e+03,1.405400e+04
1.765513e+03,1.402001e+04
1.768406e+03,1.403129e+04
1.771298e+03,1.397791e+04
1.774191e+03,1.398200e+04
1.777084e+03,1.391283e+04
1.779977e+03,1.388306e+04
1.782869e+03,1.389942e+04
1.785762e+03,1.386648e+04
1.788655e+03,1.384624e+04
1.791547e+03,1.375366e+04
1.794440e+03,1.376587e+04
1.797333e+03,1.372260e+04
1.800225e+03,1.369902e+04
1.803118e+03,1.363924e+04
1.806011e+03,1.365786e+04
1.808904e+03,1.364974e+04
1.811796e+03,1.364096e+04
1.814689e+03,1.355132e+04
1.817582e+03,1.355100e+04
1.820474e+03,1.353228e+04
1.823367e+03,1.347180e+04
1.826260e+03,1.342379e+04
1.829152e+03,1.340294e+04
1.832045e+03,1.335781e+04
1.834938e+03,1.337497e+04
1.837831e+03,1.332521e+04
1.840723e+03,1.331098e+04
1.843616e+03,1.334536e+04
1.846509e+03,1.328831e+04
1.849401e+03,1.323484e+04
1.852294e+03,1.316290e+04
1.855187e+03,1.310287e+04
1.858079e+03,1.315310e+04
1.860972e+03,1.311119e+04
1.863865e+03,1.306433e+04
1.866758e+03,1.305964e+04
1.869650e+03,1.298704e+04
1.872543e+03,1.303503e+04
1.875436e+03,1.300792e+04
1.878328e+03,1.295040e+04
1.881221e+03,1.289842e+04
1.884114e+03,1.286775e+04
1.887006e+03,1.289332e+04
1.889899e+03,1.287636e+04
1.892792e+03,1.283756e+04
1.895685e+03,1.280497e+04
1.898577e+03,1.275048e+04
1.901470e+03,1.273909e+04
1.904363e+03,1.270576e+04
1.907255e+03,1.271138e+04
1.910148e+03,1.265742e+04
1.913041e+03,1.261807e+04
1.915933e+03,1.255371e+04
1.918826e+03,1.255254e+04
1.921719e+03,1.251834e+04
1.924612e+03,1.253106e+04
1.927504e+03,1.250314e+04
1.930397e+03,1.241154e+04
1.933290e+03,1.241482e+04
1.936182e+03,1.240362e+04
1.939075e+03,1.234374e+04
1.941968e+03,1.234825e+04
1.944860e+03,1.222576e+04
1.947753e+03,1.224389e+04
1.950646e+03,1.224892e+04
1.953539e+03,1.221655e+04
1.956431e+03,1.216555e+04
1.959324e+03,1.216931e+04
1.962217e+03,1.212737e+04
1.965109e+03,1.206997e+04
1.968002e+03,1.211284e+04
1.970895e+03,1.206879e+04
1.973787e+03,1.200925e+04
1.976680e+03,1.196660e+04
1.979573e+03,1.194209e+04
1.982466e+03,1.198588e+04
1.985358e+03,1.190969e+04
1.988251e+03,1.189026e+04
1.991144e+03,1.177622e+04
1.994036e+03,1.181832e+04
1.996929e+03,1.178256e+04
1.999822e+03,1.180301e+04
2.002714e+03,1.176627e+04
2.005607e+03,1.172385e+04
2.008500e+03,1.159664e+04
2.011393e+03,1.161942e+04
2.014285e+03,1.164773e+04
2.017178e+03,1.162117e+04
2.020071e+03,1.157155e+04
2.022963e+03,1.146894e+04
2.025856e+03,1.152058e+04
2.028749e+03,1.145144e+04
2.031641e+03,1.146875e+04
2.034534e+03,1.144757e+04
2.037427e+03,1.135586e+04
2.040320e+03,1.132861e+04
2.043212e+03,1.133147e+04
2.046105e+03,1.130548e+04
2.048998e+03,1.124519e+04
2.051890e+03,1.123664e+04
2.054783e+03,1.114518e+04
2.057676e+03,1.116350e+04
2.060568e+03,1.113316e+04
2.063461e+03,1.117864e+04
2.066354e+03,1.112904e+04
2.069247e+03,1.104771e+04
2.072139e+03,1.101397e+04
2.075032e+03,1.102128e+04
2.077925e+03,1.106054e+04
2.080817e+03,1.101510e+04
2.083710e+03,1.085978e+04
2.086603e+03,1.086464e+04
2.089496e+03,1.084965e+04
2.092388e+03,1.082011e+04
2.095281e+03,1.080929e+04
2.098174e+03,1.081816e+04
2.101066e+03,1.077144e+04
2.103959e+03,1.072359e+04
2.106852e+03,1.068208e+04
2.109744e+03,1.068629e+04
2.112637e+03,1.066595e+04
2.115530e+03,1.055485e+04
2.118422e+03,1.051988e+04
2.121315e+03,1.057152e+04
2.124208e+03,1.053120e+04
2.127101e+03,1.049142e+04
2.129993e+03,1.047147e+04
2.132886e+03,1.044093e+04
2.135779e+03,1.041066e+04
2.138671e+03,1.040648e+04
2.141564e+03,1.034028e+04
2.144457e+03,1.030486e+04
2.147350e+03,1.026222e+04
2.150242e+03,1.026554e+04
2.153135e+03,1.026272e+04
2.156028e+03,1.016941e+04
2.158920e+03,1.018182e+04
2.161813e+03,1.014921e+04
2.164706e+03,1.016185e+04
2.167598e+03,1.010142e+04
2.170491e+03,1.006698e+04
2.173384e+03,1.006003e+04
2.176277e+03,1.003196e+04
2.179169e+03,9.997161e+03
2.182062e+03,9.979271e+03
2.184955e+03,9.984081e+03
2.187847e+03,9.958181e+03
2.190740e+03,9.909938e+03
2.193633e+03,9.880081e+03
2.196525e+03,9.838100e+03
2.199418e+03,9.815100e+03
2.202311e+03,9.760149e+03
2.205204e+03,9.783496e+03
2.208096e+03,9.743497e+03
2.210989e+03,9.630470e+03
2.213882e+03,9.638974e+03
2.216774e+03,9.677411e+03
2.219667e+03,9.649974e+03
2.222560e+03,9.600549e+03
2.225452e+03,9.502702e+03
2.228345e+03,9.463888e+03
2.231238e+03,9.526594e+03
2.234131e+03,9.499270e+03
2.237023e+03,9.459255e+03
2.239916e+03,9.420799e+03
2.242809e+03,9.336068e+03
2.245701e+03,9.347061e+03
2.248594e+03,9.316323e+03
2.251487e+03,9.332085e+03
2.254379e+03,9.312581e+03
2.257272e+03,9.199762e+03
2.260165e+03,9.174801e+03
2.263058e+03,9.151100e+03
2.265950e+03,9.161838e+03
2.268843e+03,9.129670e+03
2.271736e+03,9.071176e+03
2.274628e+03,9.068639e+03
2.277521e+03,9.089121e+03
2.280414e+03,9.067468e+03
2.283306e+03,9.052946e+03
2.286199e+03,8.965307e+03
2.289092e+03,8.948654e+03
2.291985e+03,8.938266e+03
2.294877e+03,8.877952e+03
2.297770e+03,8.896926e+03
2.300663e+03,8.927792e+03
2.303555e+03,8.808078e+03
2.306448e+03,8.807247e+03
2.309341e+03,8.767521e+03
2.312233e+03,8.765688e+03
2.315126e+03,8.716706e+03
2.318019e+03,8.657996e+03
2.320912e+03,8.642237e+03
2.323804e+03,8.679851e+03
2.326697e+03,8.634721e+03
2.329590e+03,8.590049e+03
2.332482e+03,8.530286e+03
2.335375e+03,8.522798e+03
2.338268e+03,8.539119e+03
2.341160e+03,8.486267e+03
2.344053e+03,8.521169e+03
2.346946e+03,8.506626e+03
2.349839e+03,8.421991e+03
2.352731e+03,8.373638e+03
2.355624e+03,8.393222e+03
2.358517e+03,8.449315e+03
2.361409e+03,8.347936e+03
2.364302e+03,8.309081e+03
2.367195e+03,8.273287e+03
2.370087e+03,8.237792e+03
2.372980e+03,8.215721e+03
2.375873e+03,8.249064e+03
2.378766e+03,8.158028e+03
2.381658e+03,8.163136e+03
2.384551e+03,8.117160e+03
2.387444e+03,8.168091e+03
2.390336e+03,8.095831e+03
2.393229e+03,8.129439e+03
2.396122e+03,8.016454e+03
2.399014e+03,7.961663e+03
2.401907e+03,7.950700e+03
2.404800e+03,7.973239e+03
2.407693e+03,7.968897e+03
2.410585e+03,7.882182e+03
2.413478e+03,7.874736e+03
2.416371e+03,7.876084e+03
2.419263e+03,7.896241e+03
2.422156e+03,7.841860e+03
2.425049e+03,7.794709e+03
2.427941e+03,7.767340e+03
2.430834e+03,7.760365e+03
2.433727e+03,7.739289e+03
2.436620e+03,7.739636e+03
2.439512e+03,7.679040e+03
2.442405e+03,7.677654e+03
2.445298e+03,7.643806e+03
2.448190e+03,7.623813e+03
2.451083e+03,7.642393e+03
2.453976e+03,7.614720e+03
2.456868e+03,7.562640e+03
2.459761e+03,7.560241e+03
2.462654e+03,7.554115e+03
2.465547e+03,7.463265e+03
2.468439e+03,7.495111e+03
2.471332e+03,7.443425e+03
2.474225e+03,7.417925e+03
2.477117e+03,7.389346e+03
2.480010e+03,7.434267e+03
2.482903e+03,7.383797e+03
2.485795e+03,7.376300e+03
2.488688e+03,7.346148e+03
2.491581e+03,7.299597e+03
2.494474e+03,7.272807e+03
2.497366e+03,7.277500e+03
2.500259e+03,7.300894e+03
2.503152e+03,7.220543e+03
2.506044e+03,7.223257e+03
2.508937e+03,7.150509e+03
2.511830e+03,7.147071e+03
2.514722e+03,7.140446e+03
2.517615e+03,7.118562e+03
2.520508e+03,7.098735e+03
2.523401e+03,7.050292e+03
2.526293e+03,7.083446e+03
2.529186e+03,7.035453e+03
2.532079e+03,7.040745e+03
2.534971e+03,6.987001e+03
2.537864e+03,6.982360e+03
2.540757e+03,6.966539e+03
2.543649e+03,6.971310e+03
2.546542e+03,6.959854e+03
2.549435e+03,6.913354e+03
2.552328e+03,6.893102e+03
2.555220e+03,6.863099e+03
2.558113e+03,6.891374e+03
2.561006e+03,6.812712e+03
2.563898e+03,6.842888e+03
2.566791e+03,6.817989e+03
2.569684e+03,6.770829e+03
2.572576e+03,6.771021e+03
2.575469e+03,6.741030e+03
2.578362e+03,6.762047e+03
2.581255e+03,6.718120e+03
2.584147e+03,6.714402e+03
2.587040e+03,6.652871e+03
2.589933e+03,6.692011e+03
2.592825e+03,6.654583e+03
2.595718e+03,6.628477e+03
2.598611e+03,6.590597e+03
2.601503e+03,6.585163e+03
2.604396e+03,6.539478e+03
2.607289e+03,6.527134e+03
2.610182e+03,6.541250e+03
2.613074e+03,6.475427e+03
2.615967e+03,6.474827e+03
2.618860e+03,6.468159e+03
2.621752e+03,6.465040e+03
2.624645e+03,6.421549e+03
2.627538e+03,6.455420e+03
2.630430e+03,6.373966e+03
2.633323e+03,6.447125e+03
2.636216e+03,6.348141e+03
2.639109e+03,6.337527e+03
2.642001e+03,6.344582e+03
2.644894e+03,6.349523e+03
2.647787e+03,6.298584e+03
2.650679e+03,6.278152e+03
2.653572e+03,6.309708e+03
2.656465e+03,6.258430e+03
2.659357e+03,6.247931e+03
2.662250e+03,6.284542e+03
2.665143e+03,6.198911e+03
2.668036e+03,6.201243e+03
2.670928e+03,6.166821e+03
2.673821e+03,6.170932e+03
2.676714e+03,6.119001e+03
2.679606e+03,6.112331e+03
2.682499e+03,6.159846e+03
2.685392e+03,6.097283e+03
2.688284e+03,6.054467e+03
2.691177e+03,6.069656e+03
2.694070e+03,6.069785e+03
2.696963e+03,6.033763e+03
2.699855e+03,6.037035e+03
2.702748e+03,6.031739e+03
2.705641e+03,5.972515e+03
2.708533e+03,5.991289e+03
2.711426e+03,5.951786e+03
2.714319e+03,5.933269e+03
2.717211e+03,5.923535e+03
2.720104e+03,5.888682e+03
2.722997e+03,5.911022e+03
2.725890e+03,5.875088e+03
2.728782e+03,5.870130e+03
2.731675e+03,5.895954e+03
2.734568e+03,5.895362e+03
2.737460e+03,5.800054e+03
2.740353e+03,5.783781e+03
2.743246e+03,5.803398e+03
2.746138e+03,5.789986e+03
2.749031e+03,5.762677e+03
2.751924e+03,5.770366e+03
2.754817e+03,5.738280e+03
2.757709e+03,5.779886e+03
2.760602e+03,5.738345e+03
2.763495e+03,5.675714e+03
2.766387e+03,5.681975e+03
2.769280e+03,5.668638e+03
2.772173e+03,5.694545e+03
2.775065e+03,5.611629e+03
2.777958e+03,5.624546e+03
2.780851e+03,5.571151e+03
2.783744e+03,5.570649e+03
2.786636e+03,5.589231e+03
2.789529e+03,5.554991e+03
2.792422e+03,5.594720e+03
2.795314e+03,5.550821e+03
2.798207e+03,5.540620e+03
2.801100e+03,5.516968e+03
2.803992e+03,5.483182e+03
2.806885e+03,5.497306e+03
2.809778e+03,5.511291e+03
2.812671e+03,5.483775e+03
2.815563e+03,5.445471e+03
2.818456e+03,5.394258e+03
2.821349e+03,5.383821e+03
2.824241e+03,5.400201e+03
2.827134e+03,5.420532e+03
2.830027e+03,5.379356e+03
2.832919e+03,5.380054e+03
2.835812e+03,5.351701e+03
2.838705e+03,5.386462e+03
2.841598e+03,5.347984e+03
2.844490e+03,5.352932e+03
2.847383e+03,5.319601e+03
2.850276e+03,5.309621e+03
2.853168e+03,5.312729e+03
2.856061e+03,5.285110e+03
2.858954e+03,5.296332e+03
2.861846e+03,5.253880e+03
2.864739e+03,5.267516e+03
2.867632e+03,5.240329e+03
2.870525e+03,5.224245e+03
2.873417e+03,5.275145e+03
2.876310e+03,5.256485e+03
2.879203e+03,5.241473e+03
2.882095e+03,5.218104e+03
2.884988e+03,5.244704e+03
2.887881e+03,5.167648e+03
2.890773e+03,5.223152e+03
2.893666e+03,5.154264e+03
2.896559e+03,5.143872e+03
2.899452e+03,5.184470e+03
2.902344e+03,5.162510e+03
2.905237e+03,5.154852e+03
2.908130e+03,5.117485e+03
2.911022e+03,5.094781e+03
2.913915e+03,5.089087e+03
2.916808e+03,5.013234e+03
2.919700e+03,5.026404e+03
2.922593e+03,5.031711e+03
2.925486e+03,5.075831e+03
2.928379e+03,4.974045e+03
2.931271e+03,5.006244e+03
2.934164e+03,4.995399e+03
2.937057e+03,4.986547e+03
2.939949e+03,4.931005e+03
2.942842e+03,4.949792e+03
2.945735e+03,4.948431e+03
2.948627e+03,4.977395e+03
2.951520e+03,4.954276e+03
2.954413e+03,4.898219e+03
2.957306e+03,4.866024e+03
2.960198e+03,4.928995e+03
2.963091e+03,4.896502e+03
2.965984e+03,4.817062e+03
2.968876e+03,4.889886e+03
2.971769e+03,4.853180e+03
2.974662e+03,4.832037e+03
2.977554e+03,4.870546e+03
2.980447e+03,4.823417e+03
2.983340e+03,4.840337e+03
2.986233e+03,4.791817e+03
2.989125e+03,4.809827e+03
2.992018e+03,4.798383e+03
2.994911e+03,4.749974e+03
2.997803e+03,4.754028e+03
3.000696e+03,4.726220e+03
3.003589e+03,4.737282e+03
3.006481e+03,4.721639e+03
3.009374e+03,4.690349e+03
3.012267e+03,4.703891e+03
3.015160e+03,4.684655e+03
3.018052e+03,4.764079e+03
3.020945e+03,4.654693e+03
3.023838e+03,4.610701e+03
3.026730e+03,4.666211e+03
3.029623e+03,4.670173e+03
3.032516e+03,4.694532e+03
3.035408e+03,4.668740e+03
3.038301e+03,4.625899e+03
3.041194e+03,4.613767e+03
3.044087e+03,4.598469e+03
3.046979e+03,4.560165e+03
3.049872e+03,4.616638e+03
3.052765e+03,4.592264e+03
3.055657e+03,4.619187e+03
3.058550e+03,4.516713e+03
3.061443e+03,4.600643e+03
3.064335e+03,4.574601e+03
3.067228e+03,4.539170e+03
3.070121e+03,4.560513e+03
3.073014e+03,4.509248e+03
3.075906e+03,4.514316e+03
3.078799e+03,4.574803e+03
3.081692e+03,4.515222e+03
3.084584e+03,4.513177e+03
3.087477e+03,4.493891e+03
3.090370e+03,4.561572e+03
3.093262e+03,4.531435e+03
3.096155e+03,4.446771e+03
3.099048e+03,4.450875e+03
3.101941e+03,4.524570e+03
3.104833e+03,4.500893e+03
3.107726e+03,4.467768e+03
3.110619e+03,4.418798e+03
3.113511e+03,4.451413e+03
3.116404e+03,4.461276e+03
3.119297e+03,4.423661e+03
3.122189e+03,4.469732e+03
3.125082e+03,4.475450e+03
3.127975e+03,4.404736e+03
3.130868e+03,4.352812e+03
3.133760e+03,4.379646e+03
3.136653e+03,4.435197e+03
3.139546e+03,4.479826e+03
3.142438e+03,4.397047e+03
3.145331e+03,4.344279e+03
3.148224e+03,4.462906e+03
3.151116e+03,4.482834e+03
3.154009e+03,4.424078e+03
3.156902e+03,4.379572e+03
3.159795e+03,4.313775e+03
3.162687e+03,4.459830e+03
3.165580e+03,4.329125e+03
3.168473e+03,4.453406e+03
3.171365e+03,4.376539e+03
3.174258e+03,4.319003e+03
3.177151e+03,4.389146e+03
3.180043e+03,4.373102e+03
3.182936e+03,4.363908e+03
3.185829e+03,4.437625e+03
3.188722e+03,4.270029e+03
3.191614e+03,4.391231e+03
3.194507e+03,4.414778e+03
3.197400e+03,4.338833e+03
3.200292e+03,4.348501e+03
3.203185e+03,0.000000e+00
3.206078e+03,0.000000e+00
3.208970e+03,0.000000e+00
3.211863e+03,0.000000e+00
3.214756e+03,0.000000e+00
3.217649e+03,0.000000e+00
3.220541e+03,0.000000e+00
3.223434e+03,0.000000e+00
3.226327e+03,0.000000e+00
3.229219e+03,0.000000e+00
3.232112e+03,0.000000e+00
3.235005e+03,0.000000e+00
3.237897e+03,0.000000e+00
3.240790e+03,0.000000e+00
3.243683e+03,0.000000e+00
3.246576e+03,0.000000e+00
3.249468e+03,0.000000e+00
3.252361e+03,0.000000e+00
3.255254e+03,0.000000e+00
3.258146e+03,0.000000e+00
3.261039e+03,0.000000e+00
3.263932e+03,0.000000e+00
3.266824e+03,0.000000e+00
3.269717e+03,0.000000e+00
3.272610e+03,0.000000e+00
3.275503e+03,0.000000e+00
3.278395e+03,0.000000e+00
3.281288e+03,0.000000e+00
3.284181e+03,0.000000e+00
3.287073e+03,0.000000e+00
3.289966e+03,0.000000e+00
3.292859e+03,0.000000e+00
3.295751e+03,0.000000e+00
3.298644e+03,0.000000e+00
3.301537e+03,0.000000e+00
3.304430e+03,0.000000e+00
3.307322e+03,0.000000e+00
3.310215e+03,0.000000e+00
3.313108e+03,0.000000e+00
3.316000e+03,0.000000e+00
3.318893e+03,0.000000e+00
3.321786e+03,0.000000e+00
3.324678e+03,0.000000e+00
3.327571e+03,0.000000e+00
3.330464e+03,0.000000e+00
3.333357e+03,0.000000e+00
3.336249e+03,0.000000e+00
3.339142e+03,0.000000e+00
3.342035e+03,0.000000e+00
3.344927e+03,0.000000e+00
3.347820e+03,0.000000e+00
3.350713e+03,0.000000e+00
3.353605e+03,0.000000e+00
3.356498e+03,0.000000e+00
3.359391e+03,0.000000e+00
3.362284e+03,0.000000e+00
3.365176e+03,0.000000e+00
3.368069e+03,0.000000e+00
3.370962e+03,0.000000e+00
3.373854e+03,0.000000e+00
3.376747e+03,0.000000e+00
3.379640e+03,0.000000e+00
3.382532e+03,0.000000e+00
3.385425e+03,0.000000e+00
3.388318e+03,0.000000e+00
3.391211e+03,0.000000e+00
3.394103e+03,0.000000e+00
3.396996e+03,0.000000e+00
3.399889e+03,0.000000e+00
3.402781e+03,0.000000e+00
3.405674e+03,0.000000e+00
3.408567e+03,0.000000e+00
3.411459e+03,0.000000e+00
3.414352e+03,0.000000e+00
3.417245e+03,0.000000e+00
3.420138e+03,0.000000e+00
3.423030e+03,0.000000e+00
3.425923e+03,0.000000e+00
3.428816e+03,0.000000e+00
3.431708e+03,0.000000e+00
3.434601e+03,0.000000e+00
3.437494e+03,0.000000e+00
3.440386e+03,0.000000e+00
3.443279e+03,0.000000e+00
3.446172e+03,0.000000e+00
3.449065e+03,0.000000e+00
3.451957e+03,0.000000e+00
3.454850e+03,0.000000e+00
3.457743e+03,0.000000e+00
3.460635e+03,0.000000e+00
3.463528e+03,0.000000e+00
3.466421e+03,0.000000e+00
3.469313e+03,0.000000e+00
3.472206e+03,0.000000e+00
3.475099e+03,0.000000e+00
3.477992e+03,0.000000e+00
3.480884e+03,0.000000e+00
3.483777e+03,0.000000e+00
3.486670e+03,0.000000e+00
3.489563e+03,0.000000e+00
3.492455e+03,0.000000e+00
3.495348e+03,0.000000e+00
3.498240e+03,0.000000e+00
3.500169e+03,0.000000e+00