File: RAMAN_data/13112023_r2/blue frag4.CSV
9.931763e+01,0.000000e+00
1.022103e+02,0.000000e+00
1.051030e+02,0.000000e+00
1.079957e+02,0.000000e+00
1.108884e+02,0.000000e+00
1.137811e+02,0.000000e+00
1.166738e+02,0.000000e+00
1.195665e+02,0.000000e+00
1.224592e+02,0.000000e+00
1.253519e+02,0.000000e+00
1.282446e+02,0.000000e+00
1.311373e+02,0.000000e+00
1.340300e+02,0.000000e+00
1.369227e+02,0.000000e+00
1.398154e+02,0.000000e+00
1.427081e+02,0.000000e+00
1.456008e+02,0.000000e+00
1.484935e+02,0.000000e+00
1.513862e+02,0.000000e+00
1.542789e+02,0.000000e+00
1.571716e+02,0.000000e+00
1.600643e+02,0.000000e+00
1.629570e+02,0.000000e+00
1.658497e+02,0.000000e+00
1.687424e+02,0.000000e+00
1.716351e+02,0.000000e+00
1.745278e+02,0.000000e+00
1.774205e+02,0.000000e+00
1.803132e+02,0.000000e+00
1.832059e+02,0.000000e+00
1.860986e+02,0.000000e+00
1.889913e+02,0.000000e+00
1.918840e+02,0.000000e+00
1.947767e+02,0.000000e+00
1.976694e+02,0.000000e+00
2.005621e+02,1.047899e+04
2.034548e+02,1.051899e+04
2.063475e+02,1.054891e+04
2.092402e+02,1.054938e+04
2.121329e+02,1.055037e+04
2.150256e+02,1.057905e+04
2.179183e+02,1.060927e+04
2.208110e+02,1.066068e+04
2.237037e+02,1.067604e+04
2.265964e+02,1.068651e+04
2.294892e+02,1.071479e+04
2.323819e+02,1.076347e+04
2.352746e+02,1.080069e+04
2.381673e+02,1.083713e+04
2.410600e+02,1.083247e+04
2.439527e+02,1.084990e+04
2.468454e+02,1.088676e+04
2.497381e+02,1.092278e+04
2.526308e+02,1.095922e+04
2.555235e+02,1.097428e+04
2.584161e+02,1.097618e+04
2.613088e+02,1.101875e+04
2.642015e+02,1.107090e+04
2.670942e+02,1.109680e+04
2.699869e+02,1.113129e+04
2.728796e+02,1.114345e+04
2.757723e+02,1.118588e+04
2.786650e+02,1.122837e+04
2.815577e+02,1.125757e+04
2.844504e+02,1.128443e+04
2.873431e+02,1.128894e+04
2.902358e+02,1.131662e+04
2.931285e+02,1.134527e+04
2.960212e+02,1.138987e+04
2.989139e+02,1.141438e+04
3.018066e+02,1.143403e+04
3.046993e+02,1.146588e+04
3.075920e+02,1.148845e+04
3.104847e+02,1.152735e+04
3.133774e+02,1.157812e+04
3.162701e+02,1.158548e+04
3.191628e+02,1.160749e+04
3.220555e+02,1.164045e+04
3.249482e+02,1.167663e+04
3.278409e+02,1.171173e+04
3.307336e+02,1.173318e+04
3.336263e+02,1.174390e+04
3.365190e+02,1.176826e+04
3.394117e+02,1.181335e+04
3.423044e+02,1.185578e+04
3.451971e+02,1.189764e+04
3.480898e+02,1.190440e+04
3.509825e+02,1.189955e+04
3.538752e+02,1.194617e+04
3.567680e+02,1.198336e+04
3.596607e+02,1.202821e+04
3.625534e+02,1.206340e+04
3.654461e+02,1.203461e+04
3.683388e+02,1.204338e+04
3.712315e+02,1.212573e+04
3.741242e+02,1.212528e+04
3.770169e+02,1.217452e+04
3.799096e+02,1.221127e+04
3.828023e+02,1.219024e+04
3.856950e+02,1.221984e+04
3.885877e+02,1.227040e+04
3.914804e+02,1.230392e+04
3.943731e+02,1.229379e+04
3.972658e+02,1.234044e+04
4.001585e+02,1.234246e+04
4.030512e+02,1.239929e+04
4.059439e+02,1.240561e+04
4.088366e+02,1.242718e+04
4.117293e+02,1.242607e+04
4.146220e+02,1.243746e+04
4.175147e+02,1.249085e+04
4.204074e+02,1.249913e+04
4.233001e+02,1.253488e+04
4.261928e+02,1.254545e+04
4.290855e+02,1.254948e+04
4.319782e+02,1.255157e+04
4.348709e+02,1.261718e+04
4.377636e+02,1.263459e+04
4.406563e+02,1.262497e+04
4.435490e+02,1.264969e+04
4.464417e+02,1.261214e+04
4.493344e+02,1.266491e+04
4.522271e+02,1.269029e+04
4.551198e+02,1.270159e+04
4.580125e+02,1.270736e+04
4.609052e+02,1.272441e+04
4.637979e+02,1.271847e+04
4.666906e+02,1.273236e+04
4.695833e+02,1.274802e+04
4.724760e+02,1.279729e+04
4.753687e+02,1.279562e+04
4.782614e+02,1.279133e+04
4.811541e+02,1.282727e+04
4.840468e+02,1.284438e+04
4.869395e+02,1.285957e+04
4.898322e+02,1.286300e+04
4.927249e+02,1.287542e+04
4.956176e+02,1.291942e+04
4.985103e+02,1.296107e+04
5.014030e+02,1.296664e+04
5.042957e+02,1.293112e+04
5.071884e+02,1.291240e+04
5.100811e+02,1.293411e+04
5.129738e+02,1.295820e+04
5.158665e+02,1.299716e+04
5.187592e+02,1.303294e+04
5.216519e+02,1.299850e+04
5.245446e+02,1.302466e+04
5.274373e+02,1.304942e+04
5.303300e+02,1.304567e+04
5.332227e+02,1.305847e+04
5.361154e+02,1.305352e+04
5.390081e+02,1.309128e+04
5.419008e+02,1.310522e+04
5.447935e+02,1.311754e+04
5.476862e+02,1.311811e+04
5.505789e+02,1.310430e+04
5.534716e+02,1.308060e+04
5.563643e+02,1.307316e+04
5.592570e+02,1.314880e+04
5.621497e+02,1.316603e+04
5.650424e+02,1.316519e+04
5.679351e+02,1.313301e+04
5.708278e+02,1.316360e+04
5.737205e+02,1.322816e+04
5.766132e+02,1.318725e+04
5.795059e+02,1.321856e+04
5.823986e+02,1.323655e+04
5.852913e+02,1.325175e+04
5.881840e+02,1.321767e+04
5.910767e+02,1.324292e+04
5.939694e+02,1.327072e+04
5.968621e+02,1.324956e+04
5.997548e+02,1.321095e+04
6.026475e+02,1.319935e+04
6.055402e+02,1.329217e+04
6.084329e+02,1.326469e+04
6.113256e+02,1.325175e+04
6.142183e+02,1.324296e+04
6.171110e+02,1.321124e+04
6.200037e+02,1.322469e+04
6.228964e+02,1.322187e+04
6.257891e+02,1.327066e+04
6.286818e+02,1.322930e+04
6.315745e+02,1.322606e+04
6.344672e+02,1.322057e+04
6.373599e+02,1.322193e+04
6.402526e+02,1.326083e+04
6.431453e+02,1.319974e+04
6.460380e+02,1.317743e+04
6.489307e+02,1.325530e+04
6.518234e+02,1.324296e+04
6.547161e+02,1.323800e+04
6.576088e+02,1.321068e+04
6.605015e+02,1.319477e+04
6.633942e+02,1.322855e+04
6.662869e+02,1.324367e+04
6.691796e+02,1.322242e+04
6.720723e+02,1.320331e+04
6.749650e+02,1.321025e+04
6.778577e+02,1.317500e+04
6.807504e+02,1.320337e+04
6.836431e+02,1.319259e+04
6.865358e+02,1.316106e+04
6.894285e+02,1.316829e+04
6.923212e+02,1.315449e+04
6.952139e+02,1.318315e+04
6.981066e+02,1.315736e+04
7.009993e+02,1.316670e+04
7.038920e+02,1.316247e+04
7.067847e+02,1.317021e+04
7.096774e+02,1.316936e+04
7.125701e+02,1.319757e+04
7.154628e+02,1.316081e+04
7.183555e+02,1.315174e+04
7.212482e+02,1.314550e+04
7.241409e+02,1.315605e+04
7.270336e+02,1.310323e+04
7.299263e+02,1.310450e+04
7.328190e+02,1.308721e+04
7.357117e+02,1.314486e+04
7.386044e+02,1.310143e+04
7.414971e+02,1.312962e+04
7.443898e+02,1.315676e+04
7.472825e+02,1.319807e+04
7.501752e+02,1.310146e+04
7.530679e+02,1.307301e+04
7.559606e+02,1.306367e+04
7.588533e+02,1.307582e+04
7.617460e+02,1.309178e+04
7.646387e+02,1.301669e+04
7.675314e+02,1.304566e+04
7.704241e+02,1.300469e+04
7.733168e+02,1.300474e+04
7.762095e+02,1.306442e+04
7.791022e+02,1.305403e+04
7.819949e+02,1.301634e+04
7.848876e+02,1.300944e+04
7.877803e+02,1.305451e+04
7.906730e+02,1.298726e+04
7.935657e+02,1.301208e+04
7.964584e+02,1.293374e+04
7.993511e+02,1.296426e+04
8.022438e+02,1.291490e+04
8.051365e+02,1.293351e+04
8.080292e+02,1.295804e+04
8.109219e+02,1.295790e+04
8.138146e+02,1.289504e+04
8.167073e+02,1.293529e+04
8.196000e+02,1.288599e+04
8.224927e+02,1.292002e+04
8.253854e+02,1.288501e+04
8.282781e+02,1.288026e+04
8.311708e+02,1.288555e+04
8.340635e+02,1.288603e+04
8.369562e+02,1.288346e+04
8.398489e+02,1.289211e+04
8.427416e+02,1.284954e+04
8.456343e+02,1.283725e+04
8.485270e+02,1.279358e+04
8.514197e+02,1.280679e+04
8.543124e+02,1.284447e+04
8.572051e+02,1.281696e+04
8.600978e+02,1.278927e+04
8.629905e+02,1.279517e+04
8.658832e+02,1.276272e+04
8.687759e+02,1.277621e+04
8.716686e+02,1.273016e+04
8.745613e+02,1.275262e+04
8.774540e+02,1.272499e+04
8.803467e+02,1.271818e+04
8.832394e+02,1.272121e+04
8.861321e+02,1.273566e+04
8.890248e+02,1.269382e+04
8.919175e+02,1.268079e+04
8.948102e+02,1.266276e+04
8.977029e+02,1.268345e+04
9.005956e+02,1.267483e+04
9.034883e+02,1.265578e+04
9.063810e+02,1.264812e+04
9.092737e+02,1.261765e+04
9.121664e+02,1.261368e+04
9.150591e+02,1.259796e+04
9.179518e+02,1.262045e+04
9.208445e+02,1.257068e+04
9.237372e+02,1.257970e+04
9.266299e+02,1.255328e+04
9.295226e+02,1.250401e+04
9.324153e+02,1.252979e+04
9.353080e+02,1.250866e+04
9.382007e+02,1.249549e+04
9.410934e+02,1.248615e+04
9.439861e+02,1.248042e+04
9.468788e+02,1.246918e+04
9.497715e+02,1.246436e+04
9.526642e+02,1.242177e+04
9.555569e+02,1.241237e+04
9.584496e+02,1.246025e+04
9.613423e+02,1.242461e+04
9.642350e+02,1.242119e+04
9.671277e+02,1.236423e+04
9.700204e+02,1.235830e+04
9.729131e+02,1.231554e+04
9.758058e+02,1.233959e+04
9.786985e+02,1.232747e+04
9.815912e+02,1.230236e+04
9.844839e+02,1.228064e+04
9.873766e+02,1.228313e+04
9.902693e+02,1.225604e+04
9.931620e+02,1.227027e+04
9.960547e+02,1.225222e+04
9.989474e+02,1.225935e+04
1.001840e+03,1.221233e+04
1.004733e+03,1.218722e+04
1.007626e+03,1.223772e+04
1.010518e+03,1.221069e+04
1.013411e+03,1.215263e+04
1.016304e+03,1.212219e+04
1.019196e+03,1.214392e+04
1.022089e+03,1.215213e+04
1.024982e+03,1.211540e+04
1.027875e+03,1.212253e+04
1.030767e+03,1.206954e+04
1.033660e+03,1.207247e+04
1.036552e+03,1.205740e+04
1.039445e+03,1.206563e+04
1.042338e+03,1.205984e+04
1.045231e+03,1.202600e+04
1.048123e+03,1.200296e+04
1.051016e+03,1.198908e+04
1.053909e+03,1.201472e+04
1.056802e+03,1.199540e+04
1.059694e+03,1.197319e+04
1.062587e+03,1.191292e+04
1.065479e+03,1.194073e+04
1.068372e+03,1.192241e+04
1.071265e+03,1.193257e+04
1.074158e+03,1.189782e+04
1.077050e+03,1.185803e+04
1.079943e+03,1.186174e+04
1.082836e+03,1.187093e+04
1.085729e+03,1.187921e+04
1.088621e+03,1.187987e+04
1.091514e+03,1.180309e+04
1.094406e+03,1.177989e+04
1.097299e+03,1.176034e+04
1.100192e+03,1.174919e+04
1.103085e+03,1.174864e+04
1.105977e+03,1.171786e+04
1.108870e+03,1.170029e+04
1.111763e+03,1.168605e+04
1.114656e+03,1.167329e+04
1.117548e+03,1.168075e+04
1.120441e+03,1.166119e+04
1.123334e+03,1.164835e+04
1.126226e+03,1.160677e+04
1.129119e+03,1.159666e+04
1.132012e+03,1.158071e+04
1.134904e+03,1.158702e+04
1.137797e+03,1.150964e+04
1.140690e+03,1.153622e+04
1.143583e+03,1.151254e+04
1.146475e+03,1.152596e+04
1.149368e+03,1.151388e+04
1.152261e+03,1.152821e+04
1.155153e+03,1.145232e+04
1.158046e+03,1.144984e+04
1.160939e+03,1.144863e+04
1.163831e+03,1.144685e+04
1.166724e+03,1.140409e+04
1.169617e+03,1.137608e+04
1.172510e+03,1.135653e+04
1.175402e+03,1.136238e+04
1.178295e+03,1.137803e+04
1.181188e+03,1.136459e+04
1.184080e+03,1.132883e+04
1.186973e+03,1.130271e+04
1.189866e+03,1.130923e+04
1.192758e+03,1.131297e+04
1.195651e+03,1.129973e+04
1.198544e+03,1.130969e+04
1.201437e+03,1.125485e+04
1.204329e+03,1.121144e+04
1.207222e+03,1.123079e+04
1.210115e+03,1.124827e+04
1.213007e+03,1.122518e+04
1.215900e+03,1.120921e+04
1.218793e+03,1.118889e+04
1.221685e+03,1.116448e+04
1.224578e+03,1.117290e+04
1.227471e+03,1.117489e+04
1.230364e+03,1.113982e+04
1.233256e+03,1.111698e+04
1.236149e+03,1.109192e+04
1.239042e+03,1.112472e+04
1.241934e+03,1.113067e+04
1.244827e+03,1.113170e+04
1.247720e+03,1.109445e+04
1.250612e+03,1.107497e+04
1.253505e+03,1.110250e+04
1.256398e+03,1.107334e+04
1.259291e+03,1.107332e+04
1.262183e+03,1.105292e+04
1.265076e+03,1.105665e+04
1.267969e+03,1.104657e+04
1.270861e+03,1.107153e+04
1.273754e+03,1.109943e+04
1.276647e+03,1.105573e+04
1.279539e+03,1.103164e+04
1.282432e+03,1.100582e+04
1.285325e+03,1.101670e+04
1.288218e+03,1.101695e+04
1.291110e+03,1.100830e+04
1.294003e+03,1.100618e+04
1.296896e+03,1.093075e+04
1.299788e+03,1.095492e+04
1.302681e+03,1.096684e+04
1.305574e+03,1.094511e+04
1.308466e+03,1.088372e+04
1.311359e+03,1.088783e+04
1.314252e+03,1.083755e+04
1.317145e+03,1.084519e+04
1.320037e+03,1.088302e+04
1.322930e+03,1.085570e+04
1.325823e+03,1.084647e+04
1.328715e+03,1.086651e+04
1.331608e+03,1.085082e+04
1.334501e+03,1.085774e+04
1.337393e+03,1.087532e+04
1.340286e+03,1.080865e+04
1.343179e+03,1.081020e+04
1.346072e+03,1.078403e+04
1.348964e+03,1.076885e+04
1.351857e+03,1.075221e+04
1.354750e+03,1.074147e+04
1.357642e+03,1.069990e+04
1.360535e+03,1.065663e+04
1.363428e+03,1.068020e+04
1.366320e+03,1.068564e+04
1.369213e+03,1.068697e+04
1.372106e+03,1.065031e+04
1.374999e+03,1.062382e+04
1.377891e+03,1.063914e+04
1.380784e+03,1.061025e+04
1.383677e+03,1.058471e+04
1.386569e+03,1.057340e+04
1.389462e+03,1.050346e+04
1.392355e+03,1.054354e+04
1.395247e+03,1.053692e+04
1.398140e+03,1.053543e+04
1.401033e+03,1.049604e+04
1.403926e+03,1.046755e+04
1.406818e+03,1.045377e+04
1.409711e+03,1.043031e+04
1.412604e+03,1.045800e+04
1.415496e+03,1.044092e+04
1.418389e+03,1.043126e+04
1.421282e+03,1.036158e+04
1.424174e+03,1.037644e+04
1.427067e+03,1.036722e+04
1.429960e+03,1.037878e+04
1.432853e+03,1.036730e+04
1.435745e+03,1.034735e+04
1.438638e+03,1.029257e+04
1.441531e+03,1.029066e+04
1.444423e+03,1.028695e+04
1.447316e+03,1.028394e+04
1.450209e+03,1.025284e+04
1.453101e+03,1.022624e+04
1.455994e+03,1.019931e+04
1.458887e+03,1.018682e+04
1.461780e+03,1.019701e+04
1.464672e+03,1.018101e+04
1.467565e+03,1.014751e+04
1.470458e+03,1.015513e+04
1.473350e+03,1.010953e+04
1.476243e+03,1.011882e+04
1.479136e+03,1.009309e+04
1.482028e+03,1.005744e+04
1.484921e+03,1.005886e+04
1.487814e+03,1.004770e+04
1.490707e+03,1.005465e+04
1.493599e+03,1.002358e+04
1.496492e+03,1.005152e+04
1.499385e+03,9.944189e+03
1.502277e+03,9.973296e+03
1.505170e+03,9.970316e+03
1.508063e+03,9.971935e+03
1.510955e+03,9.958047e+03
1.513848e+03,9.915804e+03
1.516741e+03,9.935411e+03
1.519634e+03,9.962438e+03
1.522526e+03,9.908456e+03
1.525419e+03,9.921963e+03
1.528312e+03,9.898167e+03
1.531204e+03,9.923085e+03
1.534097e+03,9.918469e+03
1.536990e+03,9.903201e+03
1.539882e+03,9.873939e+03
1.542775e+03,9.855002e+03
1.545668e+03,9.816548e+03
1.548561e+03,9.828122e+03
1.551453e+03,9.770359e+03
1.554346e+03,9.799514e+03
1.557239e+03,9.762982e+03
1.560131e+03,9.713726e+03
1.563024e+03,9.701309e+03
1.565917e+03,9.711842e+03
1.568809e+03,9.720107e+03
1.571702e+03,9.725708e+03
1.574595e+03,9.707918e+03
1.577488e+03,9.663866e+03
1.580380e+03,9.656775e+03
1.583273e+03,9.630865e+03
1.586166e+03,9.601033e+03
1.589058e+03,9.596034e+03
1.591951e+03,9.602146e+03
1.594844e+03,9.554129e+03
1.597736e+03,9.583205e+03
1.600629e+03,9.571241e+03
1.603522e+03,9.546765e+03
1.606415e+03,9.507019e+03
1.609307e+03,9.519676e+03
1.612200e+03,9.492076e+03
1.615093e+03,9.532404e+03
1.617985e+03,9.459032e+03
1.620878e+03,9.472287e+03
1.623771e+03,9.437278e+03
1.626663e+03,9.360951e+03
1.629556e+03,9.394729e+03
1.632449e+03,9.364315e+03
1.635342e+03,9.318140e+03
1.638234e+03,9.300887e+03
1.641127e+03,9.274223e+03
1.644020e+03,9.293811e+03
1.646912e+03,9.259522e+03
1.649805e+03,9.239688e+03
1.652698e+03,9.254558e+03
1.655590e+03,9.230085e+03
1.658483e+03,9.254797e+03
1.661376e+03,9.223126e+03
1.664269e+03,9.175809e+03
1.667161e+03,9.180151e+03
1.670054e+03,9.139494e+03
1.672947e+03,9.110968e+03
1.675839e+03,9.125578e+03
1.678732e+03,9.088932e+03
1.681625e+03,9.068576e+03
1.684517e+03,9.030229e+03
1.687410e+03,9.063050e+03
1.690303e+03,9.065881e+03
1.693196e+03,9.039170e+03
1.696088e+03,9.035440e+03
1.698981e+03,9.021187e+03
1.701874e+03,8.972647e+03
1.704766e+03,9.016794e+03
1.707659e+03,8.986901e+03
1.710552e+03,8.935396e+03
1.713444e+03,8.928652e+03
1.716337e+03,8.906385e+03
1.719230e+03,8.898156e+03
1.722123e+03,8.879159e+03
1.725015e+03,8.895665e+03
1.727908e+03,8.861118e+03
1.730801e+03,8.817813e+03
1.733693e+03,8.839612e+03
1.736586e+03,8.820988e+03
1.739479e+03,8.796896e+03
1.742371e+03,8.773062e+03
1.745264e+03,8.757282e+03
1.748157e+03,8.724649e+03
1.751050e+03,8.756989e+03
1.753942e+03,8.712788e+03
1.756835e+03,8.736664e+03
1.759728e+03,8.670231e+03
1.762620e+03,8.646345e+03
1.765513e+03,8.652952e+03
1.768406e+03,8.651463e+03
1.771298e+03,8.613357e+03
1.774191e+03,8.658131e+03
1.777084e+03,8.559374e+03
1.779977e+03,8.553613e+03
1.782869e+03,8.547471e+03
1.785762e+03,8.583217e+03
1.788655e+03,8.521934e+03
1.791547e+03,8.500535e+03
1.794440e+03,8.488714e+03
1.797333e+03,8.491487e+03
1.800225e+03,8.478716e+03
1.803118e+03,8.442091e+03
1.806011e+03,8.412283e+03
1.808904e+03,8.421243e+03
1.811796e+03,8.392982e+03
1.814689e+03,8.409849e+03
1.817582e+03,8.369857e+03
1.820474e+03,8.373475e+03
1.823367e+03,8.339359e+03
1.826260e+03,8.341186e+03
1.829152e+03,8.339229e+03
1.832045e+03,8.331216e+03
1.834938e+03,8.292200e+03
1.837831e+03,8.270428e+03
1.840723e+03,8.200067e+03
1.843616e+03,8.262939e+03
1.846509e+03,8.225081e+03
1.849401e+03,8.207574e+03
1.852294e+03,8.200858e+03
1.855187e+03,8.141703e+03
1.858079e+03,8.184414e+03
1.860972e+03,8.143592e+03
1.863865e+03,8.133513e+03
1.866758e+03,8.099781e+03
1.869650e+03,8.105329e+03
1.872543e+03,8.094937e+03
1.875436e+03,8.091463e+03
1.878328e+03,8.056984e+03
1.881221e+03,8.019079e+03
1.884114e+03,8.006286e+03
1.887006e+03,8.026970e+03
1.889899e+03,7.980097e+03
1.892792e+03,8.001909e+03
1.895685e+03,7.948838e+03
1.898577e+03,7.947788e+03
1.901470e+03,7.948147e+03
1.904363e+03,7.852047e+03
1.907255e+03,7.930869e+03
1.910148e+03,7.905296e+03
1.913041e+03,7.834661e+03
1.915933e+03,7.834803e+03
1.918826e+03,7.799165e+03
1.921719e+03,7.827332e+03
1.924612e+03,7.801938e+03
1.927504e+03,7.784389e+03
1.930397e+03,7.789984e+03
1.933290e+03,7.721268e+03
1.936182e+03,7.714969e+03
1.939075e+03,7.726647e+03
1.941968e+03,7.694745e+03
1.944860e+03,7.703275e+03
1.947753e+03,7.662644e+03
1.950646e+03,7.673029e+03
1.953539e+03,7.651317e+03
1.956431e+03,7.598500e+03
1.959324e+03,7.607711e+03
1.962217e+03,7.613354e+03
1.965109e+03,7.507100e+03
1.968002e+03,7.572537e+03
1.970895e+03,7.543196e+03
1.973787e+03,7.541285e+03
1.976680e+03,7.568428e+03
1.979573e+03,7.470134e+03
1.982466e+03,7.457614e+03
1.985358e+03,7.433347e+03
1.988251e+03,7.456514e+03
1.991144e+03,7.384431e+03
1.994036e+03,7.405118e+03
1.996929e+03,7.397172e+03
1.999822e+03,7.365771e+03
2.002714e+03,7.382486e+03
2.005607e+03,7.353347e+03
2.008500e+03,7.372117e+03
2.011393e+03,7.336766e+03
2.014285e+03,7.295874e+03
2.017178e+03,7.290547e+03
2.020071e+03,7.267629e+03
2.022963e+03,7.254021e+03
2.025856e+03,7.208917e+03
2.028749e+03,7.254814e+03
2.031641e+03,7.177674e+03
2.034534e+03,7.195591e+03
2.037427e+03,7.139272e+03
2.040320e+03,7.133524e+03
2.043212e+03,7.141537e+03
2.046105e+03,7.127001e+03
2.048998e+03,7.120399e+03
2.051890e+03,7.102054e+03
2.054783e+03,7.063106e+03
2.057676e+03,7.025233e+03
2.060568e+03,7.043945e+03
2.063461e+03,7.005502e+03
2.066354e+03,7.008750e+03
2.069247e+03,7.003217e+03
2.072139e+03,6.966910e+03
2.075032e+03,6.938394e+03
2.077925e+03,6.922235e+03
2.080817e+03,6.903573e+03
2.083710e+03,6.882206e+03
2.086603e+03,6.890031e+03
2.089496e+03,6.895587e+03
2.092388e+03,6.885224e+03
2.095281e+03,6.853034e+03
2.098174e+03,6.821132e+03
2.101066e+03,6.811242e+03
2.103959e+03,6.790572e+03
2.106852e+03,6.788315e+03
2.109744e+03,6.803838e+03
2.112637e+03,6.734624e+03
2.115530e+03,6.695050e+03
2.118422e+03,6.657250e+03
2.121315e+03,6.707993e+03
2.124208e+03,6.699889e+03
2.127101e+03,6.663764e+03
2.129993e+03,6.635624e+03
2.132886e+03,6.630438e+03
2.135779e+03,6.615656e+03
2.138671e+03,6.599925e+03
2.141564e+03,6.612617e+03
2.144457e+03,6.551196e+03
2.147350e+03,6.520495e+03
2.150242e+03,6.529861e+03
2.153135e+03,6.485937e+03
2.156028e+03,6.485291e+03
2.158920e+03,6.491733e+03
2.161813e+03,6.490742e+03
2.164706e+03,6.466243e+03
2.167598e+03,6.422904e+03
2.170491e+03,6.446681e+03
2.173384e+03,6.394008e+03
2.176277e+03,6.409680e+03
2.179169e+03,6.350476e+03
2.182062e+03,6.360817e+03
2.184955e+03,6.332464e+03
2.187847e+03,6.350858e+03
2.190740e+03,6.295639e+03
2.193633e+03,6.287751e+03
2.196525e+03,6.279954e+03
2.199418e+03,6.275320e+03
2.202311e+03,6.253320e+03
2.205204e+03,6.254156e+03
2.208096e+03,6.225166e+03
2.210989e+03,6.149674e+03
2.213882e+03,6.169550e+03
2.216774e+03,6.201741e+03
2.219667e+03,6.165395e+03
2.222560e+03,6.127244e+03
2.225452e+03,6.096294e+03
2.228345e+03,6.087323e+03
2.231238e+03,6.106658e+03
2.234131e+03,6.069795e+03
2.237023e+03,6.052979e+03
2.239916e+03,6.013396e+03
2.242809e+03,6.021716e+03
2.245701e+03,5.965532e+03
2.248594e+03,6.012128e+03
2.251487e+03,5.974019e+03
2.254379e+03,5.968626e+03
2.257272e+03,5.943542e+03
2.260165e+03,5.935636e+03
2.263058e+03,5.943658e+03
2.265950e+03,5.898604e+03
2.268843e+03,5.891557e+03
2.271736e+03,5.835583e+03
2.274628e+03,5.845672e+03
2.277521e+03,5.845307e+03
2.280414e+03,5.841476e+03
2.283306e+03,5.805844e+03
2.286199e+03,5.752938e+03
2.289092e+03,5.787812e+03
2.291985e+03,5.767331e+03
2.294877e+03,5.760758e+03
2.297770e+03,5.743971e+03
2.300663e+03,5.701201e+03
2.303555e+03,5.705583e+03
2.306448e+03,5.694868e+03
2.309341e+03,5.690273e+03
2.312233e+03,5.664386e+03
2.315126e+03,5.665494e+03
2.318019e+03,5.653461e+03
2.320912e+03,5.632640e+03
2.323804e+03,5.646163e+03
2.326697e+03,5.607266e+03
2.329590e+03,5.597466e+03
2.332482e+03,5.598737e+03
2.335375e+03,5.559053e+03
2.338268e+03,5.541600e+03
2.341160e+03,5.532110e+03
2.344053e+03,5.514252e+03
2.346946e+03,5.522459e+03
2.349839e+03,5.500833e+03
2.352731e+03,5.462893e+03
2.355624e+03,5.487869e+03
2.358517e+03,5.464907e+03
2.361409e+03,5.483532e+03
2.364302e+03,5.397020e+03
2.367195e+03,5.424112e+03
2.370087e+03,5.373873e+03
2.372980e+03,5.391814e+03
2.375873e+03,5.394956e+03
2.378766e+03,5.360566e+03
2.381658e+03,5.326564e+03
2.384551e+03,5.331117e+03
2.387444e+03,5.294823e+03
2.390336e+03,5.334093e+03
2.393229e+03,5.290943e+03
2.396122e+03,5.254633e+03
2.399014e+03,5.289002e+03
2.401907e+03,5.233147e+03
2.404800e+03,5.237319e+03
2.407693e+03,5.222274e+03
2.410585e+03,5.199369e+03
2.413478e+03,5.195862e+03
2.416371e+03,5.167587e+03
2.419263e+03,5.146641e+03
2.422156e+03,5.157241e+03
2.425049e+03,5.160203e+03
2.427941e+03,5.106939e+03
2.430834e+03,5.130162e+03
2.433727e+03,5.117966e+03
2.436620e+03,5.118109e+03
2.439512e+03,5.065146e+03
2.442405e+03,5.090626e+03
2.445298e+03,5.029017e+03
2.448190e+03,5.037540e+03
2.451083e+03,5.029155e+03
2.453976e+03,5.049673e+03
2.456868e+03,5.026373e+03
2.459761e+03,4.987453e+03
2.462654e+03,5.012125e+03
2.465547e+03,4.995175e+03
2.468439e+03,4.953859e+03
2.471332e+03,4.929188e+03
2.474225e+03,4.924154e+03
2.477117e+03,4.879856e+03
2.480010e+03,4.903088e+03
2.482903e+03,4.921931e+03
2.485795e+03,4.906781e+03
2.488688e+03,4.858427e+03
2.491581e+03,4.878489e+03
2.494474e+03,4.855670e+03
2.497366e+03,4.853559e+03
2.500259e+03,4.844372e+03
2.503152e+03,4.823504e+03
2.506044e+03,4.825105e+03
2.508937e+03,4.824455e+03
2.511830e+03,4.787333e+03
2.514722e+03,4.753501e+03
2.517615e+03,4.799944e+03
2.520508e+03,4.751892e+03
2.523401e+03,4.738794e+03
2.526293e+03,4.754140e+03
2.529186e+03,4.740688e+03
2.532079e+03,4.708635e+03
2.534971e+03,4.701329e+03
2.537864e+03,4.686551e+03
2.540757e+03,4.676874e+03
2.543649e+03,4.707632e+03
2.546542e+03,4.648506e+03
2.549435e+03,4.663602e+03
2.552328e+03,4.625844e+03
2.555220e+03,4.643375e+03
2.558113e+03,4.607734e+03
2.561006e+03,4.612081e+03
2.563898e+03,4.601844e+03
2.566791e+03,4.609311e+03
2.569684e+03,4.530878e+03
2.572576e+03,4.553938e+03
2.575469e+03,4.531678e+03
2.578362e+03,4.572125e+03
2.581255e+03,4.558774e+03
2.584147e+03,4.512832e+03
2.587040e+03,4.491888e+03
2.589933e+03,4.498014e+03
2.592825e+03,4.498629e+03
2.595718e+03,4.473930e+03
2.598611e+03,4.482928e+03
2.601503e+03,4.450088e+03
2.604396e+03,4.446341e+03
2.607289e+03,4.433163e+03
2.610182e+03,4.463250e+03
2.613074e+03,4.396798e+03
2.615967e+03,4.425116e+03
2.618860e+03,4.390466e+03
2.621752e+03,4.353085e+03
2.624645e+03,4.409491e+03
2.627538e+03,4.377107e+03
2.630430e+03,4.347850e+03
2.633323e+03,4.326855e+03
2.636216e+03,4.348454e+03
2.639109e+03,4.353718e+03
2.642001e+03,4.318011e+03
2.644894e+03,4.313523e+03
2.647787e+03,4.283951e+03
2.650679e+03,4.301841e+03
2.653572e+03,4.278477e+03
2.656465e+03,4.274699e+03
2.659357e+03,4.261431e+03
2.662250e+03,4.253738e+03
2.665143e+03,4.228624e+03
2.668036e+03,4.204776e+03
2.670928e+03,4.211281e+03
2.673821e+03,4.213881e+03
2.676714e+03,4.193027e+03
2.679606e+03,4.199734e+03
2.682499e+03,4.234403e+03
2.685392e+03,4.155085e+03
2.688284e+03,4.180589e+03
2.691177e+03,4.149657e+03
2.694070e+03,4.124677e+03
2.696963e+03,4.142415e+03
2.699855e+03,4.145839e+03
2.702748e+03,4.113244e+03
2.705641e+03,4.125602e+03
2.708533e+03,4.073679e+03
2.711426e+03,4.069827e+03
2.714319e+03,4.062517e+03
2.717211e+03,4.079138e+03
2.720104e+03,4.092136e+03
2.722997e+03,4.070233e+03
2.725890e+03,4.025431e+03
2.728782e+03,4.048839e+03
2.731675e+03,4.023602e+03
2.734568e+03,4.029028e+03
2.737460e+03,4.011145e+03
2.740353e+03,4.002532e+03
2.743246e+03,3.977928e+03
2.746138e+03,4.012998e+03
2.749031e+03,3.979378e+03
2.751924e+03,3.965196e+03
2.754817e+03,3.980106e+03
2.757709e+03,3.944682e+03
2.760602e+03,3.951152e+03
2.763495e+03,3.962659e+03
2.766387e+03,3.943927e+03
2.769280e+03,3.942745e+03
2.772173e+03,3.929294e+03
2.775065e+03,3.874151e+03
2.777958e+03,3.897545e+03
2.780851e+03,3.877127e+03
2.783744e+03,3.861855e+03
2.786636e+03,3.894594e+03
2.789529e+03,3.871258e+03
2.792422e+03,3.839604e+03
2.795314e+03,3.896007e+03
2.798207e+03,3.839794e+03
2.801100e+03,3.830282e+03
2.803992e+03,3.835039e+03
2.806885e+03,3.820282e+03
2.809778e+03,3.747994e+03
2.812671e+03,3.770436e+03
2.815563e+03,3.788812e+03
2.818456e+03,3.782708e+03
2.821349e+03,3.788403e+03
2.824241e+03,3.756986e+03
2.827134e+03,3.747220e+03
2.830027e+03,3.768696e+03
2.832919e+03,3.770151e+03
2.835812e+03,3.743249e+03
2.838705e+03,3.784644e+03
2.841598e+03,3.758264e+03
2.844490e+03,3.729072e+03
2.847383e+03,3.726800e+03
2.850276e+03,3.717560e+03
2.853168e+03,3.711279e+03
2.856061e+03,3.743474e+03
2.858954e+03,3.686626e+03
2.861846e+03,3.665722e+03
2.864739e+03,3.691172e+03
2.867632e+03,3.679990e+03
2.870525e+03,3.692232e+03
2.873417e+03,3.656513e+03
2.876310e+03,3.726292e+03
2.879203e+03,3.636441e+03
2.882095e+03,3.646018e+03
2.884988e+03,3.596316e+03
2.887881e+03,3.651487e+03
2.890773e+03,3.637981e+03
2.893666e+03,3.631311e+03
2.896559e+03,3.640008e+03
2.899452e+03,3.598375e+03
2.902344e+03,3.594177e+03
2.905237e+03,3.592177e+03
2.908130e+03,3.573456e+03
2.911022e+03,3.615513e+03
2.913915e+03,3.550972e+03
2.916808e+03,3.582417e+03
2.919700e+03,3.541244e+03
2.922593e+03,3.554676e+03
2.925486e+03,3.555591e+03
2.928379e+03,3.501016e+03
2.931271e+03,3.511937e+03
2.934164e+03,3.495118e+03
2.937057e+03,3.496622e+03
2.939949e+03,3.488819e+03
2.942842e+03,3.462829e+03
2.945735e+03,3.486079e+03
2.948627e+03,3.505222e+03
2.951520e+03,3.489227e+03
2.954413e+03,3.497248e+03
2.957306e+03,3.462613e+03
2.960198e+03,3.480331e+03
2.963091e+03,3.440047e+03
2.965984e+03,3.401566e+03
2.968876e+03,3.447243e+03
2.971769e+03,3.415023e+03
2.974662e+03,3.397843e+03
2.977554e+03,3.426482e+03
2.980447e+03,3.398663e+03
2.983340e+03,3.357679e+03
2.986233e+03,3.435510e+03
2.989125e+03,3.372377e+03
2.992018e+03,3.351745e+03
2.994911e+03,3.319620e+03
2.997803e+03,3.339579e+03
3.000696e+03,3.370703e+03
3.003589e+03,3.337946e+03
3.006481e+03,3.315619e+03
3.009374e+03,3.371533e+03
3.012267e+03,3.280859e+03
3.015160e+03,3.303478e+03
3.018052e+03,3.328198e+03
3.020945e+03,3.364461e+03
3.023838e+03,3.282134e+03
3.026730e+03,3.300682e+03
3.029623e+03,3.274175e+03
3.032516e+03,3.273616e+03
3.035408e+03,3.257861e+03
3.038301e+03,3.282758e+03
3.041194e+03,3.212594e+03
3.044087e+03,3.231991e+03
3.046979e+03,3.238018e+03
3.049872e+03,3.244322e+03
3.052765e+03,3.244208e+03
3.055657e+03,3.256724e+03
3.058550e+03,3.231280e+03
3.061443e+03,3.263057e+03
3.064335e+03,3.244303e+03
3.067228e+03,3.272252e+03
3.070121e+03,3.218989e+03
3.073014e+03,3.229092e+03
3.075906e+03,3.212353e+03
3.078799e+03,3.206660e+03
3.081692e+03,3.184019e+03
3.084584e+03,3.228134e+03
3.087477e+03,3.181845e+03
3.090370e+03,3.172528e+03
3.093262e+03,3.170079e+03
3.096155e+03,3.206381e+03
3.099048e+03,3.193013e+03
3.101941e+03,3.183591e+03
3.104833e+03,3.195212e+03
3.107726e+03,3.176485e+03
3.110619e+03,3.110633e+03
3.113511e+03,3.177445e+03
3.116404e+03,3.162130e+03
3.119297e+03,3.140094e+03
3.122189e+03,3.154515e+03
3.125082e+03,3.166450e+03
3.127975e+03,3.151582e+03
3.130868e+03,3.071467e+03
3.133760e+03,3.140974e+03
3.136653e+03,3.150517e+03
3.139546e+03,3.194367e+03
3.142438e+03,3.104363e+03
3.145331e+03,3.139014e+03
3.148224e+03,3.138801e+03
3.151116e+03,3.117032e+03
3.154009e+03,3.215453e+03
3.156902e+03,3.167652e+03
3.159795e+03,3.132644e+03
3.162687e+03,3.145172e+03
3.165580e+03,3.149801e+03
3.168473e+03,3.189877e+03
3.171365e+03,3.051707e+03
3.174258e+03,3.146220e+03
3.177151e+03,3.115443e+03
3.180043e+03,3.096377e+03
3.182936e+03,3.167982e+03
3.185829e+03,3.075402e+03
3.188722e+03,3.190972e+03
3.191614e+03,3.110273e+03
3.194507e+03,3.177150e+03
3.197400e+03,3.075427e+03
3.200292e+03,3.146634e+03
3.203185e+03,0.000000e+00
3.206078e+03,0.000000e+00
3.208970e+03,0.000000e+00
3.211863e+03,0.000000e+00
3.214756e+03,0.000000e+00
3.217649e+03,0.000000e+00
3.220541e+03,0.000000e+00
3.223434e+03,0.000000e+00
3.226327e+03,0.000000e+00
3.229219e+03,0.000000e+00
3.232112e+03,0.000000e+00
3.235005e+03,0.000000e+00
3.237897e+03,0.000000e+00
3.240790e+03,0.000000e+00
3.243683e+03,0.000000e+00
3.246576e+03,0.000000e+00
3.249468e+03,0.000000e+00
3.252361e+03,0.000000e+00
3.255254e+03,0.000000e+00
3.258146e+03,0.000000e+00
3.261039e+03,0.000000e+00
3.263932e+03,0.000000e+00
3.266824e+03,0.000000e+00
3.269717e+03,0.000000e+00
3.272610e+03,0.000000e+00
3.275503e+03,0.000000e+00
3.278395e+03,0.000000e+00
3.281288e+03,0.000000e+00
3.284181e+03,0.000000e+00
3.287073e+03,0.000000e+00
3.289966e+03,0.000000e+00
3.292859e+03,0.000000e+00
3.295751e+03,0.000000e+00
3.298644e+03,0.000000e+00
3.301537e+03,0.000000e+00
3.304430e+03,0.000000e+00
3.307322e+03,0.000000e+00
3.310215e+03,0.000000e+00
3.313108e+03,0.000000e+00
3.316000e+03,0.000000e+00
3.318893e+03,0.000000e+00
3.321786e+03,0.000000e+00
3.324678e+03,0.000000e+00
3.327571e+03,0.000000e+00
3.330464e+03,0.000000e+00
3.333357e+03,0.000000e+00
3.336249e+03,0.000000e+00
3.339142e+03,0.000000e+00
3.342035e+03,0.000000e+00
3.344927e+03,0.000000e+00
3.347820e+03,0.000000e+00
3.350713e+03,0.000000e+00
3.353605e+03,0.000000e+00
3.356498e+03,0.000000e+00
3.359391e+03,0.000000e+00
3.362284e+03,0.000000e+00
3.365176e+03,0.000000e+00
3.368069e+03,0.000000e+00
3.370962e+03,0.000000e+00
3.373854e+03,0.000000e+00
3.376747e+03,0.000000e+00
3.379640e+03,0.000000e+00
3.382532e+03,0.000000e+00
3.385425e+03,0.000000e+00
3.388318e+03,0.000000e+00
3.391211e+03,0.000000e+00
3.394103e+03,0.000000e+00
3.396996e+03,0.000000e+00
3.399889e+03,0.000000e+00
3.402781e+03,0.000000e+00
3.405674e+03,0.000000e+00
3.408567e+03,0.000000e+00
3.411459e+03,0.000000e+00
3.414352e+03,0.000000e+00
3.417245e+03,0.000000e+00
3.420138e+03,0.000000e+00
3.423030e+03,0.000000e+00
3.425923e+03,0.000000e+00
3.428816e+03,0.000000e+00
3.431708e+03,0.000000e+00
3.434601e+03,0.000000e+00
3.437494e+03,0.000000e+00
3.440386e+03,0.000000e+00
3.443279e+03,0.000000e+00
3.446172e+03,0.000000e+00
3.449065e+03,0.000000e+00
3.451957e+03,0.000000e+00
3.454850e+03,0.000000e+00
3.457743e+03,0.000000e+00
3.460635e+03,0.000000e+00
3.463528e+03,0.000000e+00
3.466421e+03,0.000000e+00
3.469313e+03,0.000000e+00
3.472206e+03,0.000000e+00
3.475099e+03,0.000000e+00
3.477992e+03,0.000000e+00
3.480884e+03,0.000000e+00
3.483777e+03,0.000000e+00
3.486670e+03,0.000000e+00
3.489563e+03,0.000000e+00
3.492455e+03,0.000000e+00
3.495348e+03,0.000000e+00
3.498240e+03,0.000000e+00
3.500169e+03,0.000000e+00