File: RAMAN_data/13112023_r2/blue fibre1.CSV
9.931763e+01,0.000000e+00
1.022103e+02,0.000000e+00
1.051030e+02,0.000000e+00
1.079957e+02,0.000000e+00
1.108884e+02,0.000000e+00
1.137811e+02,0.000000e+00
1.166738e+02,0.000000e+00
1.195665e+02,0.000000e+00
1.224592e+02,0.000000e+00
1.253519e+02,0.000000e+00
1.282446e+02,0.000000e+00
1.311373e+02,0.000000e+00
1.340300e+02,0.000000e+00
1.369227e+02,0.000000e+00
1.398154e+02,0.000000e+00
1.427081e+02,0.000000e+00
1.456008e+02,0.000000e+00
1.484935e+02,0.000000e+00
1.513862e+02,0.000000e+00
1.542789e+02,0.000000e+00
1.571716e+02,0.000000e+00
1.600643e+02,0.000000e+00
1.629570e+02,0.000000e+00
1.658497e+02,0.000000e+00
1.687424e+02,0.000000e+00
1.716351e+02,0.000000e+00
1.745278e+02,0.000000e+00
1.774205e+02,0.000000e+00
1.803132e+02,0.000000e+00
1.832059e+02,0.000000e+00
1.860986e+02,0.000000e+00
1.889913e+02,0.000000e+00
1.918840e+02,0.000000e+00
1.947767e+02,0.000000e+00
1.976694e+02,0.000000e+00
2.005621e+02,5.319964e+03
2.034548e+02,5.334268e+03
2.063475e+02,5.357530e+03
2.092402e+02,5.341358e+03
2.121329e+02,5.339291e+03
2.150256e+02,5.332989e+03
2.179183e+02,5.349823e+03
2.208110e+02,5.364763e+03
2.237037e+02,5.367820e+03
2.265964e+02,5.367196e+03
2.294892e+02,5.395849e+03
2.323819e+02,5.401726e+03
2.352746e+02,5.413845e+03
2.381673e+02,5.412636e+03
2.410600e+02,5.388210e+03
2.439527e+02,5.415718e+03
2.468454e+02,5.439285e+03
2.497381e+02,5.429456e+03
2.526308e+02,5.467006e+03
2.555235e+02,5.470335e+03
2.584161e+02,5.471085e+03
2.613088e+02,5.471245e+03
2.642015e+02,5.490507e+03
2.670942e+02,5.480055e+03
2.699869e+02,5.490125e+03
2.728796e+02,5.485718e+03
2.757723e+02,5.507111e+03
2.786650e+02,5.509964e+03
2.815577e+02,5.506308e+03
2.844504e+02,5.515088e+03
2.873431e+02,5.559526e+03
2.902358e+02,5.536806e+03
2.931285e+02,5.530691e+03
2.960212e+02,5.532063e+03
2.989139e+02,5.535426e+03
3.018066e+02,5.538959e+03
3.046993e+02,5.549804e+03
3.075920e+02,5.558141e+03
3.104847e+02,5.570356e+03
3.133774e+02,5.604248e+03
3.162701e+02,5.594945e+03
3.191628e+02,5.591032e+03
3.220555e+02,5.592431e+03
3.249482e+02,5.610853e+03
3.278409e+02,5.609546e+03
3.307336e+02,5.608442e+03
3.336263e+02,5.600876e+03
3.365190e+02,5.595771e+03
3.394117e+02,5.624396e+03
3.423044e+02,5.635235e+03
3.451971e+02,5.647657e+03
3.480898e+02,5.639767e+03
3.509825e+02,5.656481e+03
3.538752e+02,5.662838e+03
3.567680e+02,5.651601e+03
3.596607e+02,5.669786e+03
3.625534e+02,5.676440e+03
3.654461e+02,5.669943e+03
3.683388e+02,5.663698e+03
3.712315e+02,5.671350e+03
3.741242e+02,5.706028e+03
3.770169e+02,5.712597e+03
3.799096e+02,5.720478e+03
3.828023e+02,5.719859e+03
3.856950e+02,5.714833e+03
3.885877e+02,5.735672e+03
3.914804e+02,5.726896e+03
3.943731e+02,5.726225e+03
3.972658e+02,5.729269e+03
4.001585e+02,5.717501e+03
4.030512e+02,5.737894e+03
4.059439e+02,5.730485e+03
4.088366e+02,5.742321e+03
4.117293e+02,5.760667e+03
4.146220e+02,5.771861e+03
4.175147e+02,5.769678e+03
4.204074e+02,5.762708e+03
4.233001e+02,5.775762e+03
4.261928e+02,5.745565e+03
4.290855e+02,5.785904e+03
4.319782e+02,5.788404e+03
4.348709e+02,5.808456e+03
4.377636e+02,5.780811e+03
4.406563e+02,5.780248e+03
4.435490e+02,5.793439e+03
4.464417e+02,5.792401e+03
4.493344e+02,5.803191e+03
4.522271e+02,5.775960e+03
4.551198e+02,5.799358e+03
4.580125e+02,5.804305e+03
4.609052e+02,5.809430e+03
4.637979e+02,5.788459e+03
4.666906e+02,5.798274e+03
4.695833e+02,5.818828e+03
4.724760e+02,5.831745e+03
4.753687e+02,5.841870e+03
4.782614e+02,5.853429e+03
4.811541e+02,5.869085e+03
4.840468e+02,5.881475e+03
4.869395e+02,5.840188e+03
4.898322e+02,5.839688e+03
4.927249e+02,5.849909e+03
4.956176e+02,5.842381e+03
4.985103e+02,5.855341e+03
5.014030e+02,5.862962e+03
5.042957e+02,5.874524e+03
5.071884e+02,5.853833e+03
5.100811e+02,5.868499e+03
5.129738e+02,5.876854e+03
5.158665e+02,5.885578e+03
5.187592e+02,5.896272e+03
5.216519e+02,5.862568e+03
5.245446e+02,5.900093e+03
5.274373e+02,5.903140e+03
5.303300e+02,5.907429e+03
5.332227e+02,5.913397e+03
5.361154e+02,5.903147e+03
5.390081e+02,5.881855e+03
5.419008e+02,5.907964e+03
5.447935e+02,5.894155e+03
5.476862e+02,5.910692e+03
5.505789e+02,5.909486e+03
5.534716e+02,5.890326e+03
5.563643e+02,5.900229e+03
5.592570e+02,5.908169e+03
5.621497e+02,5.939031e+03
5.650424e+02,5.920135e+03
5.679351e+02,5.905544e+03
5.708278e+02,5.935908e+03
5.737205e+02,5.944461e+03
5.766132e+02,5.930924e+03
5.795059e+02,5.936513e+03
5.823986e+02,5.942661e+03
5.852913e+02,5.943852e+03
5.881840e+02,5.942293e+03
5.910767e+02,5.953427e+03
5.939694e+02,5.967280e+03
5.968621e+02,5.949022e+03
5.997548e+02,5.948565e+03
6.026475e+02,5.951185e+03
6.055402e+02,5.990076e+03
6.084329e+02,5.966225e+03
6.113256e+02,5.947581e+03
6.142183e+02,5.941187e+03
6.171110e+02,5.927697e+03
6.200037e+02,5.943964e+03
6.228964e+02,5.971357e+03
6.257891e+02,5.962184e+03
6.286818e+02,5.958222e+03
6.315745e+02,5.964058e+03
6.344672e+02,5.975947e+03
6.373599e+02,5.969583e+03
6.402526e+02,5.987525e+03
6.431453e+02,5.966598e+03
6.460380e+02,5.961664e+03
6.489307e+02,5.968825e+03
6.518234e+02,5.969886e+03
6.547161e+02,5.984204e+03
6.576088e+02,5.968154e+03
6.605015e+02,5.957753e+03
6.633942e+02,5.947089e+03
6.662869e+02,5.959031e+03
6.691796e+02,5.968324e+03
6.720723e+02,5.967207e+03
6.749650e+02,5.982268e+03
6.778577e+02,6.061612e+03
6.807504e+02,6.090000e+03
6.836431e+02,6.003369e+03
6.865358e+02,5.990232e+03
6.894285e+02,5.984702e+03
6.923212e+02,5.967143e+03
6.952139e+02,6.008377e+03
6.981066e+02,5.985278e+03
7.009993e+02,5.985999e+03
7.038920e+02,5.967346e+03
7.067847e+02,5.979356e+03
7.096774e+02,5.967201e+03
7.125701e+02,5.973247e+03
7.154628e+02,5.975000e+03
7.183555e+02,5.970329e+03
7.212482e+02,5.974560e+03
7.241409e+02,5.970667e+03
7.270336e+02,5.973963e+03
7.299263e+02,5.973408e+03
7.328190e+02,5.981830e+03
7.357117e+02,5.982361e+03
7.386044e+02,5.958266e+03
7.414971e+02,5.991232e+03
7.443898e+02,6.056167e+03
7.472825e+02,6.062129e+03
7.501752e+02,6.024522e+03
7.530679e+02,5.954033e+03
7.559606e+02,5.956872e+03
7.588533e+02,5.956543e+03
7.617460e+02,5.988970e+03
7.646387e+02,5.938387e+03
7.675314e+02,5.970206e+03
7.704241e+02,5.968867e+03
7.733168e+02,5.938113e+03
7.762095e+02,5.977077e+03
7.791022e+02,5.979034e+03
7.819949e+02,5.942983e+03
7.848876e+02,5.960679e+03
7.877803e+02,5.932110e+03
7.906730e+02,5.949805e+03
7.935657e+02,5.952009e+03
7.964584e+02,5.906884e+03
7.993511e+02,5.920776e+03
8.022438e+02,5.922628e+03
8.051365e+02,5.927965e+03
8.080292e+02,5.936810e+03
8.109219e+02,5.938059e+03
8.138146e+02,5.921665e+03
8.167073e+02,5.937589e+03
8.196000e+02,5.916945e+03
8.224927e+02,5.946407e+03
8.253854e+02,5.920756e+03
8.282781e+02,5.947468e+03
8.311708e+02,5.897089e+03
8.340635e+02,5.910690e+03
8.369562e+02,5.924938e+03
8.398489e+02,5.929223e+03
8.427416e+02,5.919104e+03
8.456343e+02,5.946471e+03
8.485270e+02,5.912133e+03
8.514197e+02,5.910034e+03
8.543124e+02,5.908630e+03
8.572051e+02,5.891706e+03
8.600978e+02,5.892062e+03
8.629905e+02,5.907075e+03
8.658832e+02,5.893703e+03
8.687759e+02,5.884799e+03
8.716686e+02,5.897596e+03
8.745613e+02,5.858167e+03
8.774540e+02,5.891450e+03
8.803467e+02,5.892614e+03
8.832394e+02,5.889625e+03
8.861321e+02,5.892408e+03
8.890248e+02,5.863647e+03
8.919175e+02,5.846216e+03
8.948102e+02,5.845362e+03
8.977029e+02,5.856745e+03
9.005956e+02,5.856383e+03
9.034883e+02,5.855354e+03
9.063810e+02,5.834388e+03
9.092737e+02,5.822177e+03
9.121664e+02,5.831081e+03
9.150591e+02,5.825884e+03
9.179518e+02,5.845304e+03
9.208445e+02,5.802594e+03
9.237372e+02,5.786381e+03
9.266299e+02,5.811787e+03
9.295226e+02,5.800549e+03
9.324153e+02,5.806511e+03
9.353080e+02,5.815565e+03
9.382007e+02,5.794144e+03
9.410934e+02,5.789499e+03
9.439861e+02,5.788206e+03
9.468788e+02,5.802172e+03
9.497715e+02,5.830938e+03
9.526642e+02,5.798532e+03
9.555569e+02,5.771044e+03
9.584496e+02,5.775449e+03
9.613423e+02,5.782526e+03
9.642350e+02,5.766563e+03
9.671277e+02,5.747347e+03
9.700204e+02,5.737286e+03
9.729131e+02,5.740118e+03
9.758058e+02,5.751658e+03
9.786985e+02,5.747624e+03
9.815912e+02,5.714492e+03
9.844839e+02,5.697507e+03
9.873766e+02,5.716812e+03
9.902693e+02,5.704624e+03
9.931620e+02,5.725235e+03
9.960547e+02,5.729523e+03
9.989474e+02,5.720752e+03
1.001840e+03,5.684729e+03
1.004733e+03,5.697266e+03
1.007626e+03,5.696878e+03
1.010518e+03,5.696933e+03
1.013411e+03,5.656162e+03
1.016304e+03,5.673018e+03
1.019196e+03,5.666784e+03
1.022089e+03,5.679842e+03
1.024982e+03,5.659483e+03
1.027875e+03,5.653126e+03
1.030767e+03,5.641954e+03
1.033660e+03,5.649892e+03
1.036552e+03,5.662136e+03
1.039445e+03,5.633506e+03
1.042338e+03,5.655885e+03
1.045231e+03,5.655360e+03
1.048123e+03,5.623134e+03
1.051016e+03,5.629138e+03
1.053909e+03,5.623276e+03
1.056802e+03,5.639181e+03
1.059694e+03,5.617345e+03
1.062587e+03,5.611202e+03
1.065479e+03,5.602953e+03
1.068372e+03,5.587878e+03
1.071265e+03,5.590864e+03
1.074158e+03,5.600223e+03
1.077050e+03,5.584656e+03
1.079943e+03,5.570093e+03
1.082836e+03,5.586933e+03
1.085729e+03,5.600540e+03
1.088621e+03,5.604047e+03
1.091514e+03,5.582932e+03
1.094406e+03,5.563998e+03
1.097299e+03,5.575172e+03
1.100192e+03,5.556864e+03
1.103085e+03,5.580047e+03
1.105977e+03,5.578313e+03
1.108870e+03,5.583867e+03
1.111763e+03,5.551325e+03
1.114656e+03,5.533258e+03
1.117548e+03,5.543430e+03
1.120441e+03,5.572077e+03
1.123334e+03,5.559367e+03
1.126226e+03,5.520680e+03
1.129119e+03,5.520401e+03
1.132012e+03,5.537222e+03
1.134904e+03,5.542000e+03
1.137797e+03,5.543815e+03
1.140690e+03,5.537854e+03
1.143583e+03,5.549191e+03
1.146475e+03,5.542423e+03
1.149368e+03,5.505228e+03
1.152261e+03,5.503515e+03
1.155153e+03,5.494529e+03
1.158046e+03,5.496987e+03
1.160939e+03,5.488164e+03
1.163831e+03,5.496514e+03
1.166724e+03,5.455321e+03
1.169617e+03,5.456158e+03
1.172510e+03,5.424099e+03
1.175402e+03,5.437816e+03
1.178295e+03,5.452332e+03
1.181188e+03,5.441795e+03
1.184080e+03,5.436328e+03
1.186973e+03,5.419521e+03
1.189866e+03,5.450215e+03
1.192758e+03,5.436596e+03
1.195651e+03,5.455397e+03
1.198544e+03,5.449236e+03
1.201437e+03,5.404903e+03
1.204329e+03,5.375264e+03
1.207222e+03,5.400498e+03
1.210115e+03,5.413035e+03
1.213007e+03,5.389140e+03
1.215900e+03,5.398136e+03
1.218793e+03,5.374688e+03
1.221685e+03,5.382219e+03
1.224578e+03,5.370517e+03
1.227471e+03,5.366690e+03
1.230364e+03,5.340925e+03
1.233256e+03,5.329446e+03
1.236149e+03,5.302621e+03
1.239042e+03,5.333400e+03
1.241934e+03,5.338627e+03
1.244827e+03,5.324553e+03
1.247720e+03,5.297461e+03
1.250612e+03,5.298771e+03
1.253505e+03,5.312196e+03
1.256398e+03,5.293860e+03
1.259291e+03,5.297891e+03
1.262183e+03,5.286572e+03
1.265076e+03,5.273208e+03
1.267969e+03,5.267117e+03
1.270861e+03,5.274765e+03
1.273754e+03,5.283834e+03
1.276647e+03,5.281334e+03
1.279539e+03,5.237710e+03
1.282432e+03,5.220308e+03
1.285325e+03,5.247704e+03
1.288218e+03,5.251617e+03
1.291110e+03,5.240187e+03
1.294003e+03,5.250108e+03
1.296896e+03,5.240365e+03
1.299788e+03,5.231823e+03
1.302681e+03,5.256211e+03
1.305574e+03,5.265895e+03
1.308466e+03,5.251380e+03
1.311359e+03,5.208245e+03
1.314252e+03,5.186993e+03
1.317145e+03,5.190467e+03
1.320037e+03,5.209186e+03
1.322930e+03,5.186804e+03
1.325823e+03,5.185161e+03
1.328715e+03,5.185785e+03
1.331608e+03,5.224796e+03
1.334501e+03,5.247778e+03
1.337393e+03,5.260883e+03
1.340286e+03,5.254362e+03
1.343179e+03,5.212400e+03
1.346072e+03,5.167874e+03
1.348964e+03,5.160933e+03
1.351857e+03,5.157682e+03
1.354750e+03,5.160447e+03
1.357642e+03,5.144716e+03
1.360535e+03,5.121946e+03
1.363428e+03,5.130675e+03
1.366320e+03,5.127368e+03
1.369213e+03,5.102255e+03
1.372106e+03,5.101655e+03
1.374999e+03,5.095907e+03
1.377891e+03,5.083547e+03
1.380784e+03,5.092580e+03
1.383677e+03,5.085097e+03
1.386569e+03,5.075505e+03
1.389462e+03,5.069646e+03
1.392355e+03,5.039677e+03
1.395247e+03,5.037991e+03
1.398140e+03,5.047579e+03
1.401033e+03,5.044908e+03
1.403926e+03,5.031665e+03
1.406818e+03,5.001775e+03
1.409711e+03,5.037123e+03
1.412604e+03,5.032365e+03
1.415496e+03,5.008675e+03
1.418389e+03,5.003708e+03
1.421282e+03,5.014817e+03
1.424174e+03,4.972747e+03
1.427067e+03,5.020876e+03
1.429960e+03,5.005399e+03
1.432853e+03,5.000087e+03
1.435745e+03,5.006355e+03
1.438638e+03,4.979724e+03
1.441531e+03,4.994335e+03
1.444423e+03,4.982846e+03
1.447316e+03,5.015172e+03
1.450209e+03,4.988303e+03
1.453101e+03,4.963946e+03
1.455994e+03,4.964229e+03
1.458887e+03,4.966302e+03
1.461780e+03,4.965666e+03
1.464672e+03,4.974323e+03
1.467565e+03,4.926382e+03
1.470458e+03,4.928386e+03
1.473350e+03,4.919797e+03
1.476243e+03,4.926678e+03
1.479136e+03,4.907429e+03
1.482028e+03,4.919043e+03
1.484921e+03,4.913115e+03
1.487814e+03,4.913165e+03
1.490707e+03,4.916554e+03
1.493599e+03,4.896896e+03
1.496492e+03,4.908173e+03
1.499385e+03,4.882900e+03
1.502277e+03,4.885314e+03
1.505170e+03,4.888915e+03
1.508063e+03,4.871674e+03
1.510955e+03,4.849221e+03
1.513848e+03,4.889914e+03
1.516741e+03,4.870810e+03
1.519634e+03,4.923581e+03
1.522526e+03,4.965117e+03
1.525419e+03,5.039806e+03
1.528312e+03,4.965438e+03
1.531204e+03,4.890957e+03
1.534097e+03,4.900056e+03
1.536990e+03,4.862785e+03
1.539882e+03,4.856016e+03
1.542775e+03,4.849607e+03
1.545668e+03,4.837036e+03
1.548561e+03,4.831030e+03
1.551453e+03,4.856791e+03
1.554346e+03,4.833323e+03
1.557239e+03,4.825049e+03
1.560131e+03,4.821170e+03
1.563024e+03,4.794010e+03
1.565917e+03,4.785038e+03
1.568809e+03,4.779025e+03
1.571702e+03,4.780994e+03
1.574595e+03,4.744172e+03
1.577488e+03,4.760020e+03
1.580380e+03,4.751702e+03
1.583273e+03,4.768908e+03
1.586166e+03,4.732108e+03
1.589058e+03,4.735428e+03
1.591951e+03,4.738167e+03
1.594844e+03,4.739502e+03
1.597736e+03,4.710154e+03
1.600629e+03,4.727008e+03
1.603522e+03,4.702621e+03
1.606415e+03,4.690437e+03
1.609307e+03,4.701370e+03
1.612200e+03,4.673455e+03
1.615093e+03,4.655536e+03
1.617985e+03,4.661162e+03
1.620878e+03,4.640365e+03
1.623771e+03,4.642181e+03
1.626663e+03,4.644792e+03
1.629556e+03,4.653424e+03
1.632449e+03,4.632908e+03
1.635342e+03,4.622334e+03
1.638234e+03,4.609286e+03
1.641127e+03,4.594758e+03
1.644020e+03,4.595186e+03
1.646912e+03,4.594808e+03
1.649805e+03,4.556917e+03
1.652698e+03,4.557019e+03
1.655590e+03,4.578146e+03
1.658483e+03,4.573801e+03
1.661376e+03,4.572348e+03
1.664269e+03,4.552391e+03
1.667161e+03,4.522350e+03
1.670054e+03,4.525846e+03
1.672947e+03,4.534894e+03
1.675839e+03,4.517968e+03
1.678732e+03,4.528252e+03
1.681625e+03,4.497699e+03
1.684517e+03,4.494357e+03
1.687410e+03,4.500001e+03
1.690303e+03,4.499544e+03
1.693196e+03,4.500167e+03
1.696088e+03,4.484496e+03
1.698981e+03,4.479405e+03
1.701874e+03,4.459830e+03
1.704766e+03,4.443167e+03
1.707659e+03,4.476819e+03
1.710552e+03,4.447493e+03
1.713444e+03,4.464594e+03
1.716337e+03,4.455986e+03
1.719230e+03,4.445640e+03
1.722123e+03,4.412495e+03
1.725015e+03,4.428469e+03
1.727908e+03,4.413561e+03
1.730801e+03,4.391243e+03
1.733693e+03,4.384647e+03
1.736586e+03,4.394077e+03
1.739479e+03,4.406435e+03
1.742371e+03,4.395579e+03
1.745264e+03,4.368810e+03
1.748157e+03,4.357371e+03
1.751050e+03,4.354737e+03
1.753942e+03,4.353693e+03
1.756835e+03,4.368506e+03
1.759728e+03,4.345302e+03
1.762620e+03,4.327534e+03
1.765513e+03,4.341049e+03
1.768406e+03,4.315817e+03
1.771298e+03,4.307710e+03
1.774191e+03,4.329327e+03
1.777084e+03,4.290917e+03
1.779977e+03,4.293520e+03
1.782869e+03,4.302611e+03
1.785762e+03,4.296740e+03
1.788655e+03,4.271064e+03
1.791547e+03,4.252507e+03
1.794440e+03,4.260778e+03
1.797333e+03,4.278732e+03
1.800225e+03,4.241551e+03
1.803118e+03,4.249845e+03
1.806011e+03,4.228314e+03
1.808904e+03,4.254102e+03
1.811796e+03,4.212385e+03
1.814689e+03,4.241899e+03
1.817582e+03,4.224393e+03
1.820474e+03,4.217929e+03
1.823367e+03,4.195018e+03
1.826260e+03,4.203503e+03
1.829152e+03,4.186862e+03
1.832045e+03,4.205336e+03
1.834938e+03,4.210506e+03
1.837831e+03,4.147409e+03
1.840723e+03,4.163771e+03
1.843616e+03,4.183053e+03
1.846509e+03,4.164460e+03
1.849401e+03,4.144495e+03
1.852294e+03,4.128577e+03
1.855187e+03,4.118762e+03
1.858079e+03,4.133790e+03
1.860972e+03,4.127519e+03
1.863865e+03,4.118218e+03
1.866758e+03,4.119997e+03
1.869650e+03,4.088796e+03
1.872543e+03,4.088366e+03
1.875436e+03,4.096481e+03
1.878328e+03,4.080988e+03
1.881221e+03,4.066542e+03
1.884114e+03,4.064001e+03
1.887006e+03,4.052375e+03
1.889899e+03,4.070428e+03
1.892792e+03,4.046828e+03
1.895685e+03,4.037262e+03
1.898577e+03,4.034696e+03
1.901470e+03,4.013081e+03
1.904363e+03,4.066079e+03
1.907255e+03,4.018453e+03
1.910148e+03,4.039404e+03
1.913041e+03,3.990929e+03
1.915933e+03,3.979523e+03
1.918826e+03,3.972544e+03
1.921719e+03,3.985848e+03
1.924612e+03,3.967027e+03
1.927504e+03,3.964070e+03
1.930397e+03,3.964090e+03
1.933290e+03,3.953876e+03
1.936182e+03,3.959794e+03
1.939075e+03,3.958651e+03
1.941968e+03,3.914595e+03
1.944860e+03,3.937201e+03
1.947753e+03,3.895494e+03
1.950646e+03,3.913560e+03
1.953539e+03,3.904504e+03
1.956431e+03,3.902081e+03
1.959324e+03,3.887437e+03
1.962217e+03,3.890326e+03
1.965109e+03,3.898554e+03
1.968002e+03,3.876911e+03
1.970895e+03,3.854466e+03
1.973787e+03,3.848767e+03
1.976680e+03,3.857093e+03
1.979573e+03,3.832226e+03
1.982466e+03,3.827609e+03
1.985358e+03,3.834950e+03
1.988251e+03,3.842655e+03
1.991144e+03,3.800656e+03
1.994036e+03,3.817204e+03
1.996929e+03,3.832140e+03
1.999822e+03,3.780698e+03
2.002714e+03,3.808005e+03
2.005607e+03,3.804632e+03
2.008500e+03,3.780427e+03
2.011393e+03,3.765180e+03
2.014285e+03,3.779677e+03
2.017178e+03,3.787709e+03
2.020071e+03,3.743429e+03
2.022963e+03,3.735405e+03
2.025856e+03,3.712211e+03
2.028749e+03,3.741987e+03
2.031641e+03,3.702410e+03
2.034534e+03,3.698555e+03
2.037427e+03,3.704172e+03
2.040320e+03,3.684239e+03
2.043212e+03,3.681195e+03
2.046105e+03,3.702315e+03
2.048998e+03,3.666398e+03
2.051890e+03,3.661078e+03
2.054783e+03,3.654415e+03
2.057676e+03,3.640086e+03
2.060568e+03,3.627121e+03
2.063461e+03,3.624936e+03
2.066354e+03,3.605901e+03
2.069247e+03,3.619793e+03
2.072139e+03,3.611200e+03
2.075032e+03,3.608061e+03
2.077925e+03,3.623128e+03
2.080817e+03,3.580897e+03
2.083710e+03,3.592748e+03
2.086603e+03,3.551436e+03
2.089496e+03,3.562529e+03
2.092388e+03,3.553223e+03
2.095281e+03,3.566595e+03
2.098174e+03,3.559823e+03
2.101066e+03,3.555133e+03
2.103959e+03,3.546507e+03
2.106852e+03,3.511951e+03
2.109744e+03,3.533559e+03
2.112637e+03,3.546113e+03
2.115530e+03,3.487841e+03
2.118422e+03,3.470067e+03
2.121315e+03,3.525057e+03
2.124208e+03,3.504890e+03
2.127101e+03,3.479219e+03
2.129993e+03,3.476418e+03
2.132886e+03,3.465207e+03
2.135779e+03,3.440796e+03
2.138671e+03,3.476138e+03
2.141564e+03,3.430769e+03
2.144457e+03,3.449823e+03
2.147350e+03,3.423447e+03
2.150242e+03,3.427738e+03
2.153135e+03,3.436216e+03
2.156028e+03,3.411544e+03
2.158920e+03,3.408448e+03
2.161813e+03,3.392108e+03
2.164706e+03,3.383083e+03
2.167598e+03,3.384049e+03
2.170491e+03,3.381140e+03
2.173384e+03,3.390198e+03
2.176277e+03,3.357903e+03
2.179169e+03,3.355644e+03
2.182062e+03,3.345574e+03
2.184955e+03,3.329651e+03
2.187847e+03,3.302219e+03
2.190740e+03,3.338493e+03
2.193633e+03,3.337985e+03
2.196525e+03,3.304755e+03
2.199418e+03,3.303899e+03
2.202311e+03,3.303277e+03
2.205204e+03,3.303973e+03
2.208096e+03,3.306180e+03
2.210989e+03,3.257034e+03
2.213882e+03,3.274157e+03
2.216774e+03,3.271018e+03
2.219667e+03,3.286853e+03
2.222560e+03,3.279793e+03
2.225452e+03,3.234817e+03
2.228345e+03,3.222398e+03
2.231238e+03,3.241303e+03
2.234131e+03,3.235833e+03
2.237023e+03,3.213177e+03
2.239916e+03,3.184081e+03
2.242809e+03,3.181926e+03
2.245701e+03,3.186876e+03
2.248594e+03,3.184946e+03
2.251487e+03,3.182015e+03
2.254379e+03,3.182596e+03
2.257272e+03,3.149519e+03
2.260165e+03,3.133609e+03
2.263058e+03,3.142875e+03
2.265950e+03,3.166892e+03
2.268843e+03,3.126125e+03
2.271736e+03,3.113115e+03
2.274628e+03,3.129029e+03
2.277521e+03,3.095403e+03
2.280414e+03,3.128758e+03
2.283306e+03,3.115992e+03
2.286199e+03,3.074412e+03
2.289092e+03,3.077982e+03
2.291985e+03,3.061344e+03
2.294877e+03,3.041873e+03
2.297770e+03,3.075962e+03
2.300663e+03,3.084926e+03
2.303555e+03,3.043599e+03
2.306448e+03,3.019958e+03
2.309341e+03,3.050345e+03
2.312233e+03,3.027555e+03
2.315126e+03,3.036809e+03
2.318019e+03,3.021687e+03
2.320912e+03,3.017287e+03
2.323804e+03,3.000115e+03
2.326697e+03,2.997753e+03
2.329590e+03,3.011117e+03
2.332482e+03,2.990485e+03
2.335375e+03,2.968375e+03
2.338268e+03,2.980953e+03
2.341160e+03,2.966511e+03
2.344053e+03,2.977056e+03
2.346946e+03,2.958922e+03
2.349839e+03,2.969103e+03
2.352731e+03,2.948535e+03
2.355624e+03,2.971883e+03
2.358517e+03,2.958566e+03
2.361409e+03,2.930789e+03
2.364302e+03,2.918190e+03
2.367195e+03,2.899766e+03
2.370087e+03,2.904777e+03
2.372980e+03,2.921723e+03
2.375873e+03,2.908630e+03
2.378766e+03,2.889739e+03
2.381658e+03,2.902828e+03
2.384551e+03,2.894028e+03
2.387444e+03,2.886310e+03
2.390336e+03,2.896995e+03
2.393229e+03,2.837358e+03
2.396122e+03,2.866105e+03
2.399014e+03,2.846844e+03
2.401907e+03,2.866421e+03
2.404800e+03,2.835221e+03
2.407693e+03,2.834972e+03
2.410585e+03,2.830970e+03
2.413478e+03,2.837391e+03
2.416371e+03,2.829566e+03
2.419263e+03,2.822497e+03
2.422156e+03,2.827520e+03
2.425049e+03,2.785871e+03
2.427941e+03,2.794194e+03
2.430834e+03,2.797370e+03
2.433727e+03,2.785660e+03
2.436620e+03,2.782594e+03
2.439512e+03,2.791998e+03
2.442405e+03,2.757469e+03
2.445298e+03,2.747582e+03
2.448190e+03,2.753500e+03
2.451083e+03,2.748988e+03
2.453976e+03,2.768737e+03
2.456868e+03,2.740071e+03
2.459761e+03,2.714478e+03
2.462654e+03,2.714802e+03
2.465547e+03,2.714589e+03
2.468439e+03,2.699868e+03
2.471332e+03,2.725359e+03
2.474225e+03,2.691795e+03
2.477117e+03,2.671930e+03
2.480010e+03,2.681654e+03
2.482903e+03,2.719540e+03
2.485795e+03,2.695881e+03
2.488688e+03,2.673505e+03
2.491581e+03,2.670725e+03
2.494474e+03,2.656879e+03
2.497366e+03,2.693472e+03
2.500259e+03,2.657102e+03
2.503152e+03,2.653184e+03
2.506044e+03,2.611996e+03
2.508937e+03,2.638161e+03
2.511830e+03,2.638057e+03
2.514722e+03,2.635717e+03
2.517615e+03,2.644337e+03
2.520508e+03,2.612745e+03
2.523401e+03,2.599434e+03
2.526293e+03,2.613384e+03
2.529186e+03,2.589917e+03
2.532079e+03,2.623486e+03
2.534971e+03,2.598912e+03
2.537864e+03,2.582234e+03
2.540757e+03,2.605602e+03
2.543649e+03,2.575812e+03
2.546542e+03,2.573138e+03
2.549435e+03,2.592381e+03
2.552328e+03,2.560045e+03
2.555220e+03,2.590595e+03
2.558113e+03,2.566722e+03
2.561006e+03,2.574304e+03
2.563898e+03,2.546345e+03
2.566791e+03,2.540313e+03
2.569684e+03,2.575858e+03
2.572576e+03,2.517652e+03
2.575469e+03,2.543043e+03
2.578362e+03,2.535911e+03
2.581255e+03,2.505519e+03
2.584147e+03,2.534224e+03
2.587040e+03,2.519464e+03
2.589933e+03,2.513421e+03
2.592825e+03,2.512494e+03
2.595718e+03,2.507869e+03
2.598611e+03,2.485671e+03
2.601503e+03,2.503292e+03
2.604396e+03,2.486435e+03
2.607289e+03,2.498710e+03
2.610182e+03,2.480678e+03
2.613074e+03,2.487321e+03
2.615967e+03,2.492204e+03
2.618860e+03,2.457815e+03
2.621752e+03,2.471111e+03
2.624645e+03,2.466761e+03
2.627538e+03,2.422403e+03
2.630430e+03,2.419594e+03
2.633323e+03,2.441975e+03
2.636216e+03,2.420828e+03
2.639109e+03,2.439477e+03
2.642001e+03,2.432951e+03
2.644894e+03,2.425846e+03
2.647787e+03,2.418637e+03
2.650679e+03,2.411488e+03
2.653572e+03,2.399354e+03
2.656465e+03,2.390132e+03
2.659357e+03,2.390450e+03
2.662250e+03,2.420291e+03
2.665143e+03,2.397894e+03
2.668036e+03,2.398034e+03
2.670928e+03,2.376430e+03
2.673821e+03,2.368388e+03
2.676714e+03,2.360776e+03
2.679606e+03,2.381257e+03
2.682499e+03,2.350660e+03
2.685392e+03,2.347662e+03
2.688284e+03,2.372364e+03
2.691177e+03,2.360013e+03
2.694070e+03,2.350531e+03
2.696963e+03,2.339643e+03
2.699855e+03,2.351857e+03
2.702748e+03,2.348386e+03
2.705641e+03,2.311659e+03
2.708533e+03,2.317825e+03
2.711426e+03,2.309816e+03
2.714319e+03,2.311592e+03
2.717211e+03,2.318819e+03
2.720104e+03,2.297359e+03
2.722997e+03,2.289663e+03
2.725890e+03,2.300523e+03
2.728782e+03,2.307616e+03
2.731675e+03,2.278320e+03
2.734568e+03,2.271351e+03
2.737460e+03,2.270373e+03
2.740353e+03,2.284723e+03
2.743246e+03,2.266767e+03
2.746138e+03,2.251527e+03
2.749031e+03,2.268466e+03
2.751924e+03,2.243417e+03
2.754817e+03,2.246983e+03
2.757709e+03,2.238761e+03
2.760602e+03,2.274697e+03
2.763495e+03,2.223151e+03
2.766387e+03,2.222595e+03
2.769280e+03,2.238769e+03
2.772173e+03,2.235243e+03
2.775065e+03,2.218201e+03
2.777958e+03,2.245965e+03
2.780851e+03,2.229392e+03
2.783744e+03,2.223268e+03
2.786636e+03,2.215030e+03
2.789529e+03,2.212760e+03
2.792422e+03,2.218039e+03
2.795314e+03,2.187429e+03
2.798207e+03,2.175963e+03
2.801100e+03,2.214725e+03
2.803992e+03,2.182879e+03
2.806885e+03,2.166995e+03
2.809778e+03,2.142925e+03
2.812671e+03,2.164357e+03
2.815563e+03,2.177459e+03
2.818456e+03,2.173412e+03
2.821349e+03,2.159258e+03
2.824241e+03,2.149935e+03
2.827134e+03,2.133428e+03
2.830027e+03,2.165687e+03
2.832919e+03,2.170111e+03
2.835812e+03,2.163887e+03
2.838705e+03,2.149576e+03
2.841598e+03,2.145520e+03
2.844490e+03,2.172086e+03
2.847383e+03,2.187423e+03
2.850276e+03,2.140321e+03
2.853168e+03,2.142941e+03
2.856061e+03,2.153743e+03
2.858954e+03,2.114606e+03
2.861846e+03,2.143077e+03
2.864739e+03,2.127198e+03
2.867632e+03,2.120700e+03
2.870525e+03,2.133338e+03
2.873417e+03,2.127143e+03
2.876310e+03,2.091153e+03
2.879203e+03,2.110243e+03
2.882095e+03,2.104091e+03
2.884988e+03,2.107290e+03
2.887881e+03,2.091737e+03
2.890773e+03,2.117250e+03
2.893666e+03,2.106420e+03
2.896559e+03,2.089716e+03
2.899452e+03,2.137460e+03
2.902344e+03,2.111690e+03
2.905237e+03,2.096062e+03
2.908130e+03,2.063810e+03
2.911022e+03,2.068971e+03
2.913915e+03,2.082957e+03
2.916808e+03,2.090040e+03
2.919700e+03,2.097460e+03
2.922593e+03,2.049838e+03
2.925486e+03,2.055956e+03
2.928379e+03,2.036875e+03
2.931271e+03,2.061405e+03
2.934164e+03,2.109037e+03
2.937057e+03,2.019743e+03
2.939949e+03,2.017330e+03
2.942842e+03,2.065748e+03
2.945735e+03,2.070238e+03
2.948627e+03,2.023894e+03
2.951520e+03,2.024087e+03
2.954413e+03,2.028041e+03
2.957306e+03,2.032263e+03
2.960198e+03,2.026324e+03
2.963091e+03,2.034986e+03
2.965984e+03,2.009719e+03
2.968876e+03,2.024867e+03
2.971769e+03,2.006634e+03
2.974662e+03,1.993827e+03
2.977554e+03,2.028511e+03
2.980447e+03,2.005261e+03
2.983340e+03,1.986551e+03
2.986233e+03,1.995953e+03
2.989125e+03,1.965206e+03
2.992018e+03,1.980622e+03
2.994911e+03,1.958881e+03
2.997803e+03,1.963753e+03
3.000696e+03,1.958579e+03
3.003589e+03,1.942009e+03
3.006481e+03,1.951750e+03
3.009374e+03,1.996934e+03
3.012267e+03,1.990091e+03
3.015160e+03,1.923542e+03
3.018052e+03,1.968185e+03
3.020945e+03,1.982833e+03
3.023838e+03,1.944272e+03
3.026730e+03,1.981724e+03
3.029623e+03,1.971762e+03
3.032516e+03,1.985284e+03
3.035408e+03,1.942009e+03
3.038301e+03,1.947048e+03
3.041194e+03,1.961277e+03
3.044087e+03,1.937587e+03
3.046979e+03,1.985521e+03
3.049872e+03,1.935626e+03
3.052765e+03,1.953583e+03
3.055657e+03,1.955298e+03
3.058550e+03,1.941137e+03
3.061443e+03,1.984316e+03
3.064335e+03,1.907211e+03
3.067228e+03,1.956383e+03
3.070121e+03,1.951058e+03
3.073014e+03,1.892749e+03
3.075906e+03,1.975303e+03
3.078799e+03,1.908801e+03
3.081692e+03,1.902884e+03
3.084584e+03,1.932890e+03
3.087477e+03,1.955820e+03
3.090370e+03,1.887980e+03
3.093262e+03,1.910246e+03
3.096155e+03,1.925962e+03
3.099048e+03,1.907987e+03
3.101941e+03,1.896320e+03
3.104833e+03,1.860380e+03
3.107726e+03,1.929147e+03
3.110619e+03,1.868912e+03
3.113511e+03,1.858331e+03
3.116404e+03,1.921369e+03
3.119297e+03,1.941057e+03
3.122189e+03,1.868797e+03
3.125082e+03,1.915835e+03
3.127975e+03,1.905601e+03
3.130868e+03,1.927791e+03
3.133760e+03,1.885911e+03
3.136653e+03,1.921685e+03
3.139546e+03,1.864885e+03
3.142438e+03,1.881062e+03
3.145331e+03,1.856207e+03
3.148224e+03,1.925840e+03
3.151116e+03,1.916643e+03
3.154009e+03,1.911505e+03
3.156902e+03,1.906118e+03
3.159795e+03,1.831566e+03
3.162687e+03,1.907761e+03
3.165580e+03,1.902545e+03
3.168473e+03,1.887975e+03
3.171365e+03,1.848178e+03
3.174258e+03,1.912401e+03
3.177151e+03,1.895255e+03
3.180043e+03,1.868447e+03
3.182936e+03,1.897855e+03
3.185829e+03,1.876707e+03
3.188722e+03,1.839127e+03
3.191614e+03,1.922354e+03
3.194507e+03,1.877835e+03
3.197400e+03,1.897375e+03
3.200292e+03,1.924464e+03
3.203185e+03,0.000000e+00
3.206078e+03,0.000000e+00
3.208970e+03,0.000000e+00
3.211863e+03,0.000000e+00
3.214756e+03,0.000000e+00
3.217649e+03,0.000000e+00
3.220541e+03,0.000000e+00
3.223434e+03,0.000000e+00
3.226327e+03,0.000000e+00
3.229219e+03,0.000000e+00
3.232112e+03,0.000000e+00
3.235005e+03,0.000000e+00
3.237897e+03,0.000000e+00
3.240790e+03,0.000000e+00
3.243683e+03,0.000000e+00
3.246576e+03,0.000000e+00
3.249468e+03,0.000000e+00
3.252361e+03,0.000000e+00
3.255254e+03,0.000000e+00
3.258146e+03,0.000000e+00
3.261039e+03,0.000000e+00
3.263932e+03,0.000000e+00
3.266824e+03,0.000000e+00
3.269717e+03,0.000000e+00
3.272610e+03,0.000000e+00
3.275503e+03,0.000000e+00
3.278395e+03,0.000000e+00
3.281288e+03,0.000000e+00
3.284181e+03,0.000000e+00
3.287073e+03,0.000000e+00
3.289966e+03,0.000000e+00
3.292859e+03,0.000000e+00
3.295751e+03,0.000000e+00
3.298644e+03,0.000000e+00
3.301537e+03,0.000000e+00
3.304430e+03,0.000000e+00
3.307322e+03,0.000000e+00
3.310215e+03,0.000000e+00
3.313108e+03,0.000000e+00
3.316000e+03,0.000000e+00
3.318893e+03,0.000000e+00
3.321786e+03,0.000000e+00
3.324678e+03,0.000000e+00
3.327571e+03,0.000000e+00
3.330464e+03,0.000000e+00
3.333357e+03,0.000000e+00
3.336249e+03,0.000000e+00
3.339142e+03,0.000000e+00
3.342035e+03,0.000000e+00
3.344927e+03,0.000000e+00
3.347820e+03,0.000000e+00
3.350713e+03,0.000000e+00
3.353605e+03,0.000000e+00
3.356498e+03,0.000000e+00
3.359391e+03,0.000000e+00
3.362284e+03,0.000000e+00
3.365176e+03,0.000000e+00
3.368069e+03,0.000000e+00
3.370962e+03,0.000000e+00
3.373854e+03,0.000000e+00
3.376747e+03,0.000000e+00
3.379640e+03,0.000000e+00
3.382532e+03,0.000000e+00
3.385425e+03,0.000000e+00
3.388318e+03,0.000000e+00
3.391211e+03,0.000000e+00
3.394103e+03,0.000000e+00
3.396996e+03,0.000000e+00
3.399889e+03,0.000000e+00
3.402781e+03,0.000000e+00
3.405674e+03,0.000000e+00
3.408567e+03,0.000000e+00
3.411459e+03,0.000000e+00
3.414352e+03,0.000000e+00
3.417245e+03,0.000000e+00
3.420138e+03,0.000000e+00
3.423030e+03,0.000000e+00
3.425923e+03,0.000000e+00
3.428816e+03,0.000000e+00
3.431708e+03,0.000000e+00
3.434601e+03,0.000000e+00
3.437494e+03,0.000000e+00
3.440386e+03,0.000000e+00
3.443279e+03,0.000000e+00
3.446172e+03,0.000000e+00
3.449065e+03,0.000000e+00
3.451957e+03,0.000000e+00
3.454850e+03,0.000000e+00
3.457743e+03,0.000000e+00
3.460635e+03,0.000000e+00
3.463528e+03,0.000000e+00
3.466421e+03,0.000000e+00
3.469313e+03,0.000000e+00
3.472206e+03,0.000000e+00
3.475099e+03,0.000000e+00
3.477992e+03,0.000000e+00
3.480884e+03,0.000000e+00
3.483777e+03,0.000000e+00
3.486670e+03,0.000000e+00
3.489563e+03,0.000000e+00
3.492455e+03,0.000000e+00
3.495348e+03,0.000000e+00
3.498240e+03,0.000000e+00
3.500169e+03,0.000000e+00