File: RAMAN_data/13112023_r2/blue frag1.CSV
9.931763e+01,0.000000e+00
1.022103e+02,0.000000e+00
1.051030e+02,0.000000e+00
1.079957e+02,0.000000e+00
1.108884e+02,0.000000e+00
1.137811e+02,0.000000e+00
1.166738e+02,0.000000e+00
1.195665e+02,0.000000e+00
1.224592e+02,0.000000e+00
1.253519e+02,0.000000e+00
1.282446e+02,0.000000e+00
1.311373e+02,0.000000e+00
1.340300e+02,0.000000e+00
1.369227e+02,0.000000e+00
1.398154e+02,0.000000e+00
1.427081e+02,0.000000e+00
1.456008e+02,0.000000e+00
1.484935e+02,0.000000e+00
1.513862e+02,0.000000e+00
1.542789e+02,0.000000e+00
1.571716e+02,0.000000e+00
1.600643e+02,0.000000e+00
1.629570e+02,0.000000e+00
1.658497e+02,0.000000e+00
1.687424e+02,0.000000e+00
1.716351e+02,0.000000e+00
1.745278e+02,0.000000e+00
1.774205e+02,0.000000e+00
1.803132e+02,0.000000e+00
1.832059e+02,0.000000e+00
1.860986e+02,0.000000e+00
1.889913e+02,0.000000e+00
1.918840e+02,0.000000e+00
1.947767e+02,0.000000e+00
1.976694e+02,0.000000e+00
2.005621e+02,5.085412e+03
2.034548e+02,5.107894e+03
2.063475e+02,5.124148e+03
2.092402e+02,5.099005e+03
2.121329e+02,5.105570e+03
2.150256e+02,5.127195e+03
2.179183e+02,5.138630e+03
2.208110e+02,5.151858e+03
2.237037e+02,5.162814e+03
2.265964e+02,5.158244e+03
2.294892e+02,5.156540e+03
2.323819e+02,5.176217e+03
2.352746e+02,5.186287e+03
2.381673e+02,5.189222e+03
2.410600e+02,5.178976e+03
2.439527e+02,5.194712e+03
2.468454e+02,5.187991e+03
2.497381e+02,5.215414e+03
2.526308e+02,5.226278e+03
2.555235e+02,5.199768e+03
2.584161e+02,5.211163e+03
2.613088e+02,5.219014e+03
2.642015e+02,5.272439e+03
2.670942e+02,5.285519e+03
2.699869e+02,5.277722e+03
2.728796e+02,5.236614e+03
2.757723e+02,5.261493e+03
2.786650e+02,5.290451e+03
2.815577e+02,5.315329e+03
2.844504e+02,5.312269e+03
2.873431e+02,5.306870e+03
2.902358e+02,5.314024e+03
2.931285e+02,5.319594e+03
2.960212e+02,5.332214e+03
2.989139e+02,5.335169e+03
3.018066e+02,5.346601e+03
3.046993e+02,5.341876e+03
3.075920e+02,5.347620e+03
3.104847e+02,5.362938e+03
3.133774e+02,5.360354e+03
3.162701e+02,5.367517e+03
3.191628e+02,5.382539e+03
3.220555e+02,5.383978e+03
3.249482e+02,5.396725e+03
3.278409e+02,5.397003e+03
3.307336e+02,5.429163e+03
3.336263e+02,5.398418e+03
3.365190e+02,5.399747e+03
3.394117e+02,5.411679e+03
3.423044e+02,5.428386e+03
3.451971e+02,5.419235e+03
3.480898e+02,5.429767e+03
3.509825e+02,5.421894e+03
3.538752e+02,5.433158e+03
3.567680e+02,5.458511e+03
3.596607e+02,5.450567e+03
3.625534e+02,5.458936e+03
3.654461e+02,5.468072e+03
3.683388e+02,5.457326e+03
3.712315e+02,5.470873e+03
3.741242e+02,5.476524e+03
3.770169e+02,5.502126e+03
3.799096e+02,5.502544e+03
3.828023e+02,5.488169e+03
3.856950e+02,5.488850e+03
3.885877e+02,5.501095e+03
3.914804e+02,5.494931e+03
3.943731e+02,5.516362e+03
3.972658e+02,5.492812e+03
4.001585e+02,5.486952e+03
4.030512e+02,5.516603e+03
4.059439e+02,5.505506e+03
4.088366e+02,5.508175e+03
4.117293e+02,5.530243e+03
4.146220e+02,5.530323e+03
4.175147e+02,5.525494e+03
4.204074e+02,5.532817e+03
4.233001e+02,5.555990e+03
4.261928e+02,5.529831e+03
4.290855e+02,5.539697e+03
4.319782e+02,5.559273e+03
4.348709e+02,5.575687e+03
4.377636e+02,5.584326e+03
4.406563e+02,5.571553e+03
4.435490e+02,5.573755e+03
4.464417e+02,5.530034e+03
4.493344e+02,5.548553e+03
4.522271e+02,5.579668e+03
4.551198e+02,5.589768e+03
4.580125e+02,5.557628e+03
4.609052e+02,5.570614e+03
4.637979e+02,5.574944e+03
4.666906e+02,5.573345e+03
4.695833e+02,5.588490e+03
4.724760e+02,5.558813e+03
4.753687e+02,5.570118e+03
4.782614e+02,5.575064e+03
4.811541e+02,5.577165e+03
4.840468e+02,5.593632e+03
4.869395e+02,5.620964e+03
4.898322e+02,5.623106e+03
4.927249e+02,5.590971e+03
4.956176e+02,5.604594e+03
4.985103e+02,5.586343e+03
5.014030e+02,5.622202e+03
5.042957e+02,5.592296e+03
5.071884e+02,5.603747e+03
5.100811e+02,5.611647e+03
5.129738e+02,5.605142e+03
5.158665e+02,5.627281e+03
5.187592e+02,5.623589e+03
5.216519e+02,5.608005e+03
5.245446e+02,5.617330e+03
5.274373e+02,5.603070e+03
5.303300e+02,5.633000e+03
5.332227e+02,5.634968e+03
5.361154e+02,5.593907e+03
5.390081e+02,5.617246e+03
5.419008e+02,5.633677e+03
5.447935e+02,5.595260e+03
5.476862e+02,5.630493e+03
5.505789e+02,5.614057e+03
5.534716e+02,5.601935e+03
5.563643e+02,5.618214e+03
5.592570e+02,5.634869e+03
5.621497e+02,5.643318e+03
5.650424e+02,5.614660e+03
5.679351e+02,5.624463e+03
5.708278e+02,5.628672e+03
5.737205e+02,5.641910e+03
5.766132e+02,5.654146e+03
5.795059e+02,5.641106e+03
5.823986e+02,5.652140e+03
5.852913e+02,5.629089e+03
5.881840e+02,5.610265e+03
5.910767e+02,5.630803e+03
5.939694e+02,5.648302e+03
5.968621e+02,5.644172e+03
5.997548e+02,5.671084e+03
6.026475e+02,5.661753e+03
6.055402e+02,5.678195e+03
6.084329e+02,5.681803e+03
6.113256e+02,5.637191e+03
6.142183e+02,5.636234e+03
6.171110e+02,5.640568e+03
6.200037e+02,5.623392e+03
6.228964e+02,5.652397e+03
6.257891e+02,5.679311e+03
6.286818e+02,5.640370e+03
6.315745e+02,5.642897e+03
6.344672e+02,5.661011e+03
6.373599e+02,5.662077e+03
6.402526e+02,5.676545e+03
6.431453e+02,5.656781e+03
6.460380e+02,5.642807e+03
6.489307e+02,5.652067e+03
6.518234e+02,5.681364e+03
6.547161e+02,5.663123e+03
6.576088e+02,5.648301e+03
6.605015e+02,5.630181e+03
6.633942e+02,5.630650e+03
6.662869e+02,5.641700e+03
6.691796e+02,5.641614e+03
6.720723e+02,5.634675e+03
6.749650e+02,5.637763e+03
6.778577e+02,5.619942e+03
6.807504e+02,5.650796e+03
6.836431e+02,5.642058e+03
6.865358e+02,5.623253e+03
6.894285e+02,5.619798e+03
6.923212e+02,5.652759e+03
6.952139e+02,5.614331e+03
6.981066e+02,5.629989e+03
7.009993e+02,5.644005e+03
7.038920e+02,5.629169e+03
7.067847e+02,5.638011e+03
7.096774e+02,5.612730e+03
7.125701e+02,5.664292e+03
7.154628e+02,5.614518e+03
7.183555e+02,5.635629e+03
7.212482e+02,5.619549e+03
7.241409e+02,5.630479e+03
7.270336e+02,5.633017e+03
7.299263e+02,5.617167e+03
7.328190e+02,5.616560e+03
7.357117e+02,5.592751e+03
7.386044e+02,5.622719e+03
7.414971e+02,5.605058e+03
7.443898e+02,5.640472e+03
7.472825e+02,5.650417e+03
7.501752e+02,5.616881e+03
7.530679e+02,5.596346e+03
7.559606e+02,5.602882e+03
7.588533e+02,5.612855e+03
7.617460e+02,5.611555e+03
7.646387e+02,5.598126e+03
7.675314e+02,5.593126e+03
7.704241e+02,5.573367e+03
7.733168e+02,5.579063e+03
7.762095e+02,5.588754e+03
7.791022e+02,5.583740e+03
7.819949e+02,5.579835e+03
7.848876e+02,5.587586e+03
7.877803e+02,5.581573e+03
7.906730e+02,5.584688e+03
7.935657e+02,5.587711e+03
7.964584e+02,5.574317e+03
7.993511e+02,5.570386e+03
8.022438e+02,5.560227e+03
8.051365e+02,5.574253e+03
8.080292e+02,5.576824e+03
8.109219e+02,5.564476e+03
8.138146e+02,5.549347e+03
8.167073e+02,5.544334e+03
8.196000e+02,5.548534e+03
8.224927e+02,5.547615e+03
8.253854e+02,5.542263e+03
8.282781e+02,5.518869e+03
8.311708e+02,5.548058e+03
8.340635e+02,5.569875e+03
8.369562e+02,5.546977e+03
8.398489e+02,5.539845e+03
8.427416e+02,5.522980e+03
8.456343e+02,5.535878e+03
8.485270e+02,5.493504e+03
8.514197e+02,5.506299e+03
8.543124e+02,5.535727e+03
8.572051e+02,5.538819e+03
8.600978e+02,5.524930e+03
8.629905e+02,5.523603e+03
8.658832e+02,5.508905e+03
8.687759e+02,5.510483e+03
8.716686e+02,5.517328e+03
8.745613e+02,5.504963e+03
8.774540e+02,5.488180e+03
8.803467e+02,5.498005e+03
8.832394e+02,5.514717e+03
8.861321e+02,5.514125e+03
8.890248e+02,5.519875e+03
8.919175e+02,5.496429e+03
8.948102e+02,5.493338e+03
8.977029e+02,5.502200e+03
9.005956e+02,5.500063e+03
9.034883e+02,5.504142e+03
9.063810e+02,5.472744e+03
9.092737e+02,5.482279e+03
9.121664e+02,5.475530e+03
9.150591e+02,5.466615e+03
9.179518e+02,5.465528e+03
9.208445e+02,5.430679e+03
9.237372e+02,5.430189e+03
9.266299e+02,5.459092e+03
9.295226e+02,5.443329e+03
9.324153e+02,5.418109e+03
9.353080e+02,5.450469e+03
9.382007e+02,5.427667e+03
9.410934e+02,5.434795e+03
9.439861e+02,5.438517e+03
9.468788e+02,5.415787e+03
9.497715e+02,5.432888e+03
9.526642e+02,5.433283e+03
9.555569e+02,5.420266e+03
9.584496e+02,5.406750e+03
9.613423e+02,5.417486e+03
9.642350e+02,5.417028e+03
9.671277e+02,5.407349e+03
9.700204e+02,5.398847e+03
9.729131e+02,5.383235e+03
9.758058e+02,5.395525e+03
9.786985e+02,5.398747e+03
9.815912e+02,5.393421e+03
9.844839e+02,5.389773e+03
9.873766e+02,5.382957e+03
9.902693e+02,5.373208e+03
9.931620e+02,5.376707e+03
9.960547e+02,5.393323e+03
9.989474e+02,5.384259e+03
1.001840e+03,5.360625e+03
1.004733e+03,5.360345e+03
1.007626e+03,5.343811e+03
1.010518e+03,5.366075e+03
1.013411e+03,5.340474e+03
1.016304e+03,5.339682e+03
1.019196e+03,5.331437e+03
1.022089e+03,5.328213e+03
1.024982e+03,5.357682e+03
1.027875e+03,5.347991e+03
1.030767e+03,5.344593e+03
1.033660e+03,5.350038e+03
1.036552e+03,5.337702e+03
1.039445e+03,5.343371e+03
1.042338e+03,5.340716e+03
1.045231e+03,5.320854e+03
1.048123e+03,5.326405e+03
1.051016e+03,5.313128e+03
1.053909e+03,5.327966e+03
1.056802e+03,5.315921e+03
1.059694e+03,5.311639e+03
1.062587e+03,5.317243e+03
1.065479e+03,5.310662e+03
1.068372e+03,5.295405e+03
1.071265e+03,5.307662e+03
1.074158e+03,5.321793e+03
1.077050e+03,5.282904e+03
1.079943e+03,5.301964e+03
1.082836e+03,5.315226e+03
1.085729e+03,5.325235e+03
1.088621e+03,5.321761e+03
1.091514e+03,5.328929e+03
1.094406e+03,5.322220e+03
1.097299e+03,5.313304e+03
1.100192e+03,5.320233e+03
1.103085e+03,5.294227e+03
1.105977e+03,5.293218e+03
1.108870e+03,5.257751e+03
1.111763e+03,5.243502e+03
1.114656e+03,5.287253e+03
1.117548e+03,5.301510e+03
1.120441e+03,5.274015e+03
1.123334e+03,5.259289e+03
1.126226e+03,5.258625e+03
1.129119e+03,5.241885e+03
1.132012e+03,5.246773e+03
1.134904e+03,5.242400e+03
1.137797e+03,5.219448e+03
1.140690e+03,5.234239e+03
1.143583e+03,5.239305e+03
1.146475e+03,5.228118e+03
1.149368e+03,5.227959e+03
1.152261e+03,5.231654e+03
1.155153e+03,5.229837e+03
1.158046e+03,5.207115e+03
1.160939e+03,5.212251e+03
1.163831e+03,5.223365e+03
1.166724e+03,5.205626e+03
1.169617e+03,5.187197e+03
1.172510e+03,5.181518e+03
1.175402e+03,5.164542e+03
1.178295e+03,5.194692e+03
1.181188e+03,5.191157e+03
1.184080e+03,5.173905e+03
1.186973e+03,5.170334e+03
1.189866e+03,5.158703e+03
1.192758e+03,5.182308e+03
1.195651e+03,5.175964e+03
1.198544e+03,5.175217e+03
1.201437e+03,5.155040e+03
1.204329e+03,5.142663e+03
1.207222e+03,5.129658e+03
1.210115e+03,5.154554e+03
1.213007e+03,5.160125e+03
1.215900e+03,5.156262e+03
1.218793e+03,5.142912e+03
1.221685e+03,5.139314e+03
1.224578e+03,5.120415e+03
1.227471e+03,5.115076e+03
1.230364e+03,5.121587e+03
1.233256e+03,5.102467e+03
1.236149e+03,5.100096e+03
1.239042e+03,5.116868e+03
1.241934e+03,5.103623e+03
1.244827e+03,5.121837e+03
1.247720e+03,5.096382e+03
1.250612e+03,5.098922e+03
1.253505e+03,5.104217e+03
1.256398e+03,5.098728e+03
1.259291e+03,5.098045e+03
1.262183e+03,5.092237e+03
1.265076e+03,5.100850e+03
1.267969e+03,5.078349e+03
1.270861e+03,5.117867e+03
1.273754e+03,5.117819e+03
1.276647e+03,5.106084e+03
1.279539e+03,5.086223e+03
1.282432e+03,5.080013e+03
1.285325e+03,5.074669e+03
1.288218e+03,5.084830e+03
1.291110e+03,5.069717e+03
1.294003e+03,5.080153e+03
1.296896e+03,5.056675e+03
1.299788e+03,5.046759e+03
1.302681e+03,5.056811e+03
1.305574e+03,5.064963e+03
1.308466e+03,5.065744e+03
1.311359e+03,5.029377e+03
1.314252e+03,5.034740e+03
1.317145e+03,5.026623e+03
1.320037e+03,5.045708e+03
1.322930e+03,5.050484e+03
1.325823e+03,5.045734e+03
1.328715e+03,5.054016e+03
1.331608e+03,5.077558e+03
1.334501e+03,5.069851e+03
1.337393e+03,5.073215e+03
1.340286e+03,5.054149e+03
1.343179e+03,5.039730e+03
1.346072e+03,5.038182e+03
1.348964e+03,5.027728e+03
1.351857e+03,5.018029e+03
1.354750e+03,5.014000e+03
1.357642e+03,5.024197e+03
1.360535e+03,5.011323e+03
1.363428e+03,5.009387e+03
1.366320e+03,5.021607e+03
1.369213e+03,4.987748e+03
1.372106e+03,5.002571e+03
1.374999e+03,4.996608e+03
1.377891e+03,5.012329e+03
1.380784e+03,5.001405e+03
1.383677e+03,4.986859e+03
1.386569e+03,4.967525e+03
1.389462e+03,4.970186e+03
1.392355e+03,4.968833e+03
1.395247e+03,4.958424e+03
1.398140e+03,4.961520e+03
1.401033e+03,4.955901e+03
1.403926e+03,4.940569e+03
1.406818e+03,4.929492e+03
1.409711e+03,4.909020e+03
1.412604e+03,4.949270e+03
1.415496e+03,4.943015e+03
1.418389e+03,4.886792e+03
1.421282e+03,4.926161e+03
1.424174e+03,4.910560e+03
1.427067e+03,4.893718e+03
1.429960e+03,4.909986e+03
1.432853e+03,4.906435e+03
1.435745e+03,4.887072e+03
1.438638e+03,4.878901e+03
1.441531e+03,4.883075e+03
1.444423e+03,4.907056e+03
1.447316e+03,4.856229e+03
1.450209e+03,4.878848e+03
1.453101e+03,4.868867e+03
1.455994e+03,4.868846e+03
1.458887e+03,4.857108e+03
1.461780e+03,4.887963e+03
1.464672e+03,4.844366e+03
1.467565e+03,4.850959e+03
1.470458e+03,4.859607e+03
1.473350e+03,4.842885e+03
1.476243e+03,4.845145e+03
1.479136e+03,4.835623e+03
1.482028e+03,4.816115e+03
1.484921e+03,4.804206e+03
1.487814e+03,4.822461e+03
1.490707e+03,4.821345e+03
1.493599e+03,4.810249e+03
1.496492e+03,4.810120e+03
1.499385e+03,4.805551e+03
1.502277e+03,4.796634e+03
1.505170e+03,4.799188e+03
1.508063e+03,4.790674e+03
1.510955e+03,4.786818e+03
1.513848e+03,4.786396e+03
1.516741e+03,4.771923e+03
1.519634e+03,4.765148e+03
1.522526e+03,4.786071e+03
1.525419e+03,4.779362e+03
1.528312e+03,4.746247e+03
1.531204e+03,4.781528e+03
1.534097e+03,4.791805e+03
1.536990e+03,4.765317e+03
1.539882e+03,4.786331e+03
1.542775e+03,4.775087e+03
1.545668e+03,4.750349e+03
1.548561e+03,4.746695e+03
1.551453e+03,4.734973e+03
1.554346e+03,4.743521e+03
1.557239e+03,4.708761e+03
1.560131e+03,4.739445e+03
1.563024e+03,4.725092e+03
1.565917e+03,4.707828e+03
1.568809e+03,4.710065e+03
1.571702e+03,4.702696e+03
1.574595e+03,4.691716e+03
1.577488e+03,4.679786e+03
1.580380e+03,4.707321e+03
1.583273e+03,4.698305e+03
1.586166e+03,4.692632e+03
1.589058e+03,4.666452e+03
1.591951e+03,4.675747e+03
1.594844e+03,4.663098e+03
1.597736e+03,4.652646e+03
1.600629e+03,4.662661e+03
1.603522e+03,4.633763e+03
1.606415e+03,4.623368e+03
1.609307e+03,4.631765e+03
1.612200e+03,4.630608e+03
1.615093e+03,4.623953e+03
1.617985e+03,4.607365e+03
1.620878e+03,4.619303e+03
1.623771e+03,4.604437e+03
1.626663e+03,4.587821e+03
1.629556e+03,4.599656e+03
1.632449e+03,4.570463e+03
1.635342e+03,4.550806e+03
1.638234e+03,4.563659e+03
1.641127e+03,4.534102e+03
1.644020e+03,4.546953e+03
1.646912e+03,4.538284e+03
1.649805e+03,4.544008e+03
1.652698e+03,4.519067e+03
1.655590e+03,4.520531e+03
1.658483e+03,4.495822e+03
1.661376e+03,4.497756e+03
1.664269e+03,4.500905e+03
1.667161e+03,4.488397e+03
1.670054e+03,4.468921e+03
1.672947e+03,4.473211e+03
1.675839e+03,4.489589e+03
1.678732e+03,4.464314e+03
1.681625e+03,4.465395e+03
1.684517e+03,4.466570e+03
1.687410e+03,4.453557e+03
1.690303e+03,4.436538e+03
1.693196e+03,4.450333e+03
1.696088e+03,4.440639e+03
1.698981e+03,4.408731e+03
1.701874e+03,4.418914e+03
1.704766e+03,4.427686e+03
1.707659e+03,4.425647e+03
1.710552e+03,4.416460e+03
1.713444e+03,4.402638e+03
1.716337e+03,4.387321e+03
1.719230e+03,4.397630e+03
1.722123e+03,4.371638e+03
1.725015e+03,4.380588e+03
1.727908e+03,4.369586e+03
1.730801e+03,4.344819e+03
1.733693e+03,4.338940e+03
1.736586e+03,4.380135e+03
1.739479e+03,4.319913e+03
1.742371e+03,4.316282e+03
1.745264e+03,4.330044e+03
1.748157e+03,4.306232e+03
1.751050e+03,4.342561e+03
1.753942e+03,4.303387e+03
1.756835e+03,4.297708e+03
1.759728e+03,4.289786e+03
1.762620e+03,4.288509e+03
1.765513e+03,4.296788e+03
1.768406e+03,4.283860e+03
1.771298e+03,4.281914e+03
1.774191e+03,4.263728e+03
1.777084e+03,4.247550e+03
1.779977e+03,4.231614e+03
1.782869e+03,4.242309e+03
1.785762e+03,4.238666e+03
1.788655e+03,4.229857e+03
1.791547e+03,4.208514e+03
1.794440e+03,4.204132e+03
1.797333e+03,4.212863e+03
1.800225e+03,4.212288e+03
1.803118e+03,4.206244e+03
1.806011e+03,4.194112e+03
1.808904e+03,4.212655e+03
1.811796e+03,4.183820e+03
1.814689e+03,4.168600e+03
1.817582e+03,4.176126e+03
1.820474e+03,4.160487e+03
1.823367e+03,4.162990e+03
1.826260e+03,4.158840e+03
1.829152e+03,4.142800e+03
1.832045e+03,4.133620e+03
1.834938e+03,4.112512e+03
1.837831e+03,4.099104e+03
1.840723e+03,4.098544e+03
1.843616e+03,4.129412e+03
1.846509e+03,4.099146e+03
1.849401e+03,4.094641e+03
1.852294e+03,4.121841e+03
1.855187e+03,4.070453e+03
1.858079e+03,4.061720e+03
1.860972e+03,4.073136e+03
1.863865e+03,4.074823e+03
1.866758e+03,4.056601e+03
1.869650e+03,4.047758e+03
1.872543e+03,4.050204e+03
1.875436e+03,4.034949e+03
1.878328e+03,4.027408e+03
1.881221e+03,4.046638e+03
1.884114e+03,4.006213e+03
1.887006e+03,3.997825e+03
1.889899e+03,3.984619e+03
1.892792e+03,3.978747e+03
1.895685e+03,3.986104e+03
1.898577e+03,3.976957e+03
1.901470e+03,3.974558e+03
1.904363e+03,3.975806e+03
1.907255e+03,3.969625e+03
1.910148e+03,3.948527e+03
1.913041e+03,3.951308e+03
1.915933e+03,3.949027e+03
1.918826e+03,3.952640e+03
1.921719e+03,3.902114e+03
1.924612e+03,3.916125e+03
1.927504e+03,3.907901e+03
1.930397e+03,3.888971e+03
1.933290e+03,3.869443e+03
1.936182e+03,3.908871e+03
1.939075e+03,3.881235e+03
1.941968e+03,3.860657e+03
1.944860e+03,3.867000e+03
1.947753e+03,3.846372e+03
1.950646e+03,3.844246e+03
1.953539e+03,3.861759e+03
1.956431e+03,3.814365e+03
1.959324e+03,3.828417e+03
1.962217e+03,3.835992e+03
1.965109e+03,3.842004e+03
1.968002e+03,3.821033e+03
1.970895e+03,3.812589e+03
1.973787e+03,3.807712e+03
1.976680e+03,3.772552e+03
1.979573e+03,3.786820e+03
1.982466e+03,3.765708e+03
1.985358e+03,3.773218e+03
1.988251e+03,3.775041e+03
1.991144e+03,3.754862e+03
1.994036e+03,3.739618e+03
1.996929e+03,3.732765e+03
1.999822e+03,3.735157e+03
2.002714e+03,3.749010e+03
2.005607e+03,3.731374e+03
2.008500e+03,3.720848e+03
2.011393e+03,3.688549e+03
2.014285e+03,3.722904e+03
2.017178e+03,3.712965e+03
2.020071e+03,3.705723e+03
2.022963e+03,3.672726e+03
2.025856e+03,3.661381e+03
2.028749e+03,3.658751e+03
2.031641e+03,3.657630e+03
2.034534e+03,3.646196e+03
2.037427e+03,3.631997e+03
2.040320e+03,3.629207e+03
2.043212e+03,3.606284e+03
2.046105e+03,3.619976e+03
2.048998e+03,3.635692e+03
2.051890e+03,3.614891e+03
2.054783e+03,3.581086e+03
2.057676e+03,3.590308e+03
2.060568e+03,3.572635e+03
2.063461e+03,3.595526e+03
2.066354e+03,3.589770e+03
2.069247e+03,3.565849e+03
2.072139e+03,3.532635e+03
2.075032e+03,3.543453e+03
2.077925e+03,3.548305e+03
2.080817e+03,3.549141e+03
2.083710e+03,3.533688e+03
2.086603e+03,3.493919e+03
2.089496e+03,3.512624e+03
2.092388e+03,3.477079e+03
2.095281e+03,3.520065e+03
2.098174e+03,3.507597e+03
2.101066e+03,3.496618e+03
2.103959e+03,3.447584e+03
2.106852e+03,3.471002e+03
2.109744e+03,3.486095e+03
2.112637e+03,3.429727e+03
2.115530e+03,3.445813e+03
2.118422e+03,3.416437e+03
2.121315e+03,3.463503e+03
2.124208e+03,3.444627e+03
2.127101e+03,3.414471e+03
2.129993e+03,3.396936e+03
2.132886e+03,3.396672e+03
2.135779e+03,3.401796e+03
2.138671e+03,3.411481e+03
2.141564e+03,3.355250e+03
2.144457e+03,3.383454e+03
2.147350e+03,3.346746e+03
2.150242e+03,3.343411e+03
2.153135e+03,3.364266e+03
2.156028e+03,3.338150e+03
2.158920e+03,3.342459e+03
2.161813e+03,3.332489e+03
2.164706e+03,3.303277e+03
2.167598e+03,3.311744e+03
2.170491e+03,3.333043e+03
2.173384e+03,3.313246e+03
2.176277e+03,3.328354e+03
2.179169e+03,3.302574e+03
2.182062e+03,3.276240e+03
2.184955e+03,3.284483e+03
2.187847e+03,3.260254e+03
2.190740e+03,3.251653e+03
2.193633e+03,3.257765e+03
2.196525e+03,3.259243e+03
2.199418e+03,3.248417e+03
2.202311e+03,3.253371e+03
2.205204e+03,3.263602e+03
2.208096e+03,3.238013e+03
2.210989e+03,3.183993e+03
2.213882e+03,3.185712e+03
2.216774e+03,3.194487e+03
2.219667e+03,3.199219e+03
2.222560e+03,3.171189e+03
2.225452e+03,3.191931e+03
2.228345e+03,3.163284e+03
2.231238e+03,3.180243e+03
2.234131e+03,3.198016e+03
2.237023e+03,3.171039e+03
2.239916e+03,3.135253e+03
2.242809e+03,3.141761e+03
2.245701e+03,3.109301e+03
2.248594e+03,3.124822e+03
2.251487e+03,3.135793e+03
2.254379e+03,3.128371e+03
2.257272e+03,3.123175e+03
2.260165e+03,3.074135e+03
2.263058e+03,3.092638e+03
2.265950e+03,3.091486e+03
2.268843e+03,3.051111e+03
2.271736e+03,3.083673e+03
2.274628e+03,3.060346e+03
2.277521e+03,3.053300e+03
2.280414e+03,3.072372e+03
2.283306e+03,3.046673e+03
2.286199e+03,3.037582e+03
2.289092e+03,3.029272e+03
2.291985e+03,3.018759e+03
2.294877e+03,3.014001e+03
2.297770e+03,3.021390e+03
2.300663e+03,3.026360e+03
2.303555e+03,3.018874e+03
2.306448e+03,3.006729e+03
2.309341e+03,2.992676e+03
2.312233e+03,2.980859e+03
2.315126e+03,2.986642e+03
2.318019e+03,2.975681e+03
2.320912e+03,2.974954e+03
2.323804e+03,2.944435e+03
2.326697e+03,2.984619e+03
2.329590e+03,2.958763e+03
2.332482e+03,2.938366e+03
2.335375e+03,2.951729e+03
2.338268e+03,2.925228e+03
2.341160e+03,2.927139e+03
2.344053e+03,2.939808e+03
2.346946e+03,2.902717e+03
2.349839e+03,2.909533e+03
2.352731e+03,2.921073e+03
2.355624e+03,2.903749e+03
2.358517e+03,2.899860e+03
2.361409e+03,2.901644e+03
2.364302e+03,2.854804e+03
2.367195e+03,2.852778e+03
2.370087e+03,2.868585e+03
2.372980e+03,2.845025e+03
2.375873e+03,2.868652e+03
2.378766e+03,2.847396e+03
2.381658e+03,2.826905e+03
2.384551e+03,2.820084e+03
2.387444e+03,2.823704e+03
2.390336e+03,2.840360e+03
2.393229e+03,2.832024e+03
2.396122e+03,2.801484e+03
2.399014e+03,2.800111e+03
2.401907e+03,2.813496e+03
2.404800e+03,2.799215e+03
2.407693e+03,2.786896e+03
2.410585e+03,2.777941e+03
2.413478e+03,2.769042e+03
2.416371e+03,2.790299e+03
2.419263e+03,2.787211e+03
2.422156e+03,2.750934e+03
2.425049e+03,2.734054e+03
2.427941e+03,2.753610e+03
2.430834e+03,2.738129e+03
2.433727e+03,2.742322e+03
2.436620e+03,2.754117e+03
2.439512e+03,2.729965e+03
2.442405e+03,2.729747e+03
2.445298e+03,2.701485e+03
2.448190e+03,2.699659e+03
2.451083e+03,2.711106e+03
2.453976e+03,2.704091e+03
2.456868e+03,2.687219e+03
2.459761e+03,2.695046e+03
2.462654e+03,2.670838e+03
2.465547e+03,2.681867e+03
2.468439e+03,2.656185e+03
2.471332e+03,2.645466e+03
2.474225e+03,2.658933e+03
2.477117e+03,2.678715e+03
2.480010e+03,2.677795e+03
2.482903e+03,2.668120e+03
2.485795e+03,2.640621e+03
2.488688e+03,2.641041e+03
2.491581e+03,2.633738e+03
2.494474e+03,2.622845e+03
2.497366e+03,2.643380e+03
2.500259e+03,2.627048e+03
2.503152e+03,2.607304e+03
2.506044e+03,2.600501e+03
2.508937e+03,2.585759e+03
2.511830e+03,2.582029e+03
2.514722e+03,2.580978e+03
2.517615e+03,2.602073e+03
2.520508e+03,2.563116e+03
2.523401e+03,2.571496e+03
2.526293e+03,2.584566e+03
2.529186e+03,2.570832e+03
2.532079e+03,2.582583e+03
2.534971e+03,2.592074e+03
2.537864e+03,2.556883e+03
2.540757e+03,2.576897e+03
2.543649e+03,2.506716e+03
2.546542e+03,2.554524e+03
2.549435e+03,2.536910e+03
2.552328e+03,2.536696e+03
2.555220e+03,2.534093e+03
2.558113e+03,2.499456e+03
2.561006e+03,2.518847e+03
2.563898e+03,2.521819e+03
2.566791e+03,2.525316e+03
2.569684e+03,2.519845e+03
2.572576e+03,2.511976e+03
2.575469e+03,2.501474e+03
2.578362e+03,2.497363e+03
2.581255e+03,2.481622e+03
2.584147e+03,2.473958e+03
2.587040e+03,2.492128e+03
2.589933e+03,2.482896e+03
2.592825e+03,2.466945e+03
2.595718e+03,2.456776e+03
2.598611e+03,2.449853e+03
2.601503e+03,2.439057e+03
2.604396e+03,2.453555e+03
2.607289e+03,2.452140e+03
2.610182e+03,2.432195e+03
2.613074e+03,2.473876e+03
2.615967e+03,2.450539e+03
2.618860e+03,2.436165e+03
2.621752e+03,2.420701e+03
2.624645e+03,2.425802e+03
2.627538e+03,2.433589e+03
2.630430e+03,2.377968e+03
2.633323e+03,2.386878e+03
2.636216e+03,2.399783e+03
2.639109e+03,2.409453e+03
2.642001e+03,2.406128e+03
2.644894e+03,2.376743e+03
2.647787e+03,2.386506e+03
2.650679e+03,2.358263e+03
2.653572e+03,2.379019e+03
2.656465e+03,2.372697e+03
2.659357e+03,2.368317e+03
2.662250e+03,2.350209e+03
2.665143e+03,2.360862e+03
2.668036e+03,2.368812e+03
2.670928e+03,2.344242e+03
2.673821e+03,2.359420e+03
2.676714e+03,2.316047e+03
2.679606e+03,2.334109e+03
2.682499e+03,2.325423e+03
2.685392e+03,2.293629e+03
2.688284e+03,2.324869e+03
2.691177e+03,2.335847e+03
2.694070e+03,2.312385e+03
2.696963e+03,2.297647e+03
2.699855e+03,2.294267e+03
2.702748e+03,2.295568e+03
2.705641e+03,2.284554e+03
2.708533e+03,2.287222e+03
2.711426e+03,2.271775e+03
2.714319e+03,2.320238e+03
2.717211e+03,2.292180e+03
2.720104e+03,2.262360e+03
2.722997e+03,2.275844e+03
2.725890e+03,2.257031e+03
2.728782e+03,2.276935e+03
2.731675e+03,2.260419e+03
2.734568e+03,2.256564e+03
2.737460e+03,2.262311e+03
2.740353e+03,2.246486e+03
2.743246e+03,2.246624e+03
2.746138e+03,2.215570e+03
2.749031e+03,2.243903e+03
2.751924e+03,2.203363e+03
2.754817e+03,2.234633e+03
2.757709e+03,2.242067e+03
2.760602e+03,2.216091e+03
2.763495e+03,2.227190e+03
2.766387e+03,2.241458e+03
2.769280e+03,2.214318e+03
2.772173e+03,2.218771e+03
2.775065e+03,2.233556e+03
2.777958e+03,2.177141e+03
2.780851e+03,2.189550e+03
2.783744e+03,2.173245e+03
2.786636e+03,2.147456e+03
2.789529e+03,2.154544e+03
2.792422e+03,2.147600e+03
2.795314e+03,2.182063e+03
2.798207e+03,2.176612e+03
2.801100e+03,2.173358e+03
2.803992e+03,2.129057e+03
2.806885e+03,2.146143e+03
2.809778e+03,2.142566e+03
2.812671e+03,2.162005e+03
2.815563e+03,2.126260e+03
2.818456e+03,2.139540e+03
2.821349e+03,2.136646e+03
2.824241e+03,2.143083e+03
2.827134e+03,2.134442e+03
2.830027e+03,2.114406e+03
2.832919e+03,2.125790e+03
2.835812e+03,2.131724e+03
2.838705e+03,2.121248e+03
2.841598e+03,2.157641e+03
2.844490e+03,2.128652e+03
2.847383e+03,2.134875e+03
2.850276e+03,2.078188e+03
2.853168e+03,2.112366e+03
2.856061e+03,2.083156e+03
2.858954e+03,2.093744e+03
2.861846e+03,2.101301e+03
2.864739e+03,2.076890e+03
2.867632e+03,2.090087e+03
2.870525e+03,2.101262e+03
2.873417e+03,2.079856e+03
2.876310e+03,2.109400e+03
2.879203e+03,2.113663e+03
2.882095e+03,2.078437e+03
2.884988e+03,2.120134e+03
2.887881e+03,2.068711e+03
2.890773e+03,2.089994e+03
2.893666e+03,2.128264e+03
2.896559e+03,2.075177e+03
2.899452e+03,2.083183e+03
2.902344e+03,2.095482e+03
2.905237e+03,2.068884e+03
2.908130e+03,2.075691e+03
2.911022e+03,2.070177e+03
2.913915e+03,2.052682e+03
2.916808e+03,2.044335e+03
2.919700e+03,2.052351e+03
2.922593e+03,2.027756e+03
2.925486e+03,2.034878e+03
2.928379e+03,2.005809e+03
2.931271e+03,1.997200e+03
2.934164e+03,2.025200e+03
2.937057e+03,1.968569e+03
2.939949e+03,1.986329e+03
2.942842e+03,2.030313e+03
2.945735e+03,2.039310e+03
2.948627e+03,2.016120e+03
2.951520e+03,1.996942e+03
2.954413e+03,2.009656e+03
2.957306e+03,2.014174e+03
2.960198e+03,1.982827e+03
2.963091e+03,1.961683e+03
2.965984e+03,1.972984e+03
2.968876e+03,1.940791e+03
2.971769e+03,1.935334e+03
2.974662e+03,1.966594e+03
2.977554e+03,1.921004e+03
2.980447e+03,1.946614e+03
2.983340e+03,1.966193e+03
2.986233e+03,1.901162e+03
2.989125e+03,1.896123e+03
2.992018e+03,1.923591e+03
2.994911e+03,1.934282e+03
2.997803e+03,1.949301e+03
3.000696e+03,1.907341e+03
3.003589e+03,1.894081e+03
3.006481e+03,1.939878e+03
3.009374e+03,1.893374e+03
3.012267e+03,1.927375e+03
3.015160e+03,1.908094e+03
3.018052e+03,1.905339e+03
3.020945e+03,1.887385e+03
3.023838e+03,1.851345e+03
3.026730e+03,1.900666e+03
3.029623e+03,1.891901e+03
3.032516e+03,1.897119e+03
3.035408e+03,1.895041e+03
3.038301e+03,1.876531e+03
3.041194e+03,1.859388e+03
3.044087e+03,1.860663e+03
3.046979e+03,1.917756e+03
3.049872e+03,1.901832e+03
3.052765e+03,1.880258e+03
3.055657e+03,1.870667e+03
3.058550e+03,1.886001e+03
3.061443e+03,1.852017e+03
3.064335e+03,1.846815e+03
3.067228e+03,1.833278e+03
3.070121e+03,1.854859e+03
3.073014e+03,1.843269e+03
3.075906e+03,1.868723e+03
3.078799e+03,1.865916e+03
3.081692e+03,1.875872e+03
3.084584e+03,1.833160e+03
3.087477e+03,1.855718e+03
3.090370e+03,1.833331e+03
3.093262e+03,1.819136e+03
3.096155e+03,1.849885e+03
3.099048e+03,1.832183e+03
3.101941e+03,1.820858e+03
3.104833e+03,1.838170e+03
3.107726e+03,1.847064e+03
3.110619e+03,1.790951e+03
3.113511e+03,1.805491e+03
3.116404e+03,1.822896e+03
3.119297e+03,1.805687e+03
3.122189e+03,1.796350e+03
3.125082e+03,1.791598e+03
3.127975e+03,1.822581e+03
3.130868e+03,1.849479e+03
3.133760e+03,1.833822e+03
3.136653e+03,1.800250e+03
3.139546e+03,1.822147e+03
3.142438e+03,1.819988e+03
3.145331e+03,1.780146e+03
3.148224e+03,1.829764e+03
3.151116e+03,1.747571e+03
3.154009e+03,1.831289e+03
3.156902e+03,1.844601e+03
3.159795e+03,1.760082e+03
3.162687e+03,1.757547e+03
3.165580e+03,1.818507e+03
3.168473e+03,1.818152e+03
3.171365e+03,1.809784e+03
3.174258e+03,1.791258e+03
3.177151e+03,1.792702e+03
3.180043e+03,1.818256e+03
3.182936e+03,1.797066e+03
3.185829e+03,1.758552e+03
3.188722e+03,1.774936e+03
3.191614e+03,1.770327e+03
3.194507e+03,1.778313e+03
3.197400e+03,1.789663e+03
3.200292e+03,1.783368e+03
3.203185e+03,0.000000e+00
3.206078e+03,0.000000e+00
3.208970e+03,0.000000e+00
3.211863e+03,0.000000e+00
3.214756e+03,0.000000e+00
3.217649e+03,0.000000e+00
3.220541e+03,0.000000e+00
3.223434e+03,0.000000e+00
3.226327e+03,0.000000e+00
3.229219e+03,0.000000e+00
3.232112e+03,0.000000e+00
3.235005e+03,0.000000e+00
3.237897e+03,0.000000e+00
3.240790e+03,0.000000e+00
3.243683e+03,0.000000e+00
3.246576e+03,0.000000e+00
3.249468e+03,0.000000e+00
3.252361e+03,0.000000e+00
3.255254e+03,0.000000e+00
3.258146e+03,0.000000e+00
3.261039e+03,0.000000e+00
3.263932e+03,0.000000e+00
3.266824e+03,0.000000e+00
3.269717e+03,0.000000e+00
3.272610e+03,0.000000e+00
3.275503e+03,0.000000e+00
3.278395e+03,0.000000e+00
3.281288e+03,0.000000e+00
3.284181e+03,0.000000e+00
3.287073e+03,0.000000e+00
3.289966e+03,0.000000e+00
3.292859e+03,0.000000e+00
3.295751e+03,0.000000e+00
3.298644e+03,0.000000e+00
3.301537e+03,0.000000e+00
3.304430e+03,0.000000e+00
3.307322e+03,0.000000e+00
3.310215e+03,0.000000e+00
3.313108e+03,0.000000e+00
3.316000e+03,0.000000e+00
3.318893e+03,0.000000e+00
3.321786e+03,0.000000e+00
3.324678e+03,0.000000e+00
3.327571e+03,0.000000e+00
3.330464e+03,0.000000e+00
3.333357e+03,0.000000e+00
3.336249e+03,0.000000e+00
3.339142e+03,0.000000e+00
3.342035e+03,0.000000e+00
3.344927e+03,0.000000e+00
3.347820e+03,0.000000e+00
3.350713e+03,0.000000e+00
3.353605e+03,0.000000e+00
3.356498e+03,0.000000e+00
3.359391e+03,0.000000e+00
3.362284e+03,0.000000e+00
3.365176e+03,0.000000e+00
3.368069e+03,0.000000e+00
3.370962e+03,0.000000e+00
3.373854e+03,0.000000e+00
3.376747e+03,0.000000e+00
3.379640e+03,0.000000e+00
3.382532e+03,0.000000e+00
3.385425e+03,0.000000e+00
3.388318e+03,0.000000e+00
3.391211e+03,0.000000e+00
3.394103e+03,0.000000e+00
3.396996e+03,0.000000e+00
3.399889e+03,0.000000e+00
3.402781e+03,0.000000e+00
3.405674e+03,0.000000e+00
3.408567e+03,0.000000e+00
3.411459e+03,0.000000e+00
3.414352e+03,0.000000e+00
3.417245e+03,0.000000e+00
3.420138e+03,0.000000e+00
3.423030e+03,0.000000e+00
3.425923e+03,0.000000e+00
3.428816e+03,0.000000e+00
3.431708e+03,0.000000e+00
3.434601e+03,0.000000e+00
3.437494e+03,0.000000e+00
3.440386e+03,0.000000e+00
3.443279e+03,0.000000e+00
3.446172e+03,0.000000e+00
3.449065e+03,0.000000e+00
3.451957e+03,0.000000e+00
3.454850e+03,0.000000e+00
3.457743e+03,0.000000e+00
3.460635e+03,0.000000e+00
3.463528e+03,0.000000e+00
3.466421e+03,0.000000e+00
3.469313e+03,0.000000e+00
3.472206e+03,0.000000e+00
3.475099e+03,0.000000e+00
3.477992e+03,0.000000e+00
3.480884e+03,0.000000e+00
3.483777e+03,0.000000e+00
3.486670e+03,0.000000e+00
3.489563e+03,0.000000e+00
3.492455e+03,0.000000e+00
3.495348e+03,0.000000e+00
3.498240e+03,0.000000e+00
3.500169e+03,0.000000e+00