File: RAMAN_data/06022023_r1/black fibre1.CSV
1.995979e+02,2.088856e+03
2.024906e+02,2.089958e+03
2.053833e+02,2.100260e+03
2.082760e+02,2.111538e+03
2.111687e+02,2.110136e+03
2.140614e+02,2.101937e+03
2.169541e+02,2.104712e+03
2.198468e+02,2.108191e+03
2.227395e+02,2.114875e+03
2.256322e+02,2.108485e+03
2.285249e+02,2.103520e+03
2.314176e+02,2.109145e+03
2.343103e+02,2.123246e+03
2.372030e+02,2.129446e+03
2.400957e+02,2.120868e+03
2.429884e+02,2.117056e+03
2.458811e+02,2.121921e+03
2.487738e+02,2.132814e+03
2.516665e+02,2.138908e+03
2.545592e+02,2.131302e+03
2.574519e+02,2.131875e+03
2.603446e+02,2.137461e+03
2.632373e+02,2.131406e+03
2.661300e+02,2.152292e+03
2.690227e+02,2.149505e+03
2.719154e+02,2.156414e+03
2.748081e+02,2.150145e+03
2.777008e+02,2.150703e+03
2.805935e+02,2.152762e+03
2.834862e+02,2.158943e+03
2.863789e+02,2.148378e+03
2.892716e+02,2.147341e+03
2.921643e+02,2.147374e+03
2.950570e+02,2.149825e+03
2.979497e+02,2.155380e+03
3.008424e+02,2.159149e+03
3.037351e+02,2.163177e+03
3.066278e+02,2.158934e+03
3.095205e+02,2.160970e+03
3.124132e+02,2.163740e+03
3.153059e+02,2.161278e+03
3.181986e+02,2.168656e+03
3.210913e+02,2.161414e+03
3.239840e+02,2.176714e+03
3.268767e+02,2.167911e+03
3.297694e+02,2.176442e+03
3.326621e+02,2.174437e+03
3.355548e+02,2.167662e+03
3.384475e+02,2.171659e+03
3.413402e+02,2.175602e+03
3.442329e+02,2.166590e+03
3.471256e+02,2.178701e+03
3.500183e+02,2.165917e+03
3.529110e+02,2.175147e+03
3.558037e+02,2.167027e+03
3.586964e+02,2.182428e+03
3.615891e+02,2.179698e+03
3.644818e+02,2.167017e+03
3.673745e+02,2.179738e+03
3.702672e+02,2.180000e+03
3.731599e+02,2.193928e+03
3.760526e+02,2.196680e+03
3.789453e+02,2.201487e+03
3.818380e+02,2.185538e+03
3.847307e+02,2.172210e+03
3.876234e+02,2.175983e+03
3.905161e+02,2.176001e+03
3.934088e+02,2.169631e+03
3.963015e+02,2.168407e+03
3.991942e+02,2.161856e+03
4.020869e+02,2.161673e+03
4.049796e+02,2.159626e+03
4.078723e+02,2.170510e+03
4.107650e+02,2.161097e+03
4.136577e+02,2.164593e+03
4.165504e+02,2.159935e+03
4.194431e+02,2.160627e+03
4.223358e+02,2.157314e+03
4.252285e+02,2.168698e+03
4.281212e+02,2.177261e+03
4.310139e+02,2.197033e+03
4.339066e+02,2.169630e+03
4.367993e+02,2.177319e+03
4.396920e+02,2.163176e+03
4.425847e+02,2.170881e+03
4.454774e+02,2.167678e+03
4.483701e+02,2.163483e+03
4.512628e+02,2.175873e+03
4.541555e+02,2.168548e+03
4.570482e+02,2.159129e+03
4.599409e+02,2.163989e+03
4.628336e+02,2.148651e+03
4.657263e+02,2.139162e+03
4.686190e+02,2.147336e+03
4.715117e+02,2.155669e+03
4.744044e+02,2.143311e+03
4.772971e+02,2.134137e+03
4.801898e+02,2.159598e+03
4.830825e+02,2.149545e+03
4.859752e+02,2.167810e+03
4.888679e+02,2.172622e+03
4.917606e+02,2.162508e+03
4.946533e+02,2.152206e+03
4.975460e+02,2.142855e+03
5.004387e+02,2.141906e+03
5.033314e+02,2.135177e+03
5.062241e+02,2.141674e+03
5.091168e+02,2.135772e+03
5.120095e+02,2.142385e+03
5.149022e+02,2.147865e+03
5.177949e+02,2.136822e+03
5.206876e+02,2.119474e+03
5.235803e+02,2.116247e+03
5.264730e+02,2.131268e+03
5.293657e+02,2.115974e+03
5.322584e+02,2.117391e+03
5.351511e+02,2.115747e+03
5.380438e+02,2.105641e+03
5.409365e+02,2.094383e+03
5.438292e+02,2.106110e+03
5.467219e+02,2.115632e+03
5.496146e+02,2.118821e+03
5.525073e+02,2.114019e+03
5.554000e+02,2.111833e+03
5.582927e+02,2.112010e+03
5.611854e+02,2.116188e+03
5.640781e+02,2.106527e+03
5.669708e+02,2.084610e+03
5.698635e+02,2.076128e+03
5.727562e+02,2.096375e+03
5.756489e+02,2.098364e+03
5.785416e+02,2.097724e+03
5.814343e+02,2.090205e+03
5.843270e+02,2.090650e+03
5.872197e+02,2.093786e+03
5.901124e+02,2.097192e+03
5.930051e+02,2.093737e+03
5.958978e+02,2.086907e+03
5.987905e+02,2.069929e+03
6.016832e+02,2.081955e+03
6.045759e+02,2.089309e+03
6.074686e+02,2.090507e+03
6.103613e+02,2.080001e+03
6.132540e+02,2.072791e+03
6.161467e+02,2.071773e+03
6.190394e+02,2.071320e+03
6.219321e+02,2.067564e+03
6.248248e+02,2.062223e+03
6.277175e+02,2.078013e+03
6.306102e+02,2.073044e+03
6.335029e+02,2.057541e+03
6.363956e+02,2.064570e+03
6.392883e+02,2.057866e+03
6.421810e+02,2.050925e+03
6.450737e+02,2.045789e+03
6.479664e+02,2.050635e+03
6.508591e+02,2.042062e+03
6.537518e+02,2.044407e+03
6.566445e+02,2.048059e+03
6.595372e+02,2.020051e+03
6.624299e+02,2.024391e+03
6.653226e+02,2.037941e+03
6.682153e+02,2.038188e+03
6.711080e+02,2.035570e+03
6.740007e+02,2.029598e+03
6.768934e+02,2.032645e+03
6.797861e+02,2.019380e+03
6.826788e+02,2.028454e+03
6.855715e+02,2.010176e+03
6.884642e+02,2.007446e+03
6.913569e+02,2.012395e+03
6.942496e+02,1.995992e+03
6.971423e+02,2.008881e+03
7.000350e+02,2.010551e+03
7.029277e+02,1.992163e+03
7.058204e+02,1.990142e+03
7.087131e+02,1.987362e+03
7.116058e+02,1.990173e+03
7.144985e+02,2.006008e+03
7.173912e+02,1.997101e+03
7.202839e+02,1.985528e+03
7.231766e+02,1.999945e+03
7.260693e+02,1.982834e+03
7.289620e+02,1.978333e+03
7.318547e+02,1.983465e+03
7.347474e+02,1.975263e+03
7.376401e+02,1.965647e+03
7.405328e+02,1.969708e+03
7.434255e+02,1.970166e+03
7.463182e+02,1.964915e+03
7.492109e+02,1.949464e+03
7.521036e+02,1.955727e+03
7.549963e+02,1.954476e+03
7.578890e+02,1.949347e+03
7.607817e+02,1.948087e+03
7.636744e+02,1.949203e+03
7.665671e+02,1.943906e+03
7.694598e+02,1.943548e+03
7.723525e+02,1.934327e+03
7.752452e+02,1.932907e+03
7.781379e+02,1.943379e+03
7.810306e+02,1.927644e+03
7.839233e+02,1.920216e+03
7.868160e+02,1.923579e+03
7.897087e+02,1.922622e+03
7.926014e+02,1.932746e+03
7.954941e+02,1.922871e+03
7.983868e+02,1.918860e+03
8.012795e+02,1.927951e+03
8.041722e+02,1.924206e+03
8.070649e+02,1.910734e+03
8.099576e+02,1.906913e+03
8.128503e+02,1.919153e+03
8.157430e+02,1.917677e+03
8.186357e+02,1.901179e+03
8.215284e+02,1.917185e+03
8.244211e+02,1.897232e+03
8.273138e+02,1.898072e+03
8.302065e+02,1.895122e+03
8.330992e+02,1.884092e+03
8.359919e+02,1.876427e+03
8.388846e+02,1.886045e+03
8.417773e+02,1.887568e+03
8.446700e+02,1.880656e+03
8.475627e+02,1.876683e+03
8.504554e+02,1.874803e+03
8.533481e+02,1.868674e+03
8.562408e+02,1.867964e+03
8.591335e+02,1.865444e+03
8.620262e+02,1.854738e+03
8.649189e+02,1.852906e+03
8.678116e+02,1.852122e+03
8.707043e+02,1.860298e+03
8.735970e+02,1.864625e+03
8.764897e+02,1.860949e+03
8.793824e+02,1.854222e+03
8.822751e+02,1.843680e+03
8.851678e+02,1.854989e+03
8.880605e+02,1.860355e+03
8.909532e+02,1.837707e+03
8.938459e+02,1.844859e+03
8.967386e+02,1.830666e+03
8.996313e+02,1.826014e+03
9.025240e+02,1.820844e+03
9.054167e+02,1.833392e+03
9.083094e+02,1.827228e+03
9.112021e+02,1.826013e+03
9.140948e+02,1.815637e+03
9.169875e+02,1.812679e+03
9.198802e+02,1.812912e+03
9.227729e+02,1.796678e+03
9.256656e+02,1.792320e+03
9.285583e+02,1.802986e+03
9.314510e+02,1.799876e+03
9.343438e+02,1.801070e+03
9.372365e+02,1.804510e+03
9.401292e+02,1.776291e+03
9.430219e+02,1.781340e+03
9.459146e+02,1.789145e+03
9.488073e+02,1.799347e+03
9.517000e+02,1.777732e+03
9.545927e+02,1.780119e+03
9.574854e+02,1.770363e+03
9.603781e+02,1.774863e+03
9.632708e+02,1.775482e+03
9.661635e+02,1.770881e+03
9.690562e+02,1.762688e+03
9.719489e+02,1.754280e+03
9.748416e+02,1.746484e+03
9.777343e+02,1.774747e+03
9.806270e+02,1.763850e+03
9.835197e+02,1.741499e+03
9.864124e+02,1.739538e+03
9.893051e+02,1.738657e+03
9.921978e+02,1.745702e+03
9.950905e+02,1.746236e+03
9.979832e+02,1.743337e+03
1.000876e+03,1.725625e+03
1.003769e+03,1.728384e+03
1.006661e+03,1.732954e+03
1.009554e+03,1.733743e+03
1.012447e+03,1.738746e+03
1.015339e+03,1.703705e+03
1.018232e+03,1.701793e+03
1.021125e+03,1.715815e+03
1.024017e+03,1.712229e+03
1.026910e+03,1.710222e+03
1.029803e+03,1.705583e+03
1.032696e+03,1.704701e+03
1.035588e+03,1.708690e+03
1.038481e+03,1.710541e+03
1.041374e+03,1.702701e+03
1.044266e+03,1.708792e+03
1.047159e+03,1.688244e+03
1.050052e+03,1.693273e+03
1.052944e+03,1.696966e+03
1.055837e+03,1.703639e+03
1.058730e+03,1.679215e+03
1.061623e+03,1.684904e+03
1.064515e+03,1.690941e+03
1.067408e+03,1.681850e+03
1.070301e+03,1.688208e+03
1.073193e+03,1.686678e+03
1.076086e+03,1.679323e+03
1.078979e+03,1.694717e+03
1.081871e+03,1.674404e+03
1.084764e+03,1.681394e+03
1.087657e+03,1.700866e+03
1.090550e+03,1.713722e+03
1.093442e+03,1.715771e+03
1.096335e+03,1.691973e+03
1.099228e+03,1.686270e+03
1.102120e+03,1.664400e+03
1.105013e+03,1.670505e+03
1.107906e+03,1.661787e+03
1.110798e+03,1.669216e+03
1.113691e+03,1.682344e+03
1.116584e+03,1.686233e+03
1.119477e+03,1.688691e+03
1.122369e+03,1.683571e+03
1.125262e+03,1.680921e+03
1.128155e+03,1.663547e+03
1.131047e+03,1.663457e+03
1.133940e+03,1.658789e+03
1.136833e+03,1.649850e+03
1.139725e+03,1.630505e+03
1.142618e+03,1.642526e+03
1.145511e+03,1.653624e+03
1.148404e+03,1.640145e+03
1.151296e+03,1.651589e+03
1.154189e+03,1.643708e+03
1.157082e+03,1.629778e+03
1.159974e+03,1.621893e+03
1.162867e+03,1.612351e+03
1.165760e+03,1.599930e+03
1.168652e+03,1.594681e+03
1.171545e+03,1.593975e+03
1.174438e+03,1.613363e+03
1.177331e+03,1.605273e+03
1.180223e+03,1.601340e+03
1.183116e+03,1.600027e+03
1.186009e+03,1.583196e+03
1.188901e+03,1.585175e+03
1.191794e+03,1.576562e+03
1.194687e+03,1.562722e+03
1.197579e+03,1.567624e+03
1.200472e+03,1.571146e+03
1.203365e+03,1.567715e+03
1.206258e+03,1.565592e+03
1.209150e+03,1.567645e+03
1.212043e+03,1.568983e+03
1.214936e+03,1.564490e+03
1.217828e+03,1.566134e+03
1.220721e+03,1.563975e+03
1.223614e+03,1.553242e+03
1.226506e+03,1.552511e+03
1.229399e+03,1.552552e+03
1.232292e+03,1.547771e+03
1.235185e+03,1.535218e+03
1.238077e+03,1.535921e+03
1.240970e+03,1.540991e+03
1.243863e+03,1.542506e+03
1.246755e+03,1.527933e+03
1.249648e+03,1.528262e+03
1.252541e+03,1.514460e+03
1.255433e+03,1.513053e+03
1.258326e+03,1.525911e+03
1.261219e+03,1.512914e+03
1.264112e+03,1.520358e+03
1.267004e+03,1.523465e+03
1.269897e+03,1.512298e+03
1.272790e+03,1.520118e+03
1.275682e+03,1.529117e+03
1.278575e+03,1.533676e+03
1.281468e+03,1.528978e+03
1.284360e+03,1.529235e+03
1.287253e+03,1.531516e+03
1.290146e+03,1.534582e+03
1.293039e+03,1.511620e+03
1.295931e+03,1.501682e+03
1.298824e+03,1.498166e+03
1.301717e+03,1.497823e+03
1.304609e+03,1.492802e+03
1.307502e+03,1.491554e+03
1.310395e+03,1.491671e+03
1.313287e+03,1.478196e+03
1.316180e+03,1.482921e+03
1.319073e+03,1.495944e+03
1.321966e+03,1.474659e+03
1.324858e+03,1.498678e+03
1.327751e+03,1.477836e+03
1.330644e+03,1.477027e+03
1.333536e+03,1.491422e+03
1.336429e+03,1.496483e+03
1.339322e+03,1.488381e+03
1.342214e+03,1.476453e+03
1.345107e+03,1.481684e+03
1.348000e+03,1.478553e+03
1.350893e+03,1.465232e+03
1.353785e+03,1.470644e+03
1.356678e+03,1.468374e+03
1.359571e+03,1.462800e+03
1.362463e+03,1.461733e+03
1.365356e+03,1.464269e+03
1.368249e+03,1.465571e+03
1.371141e+03,1.451983e+03
1.374034e+03,1.454808e+03
1.376927e+03,1.449385e+03
1.379820e+03,1.443886e+03
1.382712e+03,1.440016e+03
1.385605e+03,1.424632e+03
1.388498e+03,1.419888e+03
1.391390e+03,1.423612e+03
1.394283e+03,1.415313e+03
1.397176e+03,1.406535e+03
1.400068e+03,1.411996e+03
1.402961e+03,1.410536e+03
1.405854e+03,1.406665e+03
1.408747e+03,1.406425e+03
1.411639e+03,1.406820e+03
1.414532e+03,1.405177e+03
1.417425e+03,1.409308e+03
1.420317e+03,1.385946e+03
1.423210e+03,1.385670e+03
1.426103e+03,1.385952e+03
1.428995e+03,1.387692e+03
1.431888e+03,1.370457e+03
1.434781e+03,1.372186e+03
1.437674e+03,1.373844e+03
1.440566e+03,1.362473e+03
1.443459e+03,1.357859e+03
1.446352e+03,1.371550e+03
1.449244e+03,1.359646e+03
1.452137e+03,1.365865e+03
1.455030e+03,1.364510e+03
1.457922e+03,1.357519e+03
1.460815e+03,1.349637e+03
1.463708e+03,1.346522e+03
1.466601e+03,1.365596e+03
1.469493e+03,1.339425e+03
1.472386e+03,1.350526e+03
1.475279e+03,1.350847e+03
1.478171e+03,1.345950e+03
1.481064e+03,1.350030e+03
1.483957e+03,1.334559e+03
1.486849e+03,1.330074e+03
1.489742e+03,1.331927e+03
1.492635e+03,1.331232e+03
1.495528e+03,1.330299e+03
1.498420e+03,1.319980e+03
1.501313e+03,1.319829e+03
1.504206e+03,1.319843e+03
1.507098e+03,1.312428e+03
1.509991e+03,1.300519e+03
1.512884e+03,1.308184e+03
1.515776e+03,1.298060e+03
1.518669e+03,1.309247e+03
1.521562e+03,1.296407e+03
1.524455e+03,1.296502e+03
1.527347e+03,1.295256e+03
1.530240e+03,1.285145e+03
1.533133e+03,1.289677e+03
1.536025e+03,1.301279e+03
1.538918e+03,1.291900e+03
1.541811e+03,1.288009e+03
1.544703e+03,1.288079e+03
1.547596e+03,1.284769e+03
1.550489e+03,1.283302e+03
1.553382e+03,1.294714e+03
1.556274e+03,1.287040e+03
1.559167e+03,1.280709e+03
1.562060e+03,1.293505e+03
1.564952e+03,1.281555e+03
1.567845e+03,1.294272e+03
1.570738e+03,1.286504e+03
1.573630e+03,1.292412e+03
1.576523e+03,1.287735e+03
1.579416e+03,1.283144e+03
1.582309e+03,1.278250e+03
1.585201e+03,1.286057e+03
1.588094e+03,1.293158e+03
1.590987e+03,1.268677e+03
1.593879e+03,1.261180e+03
1.596772e+03,1.259417e+03
1.599665e+03,1.254528e+03
1.602557e+03,1.239213e+03
1.605450e+03,1.239707e+03
1.608343e+03,1.246643e+03
1.611236e+03,1.250621e+03
1.614128e+03,1.245668e+03
1.617021e+03,1.246494e+03
1.619914e+03,1.235473e+03
1.622806e+03,1.236821e+03
1.625699e+03,1.233915e+03
1.628592e+03,1.230605e+03
1.631484e+03,1.224963e+03
1.634377e+03,1.212956e+03
1.637270e+03,1.216505e+03
1.640163e+03,1.211135e+03
1.643055e+03,1.210873e+03
1.645948e+03,1.207078e+03
1.648841e+03,1.193579e+03
1.651733e+03,1.211184e+03
1.654626e+03,1.192517e+03
1.657519e+03,1.203273e+03
1.660411e+03,1.199483e+03
1.663304e+03,1.201025e+03
1.666197e+03,1.190771e+03
1.669090e+03,1.190423e+03
1.671982e+03,1.180952e+03
1.674875e+03,1.193931e+03
1.677768e+03,1.187467e+03
1.680660e+03,1.187861e+03
1.683553e+03,1.180447e+03
1.686446e+03,1.166793e+03
1.689339e+03,1.175591e+03
1.692231e+03,1.178428e+03
1.695124e+03,1.168351e+03
1.698017e+03,1.163908e+03
1.700909e+03,1.163529e+03
1.703802e+03,1.169360e+03
1.706695e+03,1.174680e+03
1.709587e+03,1.149019e+03
1.712480e+03,1.154482e+03
1.715373e+03,1.160242e+03
1.718266e+03,1.162689e+03
1.721158e+03,1.138228e+03
1.724051e+03,1.152564e+03
1.726944e+03,1.137719e+03
1.729836e+03,1.146999e+03
1.732729e+03,1.137090e+03
1.735622e+03,1.139107e+03
1.738514e+03,1.134930e+03
1.741407e+03,1.135950e+03
1.744300e+03,1.126336e+03
1.747193e+03,1.120464e+03
1.750085e+03,1.125498e+03
1.752978e+03,1.115844e+03
1.755871e+03,1.116301e+03
1.758763e+03,1.116370e+03
1.761656e+03,1.135980e+03
1.764549e+03,1.109270e+03
1.767441e+03,1.116771e+03
1.770334e+03,1.107872e+03
1.773227e+03,1.108135e+03
1.776120e+03,1.124955e+03
1.779012e+03,1.091540e+03
1.781905e+03,1.095289e+03
1.784798e+03,1.103117e+03
1.787690e+03,1.094421e+03
1.790583e+03,1.088758e+03
1.793476e+03,1.080422e+03
1.796368e+03,1.088872e+03
1.799261e+03,1.104807e+03
1.802154e+03,1.086029e+03
1.805047e+03,1.078802e+03
1.807939e+03,1.082625e+03
1.810832e+03,1.076626e+03
1.813725e+03,1.060096e+03
1.816617e+03,1.068671e+03
1.819510e+03,1.079793e+03
1.822403e+03,1.053933e+03
1.825295e+03,1.057182e+03
1.828188e+03,1.077530e+03
1.831081e+03,1.063488e+03
1.833974e+03,1.054853e+03
1.836866e+03,1.060879e+03
1.839759e+03,1.040946e+03
1.842652e+03,1.054304e+03
1.845544e+03,1.058713e+03
1.848437e+03,1.039721e+03
1.851330e+03,1.044986e+03
1.854222e+03,1.031262e+03
1.857115e+03,1.042761e+03
1.860008e+03,1.038759e+03
1.862901e+03,1.036222e+03
1.865793e+03,1.029223e+03
1.868686e+03,1.020497e+03
1.871579e+03,1.014463e+03
1.874471e+03,1.024791e+03
1.877364e+03,1.016729e+03
1.880257e+03,1.023105e+03
1.883149e+03,1.015098e+03
1.886042e+03,1.017439e+03
1.888935e+03,1.022240e+03
1.891828e+03,1.017805e+03
1.894720e+03,1.012063e+03
1.897613e+03,1.003772e+03
1.900506e+03,1.001276e+03
1.903398e+03,9.967064e+02
1.906291e+03,1.001147e+03
1.909184e+03,9.913769e+02
1.912076e+03,9.966627e+02
1.914969e+03,9.864517e+02
1.917862e+03,9.767059e+02
1.920755e+03,9.851808e+02
1.923647e+03,9.882140e+02
1.926540e+03,9.899389e+02
1.929433e+03,9.760712e+02
1.932325e+03,9.880381e+02
1.935218e+03,9.751030e+02
1.938111e+03,9.731490e+02
1.941003e+03,9.675832e+02
1.943896e+03,9.615260e+02
1.946789e+03,9.634708e+02
1.949682e+03,9.540955e+02
1.952574e+03,9.527891e+02
1.955467e+03,9.543925e+02
1.958360e+03,9.367158e+02
1.961252e+03,9.506223e+02
1.964145e+03,9.325506e+02
1.967038e+03,9.532928e+02
1.969930e+03,9.369438e+02
1.972823e+03,9.397062e+02
1.975716e+03,9.368015e+02
1.978609e+03,9.439286e+02
1.981501e+03,9.410540e+02
1.984394e+03,9.384837e+02
1.987287e+03,9.163837e+02
1.990179e+03,9.260472e+02
1.993072e+03,9.102325e+02
1.995965e+03,9.271216e+02
1.998857e+03,9.206747e+02
2.001750e+03,9.181864e+02
2.004643e+03,9.240049e+02
2.007536e+03,9.146282e+02
2.010428e+03,9.074802e+02
2.013321e+03,8.987708e+02
2.016214e+03,9.041391e+02
2.019106e+03,9.019756e+02
2.021999e+03,9.026426e+02
2.024892e+03,9.044965e+02
2.027784e+03,9.024607e+02
2.030677e+03,8.894355e+02
2.033570e+03,8.842108e+02
2.036463e+03,8.946618e+02
2.039355e+03,8.773590e+02
2.042248e+03,8.811508e+02
2.045141e+03,8.710340e+02
2.048033e+03,8.713051e+02
2.050926e+03,8.810676e+02
2.053819e+03,8.739516e+02
2.056711e+03,8.616562e+02
2.059604e+03,8.800240e+02
2.062497e+03,8.633483e+02
2.065390e+03,8.608796e+02
2.068282e+03,8.485145e+02
2.071175e+03,8.545152e+02
2.074068e+03,8.479740e+02
2.076960e+03,8.570089e+02
2.079853e+03,8.562834e+02
2.082746e+03,8.375908e+02
2.085638e+03,8.338624e+02
2.088531e+03,8.386495e+02
2.091424e+03,8.300182e+02
2.094316e+03,8.465428e+02
2.097209e+03,8.368539e+02
2.100102e+03,8.312809e+02
2.102995e+03,8.269166e+02
2.105887e+03,8.301728e+02
2.108780e+03,8.309669e+02
2.111673e+03,8.384339e+02
2.114565e+03,8.104170e+02
2.117458e+03,8.084113e+02
2.120351e+03,8.194498e+02
2.123244e+03,8.113682e+02
2.126136e+03,8.295947e+02
2.129029e+03,8.136027e+02
2.131922e+03,8.087629e+02
2.134814e+03,8.023502e+02
2.137707e+03,7.984857e+02
2.140600e+03,8.043365e+02
2.143492e+03,7.832005e+02
2.146385e+03,7.916503e+02
2.149278e+03,8.017289e+02
2.152170e+03,7.895353e+02
2.155063e+03,7.761438e+02
2.157956e+03,7.965114e+02
2.160849e+03,7.818504e+02
2.163741e+03,7.797463e+02
2.166634e+03,7.870997e+02
2.169527e+03,7.730101e+02
2.172419e+03,7.805019e+02
2.175312e+03,7.593430e+02
2.178205e+03,7.653376e+02
2.181098e+03,7.675256e+02
2.183990e+03,7.676435e+02
2.186883e+03,7.595178e+02
2.189776e+03,7.724004e+02
2.192668e+03,7.558466e+02
2.195561e+03,7.535743e+02
2.198454e+03,7.499699e+02
2.201346e+03,7.639890e+02
2.204239e+03,7.482966e+02
2.207132e+03,7.614749e+02
2.210024e+03,7.420467e+02
2.212917e+03,7.394859e+02
2.215810e+03,7.329963e+02
2.218703e+03,7.375575e+02
2.221595e+03,7.368470e+02
2.224488e+03,7.275206e+02
2.227381e+03,7.124382e+02
2.230273e+03,7.371151e+02
2.233166e+03,7.345547e+02
2.236059e+03,7.269542e+02
2.238952e+03,7.178727e+02
2.241844e+03,7.199014e+02
2.244737e+03,7.168820e+02
2.247630e+03,7.124963e+02
2.250522e+03,7.075019e+02
2.253415e+03,7.077639e+02
2.256308e+03,7.059125e+02
2.259200e+03,7.077340e+02
2.262093e+03,7.023438e+02
2.264986e+03,6.964623e+02
2.267879e+03,6.957850e+02
2.270771e+03,6.973513e+02
2.273664e+03,6.831133e+02
2.276557e+03,6.891342e+02
2.279449e+03,6.874977e+02
2.282342e+03,6.926066e+02
2.285235e+03,6.837643e+02
2.288127e+03,6.828735e+02
2.291020e+03,6.779210e+02
2.293913e+03,6.792256e+02
2.296805e+03,6.756317e+02
2.299698e+03,6.823694e+02
2.302591e+03,6.723563e+02
2.305484e+03,6.664844e+02
2.308376e+03,6.692147e+02
2.311269e+03,6.669475e+02
2.314162e+03,6.693862e+02
2.317054e+03,6.656183e+02
2.319947e+03,6.586980e+02
2.322840e+03,6.572470e+02
2.325733e+03,6.622200e+02
2.328625e+03,6.688210e+02
2.331518e+03,6.567587e+02
2.334411e+03,6.522574e+02
2.337303e+03,6.430798e+02
2.340196e+03,6.403640e+02
2.343089e+03,6.446263e+02
2.345981e+03,6.430391e+02
2.348874e+03,6.394543e+02
2.351767e+03,6.355789e+02
2.354659e+03,6.285770e+02
2.357552e+03,6.407687e+02
2.360445e+03,6.343669e+02
2.363338e+03,6.338078e+02
2.366230e+03,6.315182e+02
2.369123e+03,6.224431e+02
2.372016e+03,6.234933e+02
2.374908e+03,6.288884e+02
2.377801e+03,6.221858e+02
2.380694e+03,6.210350e+02
2.383587e+03,6.137769e+02
2.386479e+03,6.162179e+02
2.389372e+03,6.179481e+02
2.392265e+03,6.172158e+02
2.395157e+03,6.137548e+02
2.398050e+03,6.181448e+02
2.400943e+03,5.951317e+02
2.403835e+03,6.029395e+02
2.406728e+03,6.078194e+02
2.409621e+03,6.072772e+02
2.412513e+03,5.999431e+02
2.415406e+03,6.026884e+02
2.418299e+03,5.950239e+02
2.421192e+03,6.054143e+02
2.424084e+03,6.010536e+02
2.426977e+03,5.991765e+02
2.429870e+03,5.850700e+02
2.432762e+03,5.944387e+02
2.435655e+03,5.885996e+02
2.438548e+03,5.905383e+02
2.441441e+03,5.825526e+02
2.444333e+03,5.772306e+02
2.447226e+03,5.879852e+02
2.450119e+03,5.808871e+02
2.453011e+03,5.795270e+02
2.455904e+03,5.749768e+02
2.458797e+03,5.811097e+02
2.461689e+03,5.786962e+02
2.464582e+03,5.702924e+02
2.467475e+03,5.732667e+02
2.470367e+03,5.726267e+02
2.473260e+03,5.738856e+02
2.476153e+03,5.668228e+02
2.479046e+03,5.714388e+02
2.481938e+03,5.580845e+02
2.484831e+03,5.660292e+02
2.487724e+03,5.513605e+02
2.490616e+03,5.558815e+02
2.493509e+03,5.628338e+02
2.496402e+03,5.531794e+02
2.499295e+03,5.647635e+02
2.502187e+03,5.573342e+02
2.505080e+03,5.530637e+02
2.507973e+03,5.492562e+02
2.510865e+03,5.499734e+02
2.513758e+03,5.508632e+02
2.516651e+03,5.419493e+02
2.519543e+03,5.467604e+02
2.522436e+03,5.249001e+02
2.525329e+03,5.336575e+02
2.528221e+03,5.466628e+02
2.531114e+03,5.370887e+02
2.534007e+03,5.329706e+02
2.536900e+03,5.494149e+02
2.539792e+03,5.320118e+02
2.542685e+03,5.505800e+02
2.545578e+03,5.390303e+02
2.548470e+03,5.395683e+02
2.551363e+03,5.510574e+02
2.554256e+03,5.389114e+02
2.557149e+03,5.302651e+02
2.560041e+03,5.404918e+02
2.562934e+03,5.344186e+02
2.565827e+03,5.215254e+02
2.568719e+03,5.420529e+02
2.571612e+03,5.256134e+02
2.574505e+03,5.327436e+02
2.577397e+03,5.163211e+02
2.580290e+03,5.119961e+02
2.583183e+03,5.121465e+02
2.586075e+03,5.236257e+02
2.588968e+03,5.150900e+02
2.591861e+03,5.121575e+02
2.594754e+03,5.048657e+02
2.597646e+03,5.131187e+02
2.600539e+03,5.163524e+02
2.603432e+03,5.121628e+02
2.606324e+03,5.023188e+02
2.609217e+03,4.989776e+02
2.612110e+03,4.989379e+02
2.615003e+03,4.907153e+02
2.617895e+03,5.041374e+02
2.620788e+03,5.022288e+02
2.623681e+03,5.044775e+02
2.626573e+03,5.030049e+02
2.629466e+03,5.065063e+02
2.632359e+03,4.762475e+02
2.635251e+03,4.912616e+02
2.638144e+03,4.944477e+02
2.641037e+03,4.788486e+02
2.643929e+03,4.974357e+02
2.646822e+03,4.720689e+02
2.649715e+03,4.856349e+02
2.652608e+03,4.801712e+02
2.655500e+03,4.927813e+02
2.658393e+03,4.821893e+02
2.661286e+03,4.836020e+02
2.664178e+03,5.078205e+02
2.667071e+03,4.832158e+02
2.669964e+03,4.843504e+02
2.672857e+03,4.862082e+02
2.675749e+03,4.814604e+02
2.678642e+03,4.835634e+02
2.681535e+03,4.763823e+02
2.684427e+03,4.672899e+02
2.687320e+03,4.709123e+02
2.690213e+03,4.646107e+02
2.693105e+03,4.640215e+02
2.695998e+03,4.691698e+02
2.698891e+03,4.736307e+02
2.701783e+03,4.615269e+02
2.704676e+03,4.481646e+02
2.707569e+03,4.726092e+02
2.710462e+03,4.529284e+02
2.713354e+03,4.659237e+02
2.716247e+03,4.597314e+02
2.719140e+03,4.754095e+02
2.722032e+03,4.556373e+02
2.724925e+03,4.721955e+02
2.727818e+03,4.549424e+02
2.730711e+03,4.662339e+02
2.733603e+03,4.565836e+02
2.736496e+03,4.578087e+02
2.739389e+03,4.569671e+02
2.742281e+03,4.450518e+02
2.745174e+03,4.587548e+02
2.748067e+03,4.603702e+02
2.750959e+03,4.486403e+02
2.753852e+03,4.537677e+02
2.756745e+03,4.566697e+02
2.759637e+03,4.481857e+02
2.762530e+03,4.493098e+02
2.765423e+03,4.507102e+02
2.768316e+03,4.379093e+02
2.771208e+03,4.404626e+02
2.774101e+03,4.497530e+02
2.776994e+03,4.533402e+02
2.779886e+03,4.658979e+02
2.782779e+03,4.491747e+02
2.785672e+03,4.387186e+02
2.788565e+03,4.355045e+02
2.791457e+03,4.479693e+02
2.794350e+03,4.388669e+02
2.797243e+03,4.503876e+02
2.800135e+03,4.515252e+02
2.803028e+03,4.329277e+02
2.805921e+03,4.611998e+02
2.808813e+03,4.342836e+02
2.811706e+03,4.388039e+02
2.814599e+03,4.314112e+02
2.817491e+03,4.378376e+02
2.820384e+03,4.384258e+02
2.823277e+03,4.409074e+02
2.826170e+03,4.396221e+02
2.829062e+03,4.419962e+02
2.831955e+03,4.382162e+02
2.834848e+03,4.358131e+02
2.837740e+03,4.461529e+02
2.840633e+03,4.196607e+02
2.843526e+03,4.409134e+02
2.846419e+03,4.246667e+02
2.849311e+03,4.497878e+02
2.852204e+03,4.381220e+02
2.855097e+03,4.320729e+02
2.857990e+03,4.330141e+02
2.860882e+03,4.494200e+02
2.863775e+03,4.470595e+02
2.866667e+03,4.450272e+02
2.869560e+03,4.444649e+02
2.872453e+03,4.442118e+02
2.875345e+03,4.432416e+02
2.878238e+03,4.443776e+02
2.881131e+03,4.618819e+02
2.884024e+03,4.440919e+02
2.886916e+03,4.665031e+02
2.889809e+03,4.413531e+02
2.892702e+03,4.630931e+02
2.895594e+03,4.642125e+02
2.898487e+03,4.572181e+02
2.901380e+03,4.763684e+02
2.904273e+03,4.659297e+02
2.907165e+03,4.591947e+02
2.910058e+03,4.635377e+02
2.912951e+03,4.386273e+02
2.915844e+03,4.321171e+02
2.918736e+03,4.288279e+02
2.921629e+03,4.422662e+02
2.924521e+03,4.244384e+02
2.927414e+03,4.322429e+02
2.930307e+03,4.277953e+02
2.933199e+03,4.243878e+02
2.936092e+03,4.120670e+02
2.938985e+03,4.160341e+02
2.941878e+03,4.237322e+02
2.944770e+03,4.302352e+02
2.947663e+03,4.258345e+02
2.950556e+03,4.266057e+02
2.953448e+03,4.314110e+02
2.956341e+03,4.519558e+02
2.959234e+03,4.524328e+02
2.962127e+03,4.193304e+02
2.965019e+03,4.191136e+02
2.967912e+03,4.073856e+02
2.970805e+03,3.928149e+02
2.973698e+03,4.104200e+02
2.976590e+03,4.039135e+02
2.979483e+03,3.941995e+02
2.982375e+03,3.955187e+02
2.985268e+03,3.888940e+02
2.988161e+03,3.999038e+02
2.991053e+03,4.001371e+02
2.993946e+03,3.877395e+02
2.996839e+03,4.038774e+02
2.999732e+03,3.866767e+02
3.002624e+03,3.771992e+02
3.005517e+03,3.861681e+02
3.008410e+03,3.934522e+02
3.011302e+03,3.870176e+02
3.014195e+03,3.783369e+02
3.017088e+03,3.829014e+02
3.019981e+03,3.976632e+02
3.022873e+03,3.865029e+02
3.025766e+03,3.891478e+02
3.028659e+03,3.860089e+02
3.031552e+03,3.800761e+02
3.034444e+03,3.654742e+02
3.037337e+03,3.603546e+02
3.040229e+03,3.726497e+02
3.043122e+03,4.000068e+02
3.046015e+03,3.807536e+02
3.048907e+03,3.707908e+02
3.051800e+03,3.724624e+02
3.054693e+03,3.777446e+02
3.057586e+03,3.912219e+02
3.060478e+03,3.718127e+02
3.063371e+03,3.806290e+02
3.066264e+03,3.793637e+02
3.069156e+03,3.725446e+02
3.072049e+03,3.852627e+02
3.074942e+03,3.688639e+02
3.077835e+03,3.807118e+02
3.080727e+03,3.617736e+02
3.083620e+03,3.735465e+02
3.086513e+03,4.060040e+02
3.089406e+03,4.051848e+02
3.092298e+03,3.885854e+02
3.095191e+03,3.867296e+02
3.098083e+03,3.848803e+02
3.100976e+03,3.982711e+02
3.103869e+03,3.731047e+02
3.106761e+03,3.439481e+02
3.109654e+03,3.929874e+02
3.112547e+03,3.847120e+02
3.115440e+03,3.860837e+02
3.118332e+03,3.896972e+02
3.121225e+03,3.916832e+02
3.124118e+03,3.784001e+02
3.127010e+03,3.727786e+02
3.129903e+03,3.753415e+02
3.132796e+03,3.775688e+02
3.135689e+03,4.114821e+02
3.138581e+03,3.984773e+02
3.141474e+03,4.014645e+02
3.144367e+03,3.748087e+02
3.147260e+03,3.798354e+02
3.150152e+03,4.135813e+02
3.153045e+03,3.599037e+02
3.155938e+03,4.004687e+02
3.158830e+03,3.810394e+02
3.161723e+03,3.682585e+02
3.164615e+03,3.674136e+02
3.167508e+03,3.990686e+02
3.170401e+03,3.628519e+02
3.173294e+03,4.117748e+02
3.176186e+03,4.023016e+02
3.179079e+03,3.896960e+02
3.181972e+03,3.786378e+02
3.184865e+03,3.828474e+02
3.187757e+03,3.842504e+02
3.190650e+03,4.114696e+02
3.193543e+03,3.995053e+02
3.196435e+03,4.058460e+02
3.199328e+03,4.465681e+02
3.200292e+03,4.633672e+02