File: RAMAN_data/06022023_r1/black fibre5.CSV
1.995979e+02,3.770427e+03
2.024906e+02,3.784731e+03
2.053833e+02,3.813056e+03
2.082760e+02,3.810402e+03
2.111687e+02,3.795318e+03
2.140614e+02,3.799788e+03
2.169541e+02,3.807573e+03
2.198468e+02,3.816179e+03
2.227395e+02,3.821795e+03
2.256322e+02,3.792027e+03
2.285249e+02,3.818013e+03
2.314176e+02,3.832377e+03
2.343103e+02,3.845260e+03
2.372030e+02,3.871460e+03
2.400957e+02,3.847645e+03
2.429884e+02,3.836922e+03
2.458811e+02,3.856585e+03
2.487738e+02,3.861762e+03
2.516665e+02,3.871722e+03
2.545592e+02,3.864160e+03
2.574519e+02,3.866059e+03
2.603446e+02,3.866281e+03
2.632373e+02,3.880926e+03
2.661300e+02,3.873167e+03
2.690227e+02,3.889629e+03
2.719154e+02,3.891392e+03
2.748081e+02,3.895753e+03
2.777008e+02,3.912250e+03
2.805935e+02,3.901650e+03
2.834862e+02,3.905954e+03
2.863789e+02,3.908552e+03
2.892716e+02,3.913558e+03
2.921643e+02,3.899643e+03
2.950570e+02,3.907781e+03
2.979497e+02,3.908739e+03
3.008424e+02,3.908092e+03
3.037351e+02,3.914572e+03
3.066278e+02,3.906490e+03
3.095205e+02,3.903141e+03
3.124132e+02,3.923059e+03
3.153059e+02,3.910002e+03
3.181986e+02,3.908522e+03
3.210913e+02,3.910489e+03
3.239840e+02,3.915564e+03
3.268767e+02,3.913953e+03
3.297694e+02,3.933016e+03
3.326621e+02,3.914241e+03
3.355548e+02,3.915742e+03
3.384475e+02,3.924533e+03
3.413402e+02,3.929601e+03
3.442329e+02,3.927210e+03
3.471256e+02,3.945892e+03
3.500183e+02,3.932179e+03
3.529110e+02,3.920104e+03
3.558037e+02,3.932204e+03
3.586964e+02,3.944417e+03
3.615891e+02,3.933251e+03
3.644818e+02,3.930341e+03
3.673745e+02,3.914215e+03
3.702672e+02,3.927240e+03
3.731599e+02,3.953731e+03
3.760526e+02,3.936612e+03
3.789453e+02,3.945272e+03
3.818380e+02,3.946301e+03
3.847307e+02,3.931407e+03
3.876234e+02,3.923725e+03
3.905161e+02,3.920719e+03
3.934088e+02,3.920989e+03
3.963015e+02,3.916109e+03
3.991942e+02,3.910803e+03
4.020869e+02,3.942752e+03
4.049796e+02,3.913658e+03
4.078723e+02,3.929176e+03
4.107650e+02,3.925243e+03
4.136577e+02,3.894114e+03
4.165504e+02,3.902450e+03
4.194431e+02,3.915061e+03
4.223358e+02,3.901841e+03
4.252285e+02,3.898064e+03
4.281212e+02,3.904296e+03
4.310139e+02,3.894712e+03
4.339066e+02,3.919214e+03
4.367993e+02,3.909684e+03
4.396920e+02,3.899604e+03
4.425847e+02,3.900600e+03
4.454774e+02,3.885870e+03
4.483701e+02,3.881330e+03
4.512628e+02,3.903728e+03
4.541555e+02,3.873996e+03
4.570482e+02,3.885733e+03
4.599409e+02,3.878155e+03
4.628336e+02,3.852945e+03
4.657263e+02,3.856642e+03
4.686190e+02,3.856641e+03
4.715117e+02,3.865684e+03
4.744044e+02,3.858993e+03
4.772971e+02,3.851016e+03
4.801898e+02,3.837644e+03
4.830825e+02,3.866066e+03
4.859752e+02,3.846476e+03
4.888679e+02,3.844949e+03
4.917606e+02,3.840239e+03
4.946533e+02,3.844544e+03
4.975460e+02,3.848006e+03
5.004387e+02,3.832149e+03
5.033314e+02,3.817407e+03
5.062241e+02,3.834233e+03
5.091168e+02,3.818739e+03
5.120095e+02,3.817165e+03
5.149022e+02,3.822077e+03
5.177949e+02,3.836552e+03
5.206876e+02,3.825177e+03
5.235803e+02,3.796414e+03
5.264730e+02,3.811547e+03
5.293657e+02,3.804197e+03
5.322584e+02,3.765375e+03
5.351511e+02,3.764292e+03
5.380438e+02,3.771345e+03
5.409365e+02,3.776582e+03
5.438292e+02,3.796147e+03
5.467219e+02,3.793826e+03
5.496146e+02,3.773405e+03
5.525073e+02,3.740614e+03
5.554000e+02,3.736285e+03
5.582927e+02,3.754715e+03
5.611854e+02,3.747409e+03
5.640781e+02,3.741066e+03
5.669708e+02,3.736312e+03
5.698635e+02,3.722362e+03
5.727562e+02,3.738734e+03
5.756489e+02,3.734989e+03
5.785416e+02,3.712235e+03
5.814343e+02,3.722692e+03
5.843270e+02,3.700629e+03
5.872197e+02,3.679146e+03
5.901124e+02,3.698052e+03
5.930051e+02,3.708656e+03
5.958978e+02,3.697173e+03
5.987905e+02,3.688157e+03
6.016832e+02,3.670859e+03
6.045759e+02,3.675217e+03
6.074686e+02,3.667327e+03
6.103613e+02,3.657992e+03
6.132540e+02,3.658216e+03
6.161467e+02,3.650570e+03
6.190394e+02,3.665505e+03
6.219321e+02,3.649849e+03
6.248248e+02,3.637754e+03
6.277175e+02,3.646628e+03
6.306102e+02,3.627973e+03
6.335029e+02,3.628961e+03
6.363956e+02,3.604455e+03
6.392883e+02,3.606375e+03
6.421810e+02,3.600528e+03
6.450737e+02,3.593619e+03
6.479664e+02,3.577960e+03
6.508591e+02,3.586324e+03
6.537518e+02,3.587759e+03
6.566445e+02,3.583609e+03
6.595372e+02,3.562133e+03
6.624299e+02,3.564951e+03
6.653226e+02,3.583321e+03
6.682153e+02,3.569875e+03
6.711080e+02,3.561255e+03
6.740007e+02,3.535968e+03
6.768934e+02,3.549081e+03
6.797861e+02,3.528250e+03
6.826788e+02,3.539442e+03
6.855715e+02,3.534940e+03
6.884642e+02,3.517515e+03
6.913569e+02,3.500095e+03
6.942496e+02,3.498653e+03
6.971423e+02,3.504343e+03
7.000350e+02,3.514489e+03
7.029277e+02,3.488039e+03
7.058204e+02,3.466469e+03
7.087131e+02,3.464784e+03
7.116058e+02,3.447121e+03
7.144985e+02,3.462147e+03
7.173912e+02,3.459809e+03
7.202839e+02,3.447125e+03
7.231766e+02,3.444787e+03
7.260693e+02,3.434049e+03
7.289620e+02,3.415942e+03
7.318547e+02,3.408566e+03
7.347474e+02,3.445368e+03
7.376401e+02,3.407619e+03
7.405328e+02,3.408796e+03
7.434255e+02,3.398210e+03
7.463182e+02,3.397397e+03
7.492109e+02,3.382361e+03
7.521036e+02,3.373399e+03
7.549963e+02,3.370687e+03
7.578890e+02,3.357356e+03
7.607817e+02,3.367021e+03
7.636744e+02,3.364836e+03
7.665671e+02,3.346554e+03
7.694598e+02,3.350164e+03
7.723525e+02,3.331819e+03
7.752452e+02,3.333453e+03
7.781379e+02,3.335695e+03
7.810306e+02,3.339886e+03
7.839233e+02,3.305927e+03
7.868160e+02,3.295289e+03
7.897087e+02,3.290418e+03
7.926014e+02,3.304855e+03
7.954941e+02,3.296930e+03
7.983868e+02,3.297281e+03
8.012795e+02,3.274264e+03
8.041722e+02,3.264056e+03
8.070649e+02,3.281357e+03
8.099576e+02,3.267123e+03
8.128503e+02,3.260344e+03
8.157430e+02,3.254962e+03
8.186357e+02,3.219020e+03
8.215284e+02,3.228622e+03
8.244211e+02,3.226724e+03
8.273138e+02,3.211416e+03
8.302065e+02,3.219946e+03
8.330992e+02,3.206426e+03
8.359919e+02,3.208044e+03
8.388846e+02,3.200187e+03
8.417773e+02,3.205212e+03
8.446700e+02,3.184670e+03
8.475627e+02,3.161327e+03
8.504554e+02,3.172397e+03
8.533481e+02,3.165300e+03
8.562408e+02,3.161631e+03
8.591335e+02,3.161134e+03
8.620262e+02,3.134665e+03
8.649189e+02,3.155070e+03
8.678116e+02,3.131882e+03
8.707043e+02,3.125452e+03
8.735970e+02,3.128222e+03
8.764897e+02,3.115416e+03
8.793824e+02,3.115763e+03
8.822751e+02,3.103192e+03
8.851678e+02,3.110395e+03
8.880605e+02,3.120338e+03
8.909532e+02,3.105863e+03
8.938459e+02,3.067097e+03
8.967386e+02,3.074921e+03
8.996313e+02,3.067394e+03
9.025240e+02,3.055634e+03
9.054167e+02,3.049971e+03
9.083094e+02,3.052875e+03
9.112021e+02,3.038271e+03
9.140948e+02,3.029928e+03
9.169875e+02,3.033049e+03
9.198802e+02,3.009920e+03
9.227729e+02,3.009656e+03
9.256656e+02,2.994576e+03
9.285583e+02,2.992276e+03
9.314510e+02,2.986414e+03
9.343438e+02,2.977044e+03
9.372365e+02,2.971737e+03
9.401292e+02,2.972629e+03
9.430219e+02,2.971006e+03
9.459146e+02,2.954451e+03
9.488073e+02,2.949304e+03
9.517000e+02,2.944525e+03
9.545927e+02,2.930583e+03
9.574854e+02,2.926847e+03
9.603781e+02,2.943035e+03
9.632708e+02,2.929496e+03
9.661635e+02,2.929023e+03
9.690562e+02,2.912624e+03
9.719489e+02,2.909273e+03
9.748416e+02,2.900559e+03
9.777343e+02,2.889961e+03
9.806270e+02,2.870936e+03
9.835197e+02,2.874499e+03
9.864124e+02,2.860344e+03
9.893051e+02,2.872911e+03
9.921978e+02,2.869501e+03
9.950905e+02,2.877407e+03
9.979832e+02,2.858021e+03
1.000876e+03,2.830869e+03
1.003769e+03,2.824649e+03
1.006661e+03,2.846469e+03
1.009554e+03,2.851060e+03
1.012447e+03,2.827625e+03
1.015339e+03,2.812719e+03
1.018232e+03,2.804113e+03
1.021125e+03,2.815610e+03
1.024017e+03,2.801827e+03
1.026910e+03,2.796463e+03
1.029803e+03,2.775029e+03
1.032696e+03,2.785922e+03
1.035588e+03,2.780488e+03
1.038481e+03,2.782688e+03
1.041374e+03,2.780423e+03
1.044266e+03,2.775727e+03
1.047159e+03,2.756188e+03
1.050052e+03,2.761677e+03
1.052944e+03,2.746439e+03
1.055837e+03,2.746556e+03
1.058730e+03,2.746826e+03
1.061623e+03,2.734372e+03
1.064515e+03,2.744804e+03
1.067408e+03,2.730007e+03
1.070301e+03,2.728405e+03
1.073193e+03,2.734629e+03
1.076086e+03,2.708710e+03
1.078979e+03,2.700274e+03
1.081871e+03,2.709126e+03
1.084764e+03,2.718485e+03
1.087657e+03,2.729012e+03
1.090550e+03,2.729719e+03
1.093442e+03,2.702147e+03
1.096335e+03,2.689291e+03
1.099228e+03,2.679245e+03
1.102120e+03,2.676501e+03
1.105013e+03,2.663124e+03
1.107906e+03,2.660292e+03
1.110798e+03,2.661141e+03
1.113691e+03,2.661280e+03
1.116584e+03,2.673565e+03
1.119477e+03,2.663431e+03
1.122369e+03,2.648649e+03
1.125262e+03,2.646892e+03
1.128155e+03,2.629927e+03
1.131047e+03,2.623083e+03
1.133940e+03,2.624612e+03
1.136833e+03,2.607098e+03
1.139725e+03,2.603127e+03
1.142618e+03,2.603316e+03
1.145511e+03,2.595493e+03
1.148404e+03,2.600422e+03
1.151296e+03,2.604441e+03
1.154189e+03,2.593797e+03
1.157082e+03,2.568123e+03
1.159974e+03,2.574441e+03
1.162867e+03,2.572349e+03
1.165760e+03,2.557976e+03
1.168652e+03,2.545064e+03
1.171545e+03,2.547114e+03
1.174438e+03,2.531128e+03
1.177331e+03,2.527160e+03
1.180223e+03,2.540431e+03
1.183116e+03,2.522781e+03
1.186009e+03,2.502098e+03
1.188901e+03,2.505697e+03
1.191794e+03,2.509941e+03
1.194687e+03,2.509170e+03
1.197579e+03,2.512899e+03
1.200472e+03,2.501039e+03
1.203365e+03,2.483960e+03
1.206258e+03,2.466540e+03
1.209150e+03,2.487436e+03
1.212043e+03,2.483089e+03
1.214936e+03,2.481642e+03
1.217828e+03,2.474243e+03
1.220721e+03,2.468069e+03
1.223614e+03,2.468949e+03
1.226506e+03,2.471522e+03
1.229399e+03,2.448993e+03
1.232292e+03,2.453255e+03
1.235185e+03,2.441396e+03
1.238077e+03,2.450392e+03
1.240970e+03,2.437740e+03
1.243863e+03,2.442964e+03
1.246755e+03,2.425400e+03
1.249648e+03,2.432205e+03
1.252541e+03,2.417159e+03
1.255433e+03,2.415409e+03
1.258326e+03,2.425225e+03
1.261219e+03,2.414487e+03
1.264112e+03,2.419742e+03
1.267004e+03,2.398421e+03
1.269897e+03,2.404418e+03
1.272790e+03,2.402823e+03
1.275682e+03,2.407227e+03
1.278575e+03,2.403756e+03
1.281468e+03,2.382251e+03
1.284360e+03,2.376066e+03
1.287253e+03,2.376133e+03
1.290146e+03,2.375832e+03
1.293039e+03,2.377809e+03
1.295931e+03,2.367385e+03
1.298824e+03,2.360003e+03
1.301717e+03,2.349782e+03
1.304609e+03,2.362291e+03
1.307502e+03,2.351845e+03
1.310395e+03,2.346261e+03
1.313287e+03,2.336771e+03
1.316180e+03,2.326730e+03
1.319073e+03,2.341337e+03
1.321966e+03,2.337425e+03
1.324858e+03,2.337432e+03
1.327751e+03,2.329863e+03
1.330644e+03,2.313903e+03
1.333536e+03,2.331529e+03
1.336429e+03,2.326786e+03
1.339322e+03,2.318814e+03
1.342214e+03,2.308210e+03
1.345107e+03,2.298722e+03
1.348000e+03,2.292300e+03
1.350893e+03,2.296910e+03
1.353785e+03,2.272924e+03
1.356678e+03,2.274822e+03
1.359571e+03,2.277190e+03
1.362463e+03,2.274211e+03
1.365356e+03,2.279367e+03
1.368249e+03,2.284609e+03
1.371141e+03,2.260052e+03
1.374034e+03,2.265924e+03
1.376927e+03,2.256026e+03
1.379820e+03,2.254129e+03
1.382712e+03,2.240286e+03
1.385605e+03,2.252358e+03
1.388498e+03,2.227980e+03
1.391390e+03,2.234186e+03
1.394283e+03,2.231174e+03
1.397176e+03,2.233470e+03
1.400068e+03,2.231859e+03
1.402961e+03,2.228141e+03
1.405854e+03,2.226304e+03
1.408747e+03,2.217295e+03
1.411639e+03,2.201053e+03
1.414532e+03,2.202715e+03
1.417425e+03,2.194364e+03
1.420317e+03,2.190663e+03
1.423210e+03,2.189783e+03
1.426103e+03,2.176920e+03
1.428995e+03,2.184260e+03
1.431888e+03,2.162530e+03
1.434781e+03,2.154125e+03
1.437674e+03,2.151477e+03
1.440566e+03,2.147153e+03
1.443459e+03,2.155368e+03
1.446352e+03,2.143060e+03
1.449244e+03,2.143822e+03
1.452137e+03,2.138439e+03
1.455030e+03,2.141003e+03
1.457922e+03,2.124772e+03
1.460815e+03,2.135394e+03
1.463708e+03,2.133682e+03
1.466601e+03,2.126785e+03
1.469493e+03,2.120567e+03
1.472386e+03,2.112810e+03
1.475279e+03,2.103798e+03
1.478171e+03,2.107777e+03
1.481064e+03,2.098438e+03
1.483957e+03,2.093159e+03
1.486849e+03,2.087404e+03
1.489742e+03,2.098794e+03
1.492635e+03,2.079218e+03
1.495528e+03,2.084112e+03
1.498420e+03,2.069030e+03
1.501313e+03,2.076617e+03
1.504206e+03,2.067532e+03
1.507098e+03,2.054626e+03
1.509991e+03,2.064354e+03
1.512884e+03,2.049187e+03
1.515776e+03,2.045560e+03
1.518669e+03,2.046245e+03
1.521562e+03,2.049005e+03
1.524455e+03,2.032796e+03
1.527347e+03,2.034704e+03
1.530240e+03,2.014846e+03
1.533133e+03,2.026943e+03
1.536025e+03,2.024053e+03
1.538918e+03,2.006094e+03
1.541811e+03,2.025790e+03
1.544703e+03,2.009425e+03
1.547596e+03,2.005527e+03
1.550489e+03,2.016876e+03
1.553382e+03,2.014592e+03
1.556274e+03,1.990736e+03
1.559167e+03,1.995420e+03
1.562060e+03,1.987563e+03
1.564952e+03,1.993247e+03
1.567845e+03,2.005161e+03
1.570738e+03,1.996173e+03
1.573630e+03,1.990710e+03
1.576523e+03,1.966500e+03
1.579416e+03,1.971970e+03
1.582309e+03,1.971919e+03
1.585201e+03,1.968223e+03
1.588094e+03,1.964655e+03
1.590987e+03,1.962085e+03
1.593879e+03,1.950204e+03
1.596772e+03,1.954847e+03
1.599665e+03,1.941094e+03
1.602557e+03,1.939438e+03
1.605450e+03,1.919644e+03
1.608343e+03,1.931500e+03
1.611236e+03,1.922336e+03
1.614128e+03,1.929872e+03
1.617021e+03,1.912297e+03
1.619914e+03,1.912898e+03
1.622806e+03,1.917381e+03
1.625699e+03,1.905351e+03
1.628592e+03,1.906253e+03
1.631484e+03,1.908524e+03
1.634377e+03,1.890190e+03
1.637270e+03,1.901526e+03
1.640163e+03,1.884149e+03
1.643055e+03,1.887913e+03
1.645948e+03,1.877615e+03
1.648841e+03,1.864830e+03
1.651733e+03,1.861756e+03
1.654626e+03,1.862294e+03
1.657519e+03,1.851809e+03
1.660411e+03,1.854155e+03
1.663304e+03,1.860819e+03
1.666197e+03,1.845580e+03
1.669090e+03,1.825970e+03
1.671982e+03,1.842387e+03
1.674875e+03,1.840635e+03
1.677768e+03,1.837293e+03
1.680660e+03,1.824667e+03
1.683553e+03,1.806976e+03
1.686446e+03,1.811636e+03
1.689339e+03,1.809016e+03
1.692231e+03,1.808342e+03
1.695124e+03,1.806776e+03
1.698017e+03,1.807976e+03
1.700909e+03,1.800224e+03
1.703802e+03,1.791733e+03
1.706695e+03,1.799050e+03
1.709587e+03,1.784738e+03
1.712480e+03,1.793856e+03
1.715373e+03,1.772032e+03
1.718266e+03,1.766378e+03
1.721158e+03,1.762442e+03
1.724051e+03,1.752576e+03
1.726944e+03,1.751731e+03
1.729836e+03,1.756772e+03
1.732729e+03,1.744415e+03
1.735622e+03,1.751811e+03
1.738514e+03,1.740551e+03
1.741407e+03,1.743396e+03
1.744300e+03,1.726291e+03
1.747193e+03,1.726597e+03
1.750085e+03,1.727137e+03
1.752978e+03,1.717149e+03
1.755871e+03,1.730608e+03
1.758763e+03,1.720530e+03
1.761656e+03,1.712360e+03
1.764549e+03,1.697371e+03
1.767441e+03,1.715332e+03
1.770334e+03,1.715613e+03
1.773227e+03,1.700267e+03
1.776120e+03,1.707700e+03
1.779012e+03,1.693582e+03
1.781905e+03,1.680248e+03
1.784798e+03,1.695365e+03
1.787690e+03,1.678725e+03
1.790583e+03,1.673028e+03
1.793476e+03,1.661181e+03
1.796368e+03,1.665202e+03
1.799261e+03,1.653520e+03
1.802154e+03,1.658706e+03
1.805047e+03,1.645661e+03
1.807939e+03,1.645121e+03
1.810832e+03,1.639537e+03
1.813725e+03,1.641288e+03
1.816617e+03,1.634941e+03
1.819510e+03,1.644589e+03
1.822403e+03,1.614447e+03
1.825295e+03,1.623071e+03
1.828188e+03,1.620539e+03
1.831081e+03,1.608037e+03
1.833974e+03,1.617832e+03
1.836866e+03,1.609004e+03
1.839759e+03,1.595690e+03
1.842652e+03,1.609818e+03
1.845544e+03,1.608779e+03
1.848437e+03,1.595583e+03
1.851330e+03,1.600696e+03
1.854222e+03,1.578208e+03
1.857115e+03,1.577102e+03
1.860008e+03,1.570642e+03
1.862901e+03,1.562545e+03
1.865793e+03,1.564989e+03
1.868686e+03,1.552335e+03
1.871579e+03,1.556215e+03
1.874471e+03,1.559001e+03
1.877364e+03,1.556416e+03
1.880257e+03,1.540188e+03
1.883149e+03,1.548463e+03
1.886042e+03,1.527652e+03
1.888935e+03,1.538382e+03
1.891828e+03,1.513329e+03
1.894720e+03,1.530517e+03
1.897613e+03,1.513426e+03
1.900506e+03,1.509227e+03
1.903398e+03,1.517517e+03
1.906291e+03,1.518082e+03
1.909184e+03,1.516170e+03
1.912076e+03,1.502127e+03
1.914969e+03,1.499181e+03
1.917862e+03,1.484791e+03
1.920755e+03,1.489394e+03
1.923647e+03,1.492251e+03
1.926540e+03,1.498155e+03
1.929433e+03,1.471697e+03
1.932325e+03,1.464578e+03
1.935218e+03,1.461167e+03
1.938111e+03,1.467755e+03
1.941003e+03,1.443333e+03
1.943896e+03,1.457828e+03
1.946789e+03,1.452819e+03
1.949682e+03,1.427040e+03
1.952574e+03,1.429855e+03
1.955467e+03,1.431114e+03
1.958360e+03,1.428283e+03
1.961252e+03,1.440239e+03
1.964145e+03,1.416144e+03
1.967038e+03,1.406535e+03
1.969930e+03,1.422724e+03
1.972823e+03,1.411985e+03
1.975716e+03,1.406766e+03
1.978609e+03,1.393321e+03
1.981501e+03,1.406250e+03
1.984394e+03,1.389750e+03
1.987287e+03,1.402149e+03
1.990179e+03,1.394501e+03
1.993072e+03,1.390918e+03
1.995965e+03,1.379629e+03
1.998857e+03,1.373033e+03
2.001750e+03,1.376107e+03
2.004643e+03,1.383443e+03
2.007536e+03,1.362159e+03
2.010428e+03,1.357655e+03
2.013321e+03,1.370568e+03
2.016214e+03,1.362322e+03
2.019106e+03,1.350352e+03
2.021999e+03,1.332323e+03
2.024892e+03,1.340323e+03
2.027784e+03,1.332156e+03
2.030677e+03,1.326178e+03
2.033570e+03,1.337696e+03
2.036463e+03,1.325300e+03
2.039355e+03,1.317088e+03
2.042248e+03,1.325392e+03
2.045141e+03,1.309168e+03
2.048033e+03,1.311419e+03
2.050926e+03,1.302961e+03
2.053819e+03,1.297703e+03
2.056711e+03,1.303990e+03
2.059604e+03,1.294536e+03
2.062497e+03,1.258927e+03
2.065390e+03,1.283856e+03
2.068282e+03,1.287745e+03
2.071175e+03,1.263333e+03
2.074068e+03,1.253911e+03
2.076960e+03,1.263463e+03
2.079853e+03,1.263870e+03
2.082746e+03,1.250656e+03
2.085638e+03,1.254749e+03
2.088531e+03,1.243200e+03
2.091424e+03,1.250027e+03
2.094316e+03,1.255514e+03
2.097209e+03,1.251979e+03
2.100102e+03,1.239895e+03
2.102995e+03,1.224073e+03
2.105887e+03,1.212526e+03
2.108780e+03,1.239028e+03
2.111673e+03,1.230017e+03
2.114565e+03,1.212956e+03
2.117458e+03,1.186088e+03
2.120351e+03,1.200432e+03
2.123244e+03,1.205293e+03
2.126136e+03,1.197512e+03
2.129029e+03,1.182816e+03
2.131922e+03,1.189985e+03
2.134814e+03,1.174819e+03
2.137707e+03,1.177171e+03
2.140600e+03,1.172235e+03
2.143492e+03,1.155118e+03
2.146385e+03,1.158821e+03
2.149278e+03,1.151165e+03
2.152170e+03,1.163681e+03
2.155063e+03,1.152554e+03
2.157956e+03,1.150766e+03
2.160849e+03,1.145332e+03
2.163741e+03,1.154922e+03
2.166634e+03,1.130549e+03
2.169527e+03,1.143271e+03
2.172419e+03,1.125800e+03
2.175312e+03,1.134303e+03
2.178205e+03,1.134779e+03
2.181098e+03,1.111149e+03
2.183990e+03,1.110658e+03
2.186883e+03,1.107796e+03
2.189776e+03,1.120508e+03
2.192668e+03,1.101953e+03
2.195561e+03,1.107552e+03
2.198454e+03,1.107315e+03
2.201346e+03,1.098799e+03
2.204239e+03,1.090526e+03
2.207132e+03,1.091754e+03
2.210024e+03,1.070213e+03
2.212917e+03,1.078426e+03
2.215810e+03,1.072458e+03
2.218703e+03,1.072084e+03
2.221595e+03,1.069738e+03
2.224488e+03,1.057209e+03
2.227381e+03,1.051668e+03
2.230273e+03,1.059665e+03
2.233166e+03,1.064975e+03
2.236059e+03,1.057825e+03
2.238952e+03,1.036367e+03
2.241844e+03,1.046829e+03
2.244737e+03,1.032623e+03
2.247630e+03,1.037137e+03
2.250522e+03,1.031027e+03
2.253415e+03,1.039057e+03
2.256308e+03,1.028661e+03
2.259200e+03,1.024216e+03
2.262093e+03,1.018699e+03
2.264986e+03,1.003995e+03
2.267879e+03,1.002356e+03
2.270771e+03,9.845222e+02
2.273664e+03,9.886474e+02
2.276557e+03,1.016769e+03
2.279449e+03,9.994799e+02
2.282342e+03,9.813023e+02
2.285235e+03,9.917731e+02
2.288127e+03,9.741369e+02
2.291020e+03,9.836811e+02
2.293913e+03,9.805115e+02
2.296805e+03,9.819124e+02
2.299698e+03,9.745752e+02
2.302591e+03,9.636652e+02
2.305484e+03,9.773976e+02
2.308376e+03,9.569016e+02
2.311269e+03,9.622666e+02
2.314162e+03,9.515625e+02
2.317054e+03,9.581913e+02
2.319947e+03,9.410306e+02
2.322840e+03,9.460826e+02
2.325733e+03,9.369092e+02
2.328625e+03,9.429985e+02
2.331518e+03,9.426484e+02
2.334411e+03,9.299158e+02
2.337303e+03,9.406425e+02
2.340196e+03,9.219625e+02
2.343089e+03,9.254495e+02
2.345981e+03,9.225906e+02
2.348874e+03,9.283454e+02
2.351767e+03,9.107441e+02
2.354659e+03,9.087451e+02
2.357552e+03,9.108854e+02
2.360445e+03,9.085718e+02
2.363338e+03,9.154405e+02
2.366230e+03,8.984664e+02
2.369123e+03,8.811733e+02
2.372016e+03,8.863321e+02
2.374908e+03,9.007302e+02
2.377801e+03,9.019699e+02
2.380694e+03,8.844981e+02
2.383587e+03,8.677860e+02
2.386479e+03,8.693665e+02
2.389372e+03,8.685294e+02
2.392265e+03,8.727585e+02
2.395157e+03,8.609203e+02
2.398050e+03,8.708847e+02
2.400943e+03,8.555105e+02
2.403835e+03,8.517077e+02
2.406728e+03,8.640163e+02
2.409621e+03,8.652720e+02
2.412513e+03,8.433953e+02
2.415406e+03,8.472469e+02
2.418299e+03,8.350771e+02
2.421192e+03,8.426669e+02
2.424084e+03,8.420618e+02
2.426977e+03,8.356017e+02
2.429870e+03,8.261121e+02
2.432762e+03,8.393154e+02
2.435655e+03,8.354127e+02
2.438548e+03,8.317029e+02
2.441441e+03,8.127154e+02
2.444333e+03,8.316234e+02
2.447226e+03,8.197540e+02
2.450119e+03,8.265947e+02
2.453011e+03,8.083879e+02
2.455904e+03,8.104464e+02
2.458797e+03,8.055630e+02
2.461689e+03,8.066024e+02
2.464582e+03,7.961514e+02
2.467475e+03,8.178257e+02
2.470367e+03,7.975567e+02
2.473260e+03,7.982159e+02
2.476153e+03,7.906819e+02
2.479046e+03,7.953386e+02
2.481938e+03,7.940016e+02
2.484831e+03,7.779841e+02
2.487724e+03,7.755794e+02
2.490616e+03,7.836889e+02
2.493509e+03,7.789784e+02
2.496402e+03,7.681780e+02
2.499295e+03,7.835331e+02
2.502187e+03,7.755354e+02
2.505080e+03,7.740245e+02
2.507973e+03,7.626703e+02
2.510865e+03,7.752077e+02
2.513758e+03,7.599772e+02
2.516651e+03,7.501534e+02
2.519543e+03,7.553293e+02
2.522436e+03,7.505157e+02
2.525329e+03,7.586772e+02
2.528221e+03,7.459609e+02
2.531114e+03,7.464102e+02
2.534007e+03,7.417975e+02
2.536900e+03,7.498907e+02
2.539792e+03,7.329302e+02
2.542685e+03,7.453113e+02
2.545578e+03,7.411023e+02
2.548470e+03,7.409855e+02
2.551363e+03,7.284434e+02
2.554256e+03,7.591510e+02
2.557149e+03,7.287963e+02
2.560041e+03,7.360939e+02
2.562934e+03,7.262164e+02
2.565827e+03,7.332434e+02
2.568719e+03,7.330374e+02
2.571612e+03,7.187714e+02
2.574505e+03,7.185043e+02
2.577397e+03,7.069587e+02
2.580290e+03,7.168458e+02
2.583183e+03,6.990341e+02
2.586075e+03,6.997441e+02
2.588968e+03,7.115074e+02
2.591861e+03,7.071654e+02
2.594754e+03,7.152147e+02
2.597646e+03,7.043901e+02
2.600539e+03,6.995726e+02
2.603432e+03,7.084643e+02
2.606324e+03,6.934938e+02
2.609217e+03,6.896602e+02
2.612110e+03,6.750399e+02
2.615003e+03,6.782167e+02
2.617895e+03,6.936564e+02
2.620788e+03,6.784847e+02
2.623681e+03,6.947532e+02
2.626573e+03,6.968969e+02
2.629466e+03,6.904117e+02
2.632359e+03,6.814309e+02
2.635251e+03,6.736141e+02
2.638144e+03,6.803658e+02
2.641037e+03,6.697404e+02
2.643929e+03,6.771023e+02
2.646822e+03,6.720201e+02
2.649715e+03,6.541494e+02
2.652608e+03,6.661058e+02
2.655500e+03,6.644814e+02
2.658393e+03,6.724932e+02
2.661286e+03,6.643260e+02
2.664178e+03,6.700201e+02
2.667071e+03,6.507571e+02
2.669964e+03,6.660217e+02
2.672857e+03,6.631951e+02
2.675749e+03,6.470771e+02
2.678642e+03,6.504097e+02
2.681535e+03,6.362054e+02
2.684427e+03,6.509680e+02
2.687320e+03,6.513088e+02
2.690213e+03,6.521435e+02
2.693105e+03,6.270510e+02
2.695998e+03,6.299208e+02
2.698891e+03,6.582274e+02
2.701783e+03,6.408366e+02
2.704676e+03,6.223970e+02
2.707569e+03,6.452186e+02
2.710462e+03,6.409902e+02
2.713354e+03,6.397615e+02
2.716247e+03,6.339296e+02
2.719140e+03,6.313823e+02
2.722032e+03,6.526534e+02
2.724925e+03,6.219059e+02
2.727818e+03,6.301370e+02
2.730711e+03,6.110991e+02
2.733603e+03,6.334933e+02
2.736496e+03,5.978041e+02
2.739389e+03,6.185204e+02
2.742281e+03,6.223634e+02
2.745174e+03,6.245740e+02
2.748067e+03,6.404636e+02
2.750959e+03,6.150980e+02
2.753852e+03,6.132747e+02
2.756745e+03,6.031617e+02
2.759637e+03,6.213893e+02
2.762530e+03,6.150515e+02
2.765423e+03,6.155059e+02
2.768316e+03,5.992089e+02
2.771208e+03,5.919824e+02
2.774101e+03,6.115797e+02
2.776994e+03,5.970254e+02
2.779886e+03,5.946370e+02
2.782779e+03,6.012944e+02
2.785672e+03,5.934411e+02
2.788565e+03,6.080325e+02
2.791457e+03,5.966574e+02
2.794350e+03,5.919223e+02
2.797243e+03,5.859003e+02
2.800135e+03,5.771967e+02
2.803028e+03,5.925751e+02
2.805921e+03,5.701483e+02
2.808813e+03,5.802463e+02
2.811706e+03,5.882908e+02
2.814599e+03,5.893207e+02
2.817491e+03,5.988183e+02
2.820384e+03,5.755690e+02
2.823277e+03,5.756829e+02
2.826170e+03,5.729833e+02
2.829062e+03,5.878730e+02
2.831955e+03,5.775125e+02
2.834848e+03,5.831899e+02
2.837740e+03,5.917750e+02
2.840633e+03,5.755305e+02
2.843526e+03,5.806342e+02
2.846419e+03,5.733763e+02
2.849311e+03,5.931208e+02
2.852204e+03,5.889541e+02
2.855097e+03,5.879059e+02
2.857990e+03,5.859387e+02
2.860882e+03,5.797164e+02
2.863775e+03,5.730439e+02
2.866667e+03,5.939548e+02
2.869560e+03,6.134932e+02
2.872453e+03,5.852627e+02
2.875345e+03,5.997719e+02
2.878238e+03,5.818822e+02
2.881131e+03,5.835457e+02
2.884024e+03,5.988301e+02
2.886916e+03,5.959217e+02
2.889809e+03,6.037504e+02
2.892702e+03,6.061818e+02
2.895594e+03,6.043331e+02
2.898487e+03,5.799677e+02
2.901380e+03,5.822067e+02
2.904273e+03,5.894703e+02
2.907165e+03,5.752799e+02
2.910058e+03,5.977751e+02
2.912951e+03,5.771830e+02
2.915844e+03,5.740917e+02
2.918736e+03,5.754430e+02
2.921629e+03,5.657227e+02
2.924521e+03,5.507426e+02
2.927414e+03,5.625306e+02
2.930307e+03,5.546074e+02
2.933199e+03,5.582166e+02
2.936092e+03,5.644835e+02
2.938985e+03,5.648483e+02
2.941878e+03,5.579654e+02
2.944770e+03,5.478695e+02
2.947663e+03,5.725203e+02
2.950556e+03,5.705605e+02
2.953448e+03,5.643258e+02
2.956341e+03,5.935240e+02
2.959234e+03,5.978469e+02
2.962127e+03,5.435726e+02
2.965019e+03,5.428799e+02
2.967912e+03,5.467401e+02
2.970805e+03,5.200843e+02
2.973698e+03,5.470578e+02
2.976590e+03,5.394403e+02
2.979483e+03,5.120668e+02
2.982375e+03,5.347394e+02
2.985268e+03,5.353178e+02
2.988161e+03,5.420888e+02
2.991053e+03,5.322659e+02
2.993946e+03,5.128043e+02
2.996839e+03,5.513557e+02
2.999732e+03,5.192671e+02
3.002624e+03,5.219819e+02
3.005517e+03,5.064953e+02
3.008410e+03,5.190076e+02
3.011302e+03,5.621303e+02
3.014195e+03,5.024541e+02
3.017088e+03,4.982509e+02
3.019981e+03,5.324034e+02
3.022873e+03,5.384594e+02
3.025766e+03,5.208854e+02
3.028659e+03,5.262914e+02
3.031552e+03,5.046379e+02
3.034444e+03,5.113432e+02
3.037337e+03,5.130551e+02
3.040229e+03,5.176879e+02
3.043122e+03,5.321643e+02
3.046015e+03,5.327999e+02
3.048907e+03,4.962197e+02
3.051800e+03,5.394915e+02
3.054693e+03,5.452736e+02
3.057586e+03,5.200304e+02
3.060478e+03,5.103054e+02
3.063371e+03,5.135568e+02
3.066264e+03,4.936950e+02
3.069156e+03,5.103602e+02
3.072049e+03,5.407202e+02
3.074942e+03,5.033322e+02
3.077835e+03,5.199610e+02
3.080727e+03,4.982289e+02
3.083620e+03,4.959849e+02
3.086513e+03,5.173333e+02
3.089406e+03,5.281348e+02
3.092298e+03,4.799411e+02
3.095191e+03,5.250629e+02
3.098083e+03,5.191979e+02
3.100976e+03,5.345875e+02
3.103869e+03,4.908465e+02
3.106761e+03,4.903730e+02
3.109654e+03,5.084502e+02
3.112547e+03,5.232252e+02
3.115440e+03,5.145118e+02
3.118332e+03,5.291917e+02
3.121225e+03,5.255703e+02
3.124118e+03,5.090282e+02
3.127010e+03,5.252475e+02
3.129903e+03,4.987453e+02
3.132796e+03,5.102889e+02
3.135689e+03,4.991244e+02
3.138581e+03,5.506080e+02
3.141474e+03,5.206615e+02
3.144367e+03,5.234108e+02
3.147260e+03,5.310548e+02
3.150152e+03,5.325419e+02
3.153045e+03,5.245052e+02
3.155938e+03,5.034296e+02
3.158830e+03,4.984065e+02
3.161723e+03,5.273023e+02
3.164615e+03,5.176589e+02
3.167508e+03,5.335135e+02
3.170401e+03,4.776106e+02
3.173294e+03,5.306337e+02
3.176186e+03,4.973587e+02
3.179079e+03,4.909703e+02
3.181972e+03,5.582462e+02
3.184865e+03,5.334093e+02
3.187757e+03,5.190745e+02
3.190650e+03,5.092563e+02
3.193543e+03,4.824651e+02
3.196435e+03,5.434897e+02
3.199328e+03,5.306695e+02
3.200292e+03,5.335317e+02