File: RAMAN_data/06022023_r1/black fibre10.CSV
1.995979e+02,2.904366e+03
2.024906e+02,2.914581e+03
2.053833e+02,2.906391e+03
2.082760e+02,2.907432e+03
2.111687e+02,2.921725e+03
2.140614e+02,2.921711e+03
2.169541e+02,2.930395e+03
2.198468e+02,2.922517e+03
2.227395e+02,2.933123e+03
2.256322e+02,2.924991e+03
2.285249e+02,2.920105e+03
2.314176e+02,2.934188e+03
2.343103e+02,2.936971e+03
2.372030e+02,2.932721e+03
2.400957e+02,2.929218e+03
2.429884e+02,2.933320e+03
2.458811e+02,2.946103e+03
2.487738e+02,2.957685e+03
2.516665e+02,2.952961e+03
2.545592e+02,2.946843e+03
2.574519e+02,2.943845e+03
2.603446e+02,2.958604e+03
2.632373e+02,2.957066e+03
2.661300e+02,2.958160e+03
2.690227e+02,2.964265e+03
2.719154e+02,2.971402e+03
2.748081e+02,2.968747e+03
2.777008e+02,2.976900e+03
2.805935e+02,2.981874e+03
2.834862e+02,2.986545e+03
2.863789e+02,2.991755e+03
2.892716e+02,2.994472e+03
2.921643e+02,2.979964e+03
2.950570e+02,2.979398e+03
2.979497e+02,2.983975e+03
3.008424e+02,2.975137e+03
3.037351e+02,2.978530e+03
3.066278e+02,2.978224e+03
3.095205e+02,2.979574e+03
3.124132e+02,2.977126e+03
3.153059e+02,2.984352e+03
3.181986e+02,2.998426e+03
3.210913e+02,2.987454e+03
3.239840e+02,2.986522e+03
3.268767e+02,2.992653e+03
3.297694e+02,2.998523e+03
3.326621e+02,3.008976e+03
3.355548e+02,3.004644e+03
3.384475e+02,2.989652e+03
3.413402e+02,2.997518e+03
3.442329e+02,2.985354e+03
3.471256e+02,2.985663e+03
3.500183e+02,2.986974e+03
3.529110e+02,2.990075e+03
3.558037e+02,2.999730e+03
3.586964e+02,2.989625e+03
3.615891e+02,2.979771e+03
3.644818e+02,2.980156e+03
3.673745e+02,2.978225e+03
3.702672e+02,2.989824e+03
3.731599e+02,3.009041e+03
3.760526e+02,3.002344e+03
3.789453e+02,3.011161e+03
3.818380e+02,2.995044e+03
3.847307e+02,2.986296e+03
3.876234e+02,2.976677e+03
3.905161e+02,2.986363e+03
3.934088e+02,2.985280e+03
3.963015e+02,2.981534e+03
3.991942e+02,2.975266e+03
4.020869e+02,2.974860e+03
4.049796e+02,2.979112e+03
4.078723e+02,2.963608e+03
4.107650e+02,2.965234e+03
4.136577e+02,2.963257e+03
4.165504e+02,2.951971e+03
4.194431e+02,2.972607e+03
4.223358e+02,2.960021e+03
4.252285e+02,2.956097e+03
4.281212e+02,2.961179e+03
4.310139e+02,2.966705e+03
4.339066e+02,2.967571e+03
4.367993e+02,2.979360e+03
4.396920e+02,2.960103e+03
4.425847e+02,2.949407e+03
4.454774e+02,2.943743e+03
4.483701e+02,2.936544e+03
4.512628e+02,2.950827e+03
4.541555e+02,2.941204e+03
4.570482e+02,2.938040e+03
4.599409e+02,2.933216e+03
4.628336e+02,2.937144e+03
4.657263e+02,2.916292e+03
4.686190e+02,2.914547e+03
4.715117e+02,2.918798e+03
4.744044e+02,2.924247e+03
4.772971e+02,2.909581e+03
4.801898e+02,2.921851e+03
4.830825e+02,2.929307e+03
4.859752e+02,2.929473e+03
4.888679e+02,2.933146e+03
4.917606e+02,2.927419e+03
4.946533e+02,2.928299e+03
4.975460e+02,2.917331e+03
5.004387e+02,2.903586e+03
5.033314e+02,2.894193e+03
5.062241e+02,2.892980e+03
5.091168e+02,2.898058e+03
5.120095e+02,2.891148e+03
5.149022e+02,2.895671e+03
5.177949e+02,2.894433e+03
5.206876e+02,2.872907e+03
5.235803e+02,2.885738e+03
5.264730e+02,2.864261e+03
5.293657e+02,2.872073e+03
5.322584e+02,2.853752e+03
5.351511e+02,2.854597e+03
5.380438e+02,2.853713e+03
5.409365e+02,2.850990e+03
5.438292e+02,2.846945e+03
5.467219e+02,2.855922e+03
5.496146e+02,2.845234e+03
5.525073e+02,2.821007e+03
5.554000e+02,2.832624e+03
5.582927e+02,2.831917e+03
5.611854e+02,2.825957e+03
5.640781e+02,2.820794e+03
5.669708e+02,2.809536e+03
5.698635e+02,2.806802e+03
5.727562e+02,2.808230e+03
5.756489e+02,2.814202e+03
5.785416e+02,2.826143e+03
5.814343e+02,2.805265e+03
5.843270e+02,2.787566e+03
5.872197e+02,2.780014e+03
5.901124e+02,2.809844e+03
5.930051e+02,2.788882e+03
5.958978e+02,2.783547e+03
5.987905e+02,2.771022e+03
6.016832e+02,2.777370e+03
6.045759e+02,2.778488e+03
6.074686e+02,2.777734e+03
6.103613e+02,2.780074e+03
6.132540e+02,2.756753e+03
6.161467e+02,2.746719e+03
6.190394e+02,2.749841e+03
6.219321e+02,2.742000e+03
6.248248e+02,2.751870e+03
6.277175e+02,2.741019e+03
6.306102e+02,2.746036e+03
6.335029e+02,2.737303e+03
6.363956e+02,2.730391e+03
6.392883e+02,2.732930e+03
6.421810e+02,2.729273e+03
6.450737e+02,2.713601e+03
6.479664e+02,2.711667e+03
6.508591e+02,2.731043e+03
6.537518e+02,2.700591e+03
6.566445e+02,2.699733e+03
6.595372e+02,2.682910e+03
6.624299e+02,2.675459e+03
6.653226e+02,2.678429e+03
6.682153e+02,2.691812e+03
6.711080e+02,2.676134e+03
6.740007e+02,2.657956e+03
6.768934e+02,2.671367e+03
6.797861e+02,2.650129e+03
6.826788e+02,2.660905e+03
6.855715e+02,2.658283e+03
6.884642e+02,2.644442e+03
6.913569e+02,2.647039e+03
6.942496e+02,2.647313e+03
6.971423e+02,2.638559e+03
7.000350e+02,2.640607e+03
7.029277e+02,2.633576e+03
7.058204e+02,2.625071e+03
7.087131e+02,2.608688e+03
7.116058e+02,2.598222e+03
7.144985e+02,2.598511e+03
7.173912e+02,2.605400e+03
7.202839e+02,2.584908e+03
7.231766e+02,2.604433e+03
7.260693e+02,2.589622e+03
7.289620e+02,2.578775e+03
7.318547e+02,2.572349e+03
7.347474e+02,2.583459e+03
7.376401e+02,2.571630e+03
7.405328e+02,2.566042e+03
7.434255e+02,2.546029e+03
7.463182e+02,2.554949e+03
7.492109e+02,2.546839e+03
7.521036e+02,2.561517e+03
7.549963e+02,2.532497e+03
7.578890e+02,2.543049e+03
7.607817e+02,2.525668e+03
7.636744e+02,2.517634e+03
7.665671e+02,2.512227e+03
7.694598e+02,2.525147e+03
7.723525e+02,2.503738e+03
7.752452e+02,2.511197e+03
7.781379e+02,2.513606e+03
7.810306e+02,2.493275e+03
7.839233e+02,2.497184e+03
7.868160e+02,2.494962e+03
7.897087e+02,2.490875e+03
7.926014e+02,2.466212e+03
7.954941e+02,2.475227e+03
7.983868e+02,2.463458e+03
8.012795e+02,2.462033e+03
8.041722e+02,2.474459e+03
8.070649e+02,2.457533e+03
8.099576e+02,2.470932e+03
8.128503e+02,2.436302e+03
8.157430e+02,2.438296e+03
8.186357e+02,2.423531e+03
8.215284e+02,2.451508e+03
8.244211e+02,2.427397e+03
8.273138e+02,2.426988e+03
8.302065e+02,2.418125e+03
8.330992e+02,2.422321e+03
8.359919e+02,2.415134e+03
8.388846e+02,2.415301e+03
8.417773e+02,2.413030e+03
8.446700e+02,2.394254e+03
8.475627e+02,2.392702e+03
8.504554e+02,2.381067e+03
8.533481e+02,2.384641e+03
8.562408e+02,2.379506e+03
8.591335e+02,2.371950e+03
8.620262e+02,2.379760e+03
8.649189e+02,2.360136e+03
8.678116e+02,2.368352e+03
8.707043e+02,2.367603e+03
8.735970e+02,2.353430e+03
8.764897e+02,2.355724e+03
8.793824e+02,2.341554e+03
8.822751e+02,2.348821e+03
8.851678e+02,2.352912e+03
8.880605e+02,2.350395e+03
8.909532e+02,2.340722e+03
8.938459e+02,2.335125e+03
8.967386e+02,2.317635e+03
8.996313e+02,2.320828e+03
9.025240e+02,2.320146e+03
9.054167e+02,2.314083e+03
9.083094e+02,2.288515e+03
9.112021e+02,2.291984e+03
9.140948e+02,2.299900e+03
9.169875e+02,2.289064e+03
9.198802e+02,2.276325e+03
9.227729e+02,2.274313e+03
9.256656e+02,2.269388e+03
9.285583e+02,2.284665e+03
9.314510e+02,2.273659e+03
9.343438e+02,2.251352e+03
9.372365e+02,2.255006e+03
9.401292e+02,2.240646e+03
9.430219e+02,2.258913e+03
9.459146e+02,2.248073e+03
9.488073e+02,2.248006e+03
9.517000e+02,2.234090e+03
9.545927e+02,2.225632e+03
9.574854e+02,2.223812e+03
9.603781e+02,2.225750e+03
9.632708e+02,2.230736e+03
9.661635e+02,2.212868e+03
9.690562e+02,2.220226e+03
9.719489e+02,2.209126e+03
9.748416e+02,2.218792e+03
9.777343e+02,2.196286e+03
9.806270e+02,2.204266e+03
9.835197e+02,2.195680e+03
9.864124e+02,2.194704e+03
9.893051e+02,2.175621e+03
9.921978e+02,2.188188e+03
9.950905e+02,2.178612e+03
9.979832e+02,2.181262e+03
1.000876e+03,2.169708e+03
1.003769e+03,2.169778e+03
1.006661e+03,2.168536e+03
1.009554e+03,2.171391e+03
1.012447e+03,2.155079e+03
1.015339e+03,2.156247e+03
1.018232e+03,2.136594e+03
1.021125e+03,2.138965e+03
1.024017e+03,2.140872e+03
1.026910e+03,2.140058e+03
1.029803e+03,2.130567e+03
1.032696e+03,2.126312e+03
1.035588e+03,2.128959e+03
1.038481e+03,2.135886e+03
1.041374e+03,2.121560e+03
1.044266e+03,2.129929e+03
1.047159e+03,2.109476e+03
1.050052e+03,2.101058e+03
1.052944e+03,2.102706e+03
1.055837e+03,2.120525e+03
1.058730e+03,2.094364e+03
1.061623e+03,2.100915e+03
1.064515e+03,2.097310e+03
1.067408e+03,2.101865e+03
1.070301e+03,2.095017e+03
1.073193e+03,2.087906e+03
1.076086e+03,2.087294e+03
1.078979e+03,2.079074e+03
1.081871e+03,2.081254e+03
1.084764e+03,2.079362e+03
1.087657e+03,2.085528e+03
1.090550e+03,2.109416e+03
1.093442e+03,2.090778e+03
1.096335e+03,2.081068e+03
1.099228e+03,2.084361e+03
1.102120e+03,2.075985e+03
1.105013e+03,2.076898e+03
1.107906e+03,2.056206e+03
1.110798e+03,2.066371e+03
1.113691e+03,2.070640e+03
1.116584e+03,2.076634e+03
1.119477e+03,2.066081e+03
1.122369e+03,2.063312e+03
1.125262e+03,2.059327e+03
1.128155e+03,2.054448e+03
1.131047e+03,2.043764e+03
1.133940e+03,2.048671e+03
1.136833e+03,2.032988e+03
1.139725e+03,2.026116e+03
1.142618e+03,2.033051e+03
1.145511e+03,2.034472e+03
1.148404e+03,2.035646e+03
1.151296e+03,2.042784e+03
1.154189e+03,2.028202e+03
1.157082e+03,2.019828e+03
1.159974e+03,1.996826e+03
1.162867e+03,1.999838e+03
1.165760e+03,2.002665e+03
1.168652e+03,1.987123e+03
1.171545e+03,1.976473e+03
1.174438e+03,1.981530e+03
1.177331e+03,1.985414e+03
1.180223e+03,1.994766e+03
1.183116e+03,1.974993e+03
1.186009e+03,1.970958e+03
1.188901e+03,1.973837e+03
1.191794e+03,1.972554e+03
1.194687e+03,1.956570e+03
1.197579e+03,1.946264e+03
1.200472e+03,1.948341e+03
1.203365e+03,1.942993e+03
1.206258e+03,1.937616e+03
1.209150e+03,1.945097e+03
1.212043e+03,1.947739e+03
1.214936e+03,1.945426e+03
1.217828e+03,1.942205e+03
1.220721e+03,1.931199e+03
1.223614e+03,1.935429e+03
1.226506e+03,1.942724e+03
1.229399e+03,1.946290e+03
1.232292e+03,1.923172e+03
1.235185e+03,1.923660e+03
1.238077e+03,1.914331e+03
1.240970e+03,1.919564e+03
1.243863e+03,1.911257e+03
1.246755e+03,1.910607e+03
1.249648e+03,1.903908e+03
1.252541e+03,1.905113e+03
1.255433e+03,1.895067e+03
1.258326e+03,1.895777e+03
1.261219e+03,1.905258e+03
1.264112e+03,1.892247e+03
1.267004e+03,1.889959e+03
1.269897e+03,1.883671e+03
1.272790e+03,1.895912e+03
1.275682e+03,1.908547e+03
1.278575e+03,1.907197e+03
1.281468e+03,1.900857e+03
1.284360e+03,1.905808e+03
1.287253e+03,1.892555e+03
1.290146e+03,1.901868e+03
1.293039e+03,1.879081e+03
1.295931e+03,1.868930e+03
1.298824e+03,1.857869e+03
1.301717e+03,1.866863e+03
1.304609e+03,1.874778e+03
1.307502e+03,1.870537e+03
1.310395e+03,1.853461e+03
1.313287e+03,1.842103e+03
1.316180e+03,1.851139e+03
1.319073e+03,1.856014e+03
1.321966e+03,1.860115e+03
1.324858e+03,1.856011e+03
1.327751e+03,1.858558e+03
1.330644e+03,1.855169e+03
1.333536e+03,1.842618e+03
1.336429e+03,1.850759e+03
1.339322e+03,1.843041e+03
1.342214e+03,1.849684e+03
1.345107e+03,1.842305e+03
1.348000e+03,1.847560e+03
1.350893e+03,1.836155e+03
1.353785e+03,1.838528e+03
1.356678e+03,1.836818e+03
1.359571e+03,1.832982e+03
1.362463e+03,1.826271e+03
1.365356e+03,1.837310e+03
1.368249e+03,1.828189e+03
1.371141e+03,1.821238e+03
1.374034e+03,1.818107e+03
1.376927e+03,1.812667e+03
1.379820e+03,1.816031e+03
1.382712e+03,1.803337e+03
1.385605e+03,1.801879e+03
1.388498e+03,1.786406e+03
1.391390e+03,1.796039e+03
1.394283e+03,1.780437e+03
1.397176e+03,1.783177e+03
1.400068e+03,1.785105e+03
1.402961e+03,1.780335e+03
1.405854e+03,1.788851e+03
1.408747e+03,1.782339e+03
1.411639e+03,1.767792e+03
1.414532e+03,1.784788e+03
1.417425e+03,1.765633e+03
1.420317e+03,1.771506e+03
1.423210e+03,1.762732e+03
1.426103e+03,1.769382e+03
1.428995e+03,1.756219e+03
1.431888e+03,1.756474e+03
1.434781e+03,1.732482e+03
1.437674e+03,1.730415e+03
1.440566e+03,1.727137e+03
1.443459e+03,1.735220e+03
1.446352e+03,1.730808e+03
1.449244e+03,1.729472e+03
1.452137e+03,1.728663e+03
1.455030e+03,1.716137e+03
1.457922e+03,1.711447e+03
1.460815e+03,1.716567e+03
1.463708e+03,1.709628e+03
1.466601e+03,1.707148e+03
1.469493e+03,1.706468e+03
1.472386e+03,1.716706e+03
1.475279e+03,1.709935e+03
1.478171e+03,1.708713e+03
1.481064e+03,1.701281e+03
1.483957e+03,1.695098e+03
1.486849e+03,1.699894e+03
1.489742e+03,1.705102e+03
1.492635e+03,1.678690e+03
1.495528e+03,1.696067e+03
1.498420e+03,1.680229e+03
1.501313e+03,1.677691e+03
1.504206e+03,1.667718e+03
1.507098e+03,1.674417e+03
1.509991e+03,1.675138e+03
1.512884e+03,1.663850e+03
1.515776e+03,1.665903e+03
1.518669e+03,1.666349e+03
1.521562e+03,1.657134e+03
1.524455e+03,1.660616e+03
1.527347e+03,1.655638e+03
1.530240e+03,1.650410e+03
1.533133e+03,1.653361e+03
1.536025e+03,1.658711e+03
1.538918e+03,1.637407e+03
1.541811e+03,1.630837e+03
1.544703e+03,1.641171e+03
1.547596e+03,1.632723e+03
1.550489e+03,1.639929e+03
1.553382e+03,1.641982e+03
1.556274e+03,1.640499e+03
1.559167e+03,1.628681e+03
1.562060e+03,1.636514e+03
1.564952e+03,1.631392e+03
1.567845e+03,1.645155e+03
1.570738e+03,1.636456e+03
1.573630e+03,1.622752e+03
1.576523e+03,1.619878e+03
1.579416e+03,1.628916e+03
1.582309e+03,1.633132e+03
1.585201e+03,1.624332e+03
1.588094e+03,1.615361e+03
1.590987e+03,1.611646e+03
1.593879e+03,1.599023e+03
1.596772e+03,1.603492e+03
1.599665e+03,1.599716e+03
1.602557e+03,1.597461e+03
1.605450e+03,1.582990e+03
1.608343e+03,1.583588e+03
1.611236e+03,1.588283e+03
1.614128e+03,1.579812e+03
1.617021e+03,1.575083e+03
1.619914e+03,1.580524e+03
1.622806e+03,1.557297e+03
1.625699e+03,1.560451e+03
1.628592e+03,1.549936e+03
1.631484e+03,1.563238e+03
1.634377e+03,1.546713e+03
1.637270e+03,1.545181e+03
1.640163e+03,1.531521e+03
1.643055e+03,1.537257e+03
1.645948e+03,1.536680e+03
1.648841e+03,1.531660e+03
1.651733e+03,1.539349e+03
1.654626e+03,1.513361e+03
1.657519e+03,1.519796e+03
1.660411e+03,1.536241e+03
1.663304e+03,1.520281e+03
1.666197e+03,1.520554e+03
1.669090e+03,1.512515e+03
1.671982e+03,1.509409e+03
1.674875e+03,1.510226e+03
1.677768e+03,1.496778e+03
1.680660e+03,1.510284e+03
1.683553e+03,1.487338e+03
1.686446e+03,1.485429e+03
1.689339e+03,1.482657e+03
1.692231e+03,1.495737e+03
1.695124e+03,1.479690e+03
1.698017e+03,1.489305e+03
1.700909e+03,1.485264e+03
1.703802e+03,1.486664e+03
1.706695e+03,1.476789e+03
1.709587e+03,1.455332e+03
1.712480e+03,1.466647e+03
1.715373e+03,1.450568e+03
1.718266e+03,1.455385e+03
1.721158e+03,1.454646e+03
1.724051e+03,1.454116e+03
1.726944e+03,1.447565e+03
1.729836e+03,1.446028e+03
1.732729e+03,1.445324e+03
1.735622e+03,1.443440e+03
1.738514e+03,1.439558e+03
1.741407e+03,1.447263e+03
1.744300e+03,1.442617e+03
1.747193e+03,1.419013e+03
1.750085e+03,1.428613e+03
1.752978e+03,1.429205e+03
1.755871e+03,1.416560e+03
1.758763e+03,1.419301e+03
1.761656e+03,1.420421e+03
1.764549e+03,1.400754e+03
1.767441e+03,1.405203e+03
1.770334e+03,1.405925e+03
1.773227e+03,1.402607e+03
1.776120e+03,1.397686e+03
1.779012e+03,1.401915e+03
1.781905e+03,1.386873e+03
1.784798e+03,1.391797e+03
1.787690e+03,1.372263e+03
1.790583e+03,1.371403e+03
1.793476e+03,1.372100e+03
1.796368e+03,1.364823e+03
1.799261e+03,1.356563e+03
1.802154e+03,1.370009e+03
1.805047e+03,1.351518e+03
1.807939e+03,1.358082e+03
1.810832e+03,1.355458e+03
1.813725e+03,1.349278e+03
1.816617e+03,1.353050e+03
1.819510e+03,1.356635e+03
1.822403e+03,1.346287e+03
1.825295e+03,1.339461e+03
1.828188e+03,1.342595e+03
1.831081e+03,1.332684e+03
1.833974e+03,1.334269e+03
1.836866e+03,1.318052e+03
1.839759e+03,1.313643e+03
1.842652e+03,1.318034e+03
1.845544e+03,1.316480e+03
1.848437e+03,1.312210e+03
1.851330e+03,1.300007e+03
1.854222e+03,1.301015e+03
1.857115e+03,1.293443e+03
1.860008e+03,1.302373e+03
1.862901e+03,1.286799e+03
1.865793e+03,1.296405e+03
1.868686e+03,1.282908e+03
1.871579e+03,1.278936e+03
1.874471e+03,1.274466e+03
1.877364e+03,1.286230e+03
1.880257e+03,1.277659e+03
1.883149e+03,1.271884e+03
1.886042e+03,1.260301e+03
1.888935e+03,1.263510e+03
1.891828e+03,1.256758e+03
1.894720e+03,1.263631e+03
1.897613e+03,1.243963e+03
1.900506e+03,1.261082e+03
1.903398e+03,1.239308e+03
1.906291e+03,1.239074e+03
1.909184e+03,1.244257e+03
1.912076e+03,1.239147e+03
1.914969e+03,1.230113e+03
1.917862e+03,1.226970e+03
1.920755e+03,1.214538e+03
1.923647e+03,1.220820e+03
1.926540e+03,1.224959e+03
1.929433e+03,1.214425e+03
1.932325e+03,1.195565e+03
1.935218e+03,1.209182e+03
1.938111e+03,1.204606e+03
1.941003e+03,1.198520e+03
1.943896e+03,1.190859e+03
1.946789e+03,1.182798e+03
1.949682e+03,1.188378e+03
1.952574e+03,1.187821e+03
1.955467e+03,1.192607e+03
1.958360e+03,1.181709e+03
1.961252e+03,1.178493e+03
1.964145e+03,1.176259e+03
1.967038e+03,1.177824e+03
1.969930e+03,1.180256e+03
1.972823e+03,1.166164e+03
1.975716e+03,1.166885e+03
1.978609e+03,1.162843e+03
1.981501e+03,1.164929e+03
1.984394e+03,1.155902e+03
1.987287e+03,1.159151e+03
1.990179e+03,1.130450e+03
1.993072e+03,1.128776e+03
1.995965e+03,1.135961e+03
1.998857e+03,1.125400e+03
2.001750e+03,1.134447e+03
2.004643e+03,1.127683e+03
2.007536e+03,1.120672e+03
2.010428e+03,1.131106e+03
2.013321e+03,1.119636e+03
2.016214e+03,1.122994e+03
2.019106e+03,1.102629e+03
2.021999e+03,1.112290e+03
2.024892e+03,1.097217e+03
2.027784e+03,1.097188e+03
2.030677e+03,1.103533e+03
2.033570e+03,1.098332e+03
2.036463e+03,1.090286e+03
2.039355e+03,1.071018e+03
2.042248e+03,1.096992e+03
2.045141e+03,1.085020e+03
2.048033e+03,1.065647e+03
2.050926e+03,1.084338e+03
2.053819e+03,1.077296e+03
2.056711e+03,1.057432e+03
2.059604e+03,1.052960e+03
2.062497e+03,1.057825e+03
2.065390e+03,1.050002e+03
2.068282e+03,1.035319e+03
2.071175e+03,1.043789e+03
2.074068e+03,1.026316e+03
2.076960e+03,1.031516e+03
2.079853e+03,1.042297e+03
2.082746e+03,1.047128e+03
2.085638e+03,1.027680e+03
2.088531e+03,1.031149e+03
2.091424e+03,1.033932e+03
2.094316e+03,1.008853e+03
2.097209e+03,1.020756e+03
2.100102e+03,1.006404e+03
2.102995e+03,1.013596e+03
2.105887e+03,1.009873e+03
2.108780e+03,1.015376e+03
2.111673e+03,9.987252e+02
2.114565e+03,9.976395e+02
2.117458e+03,9.833149e+02
2.120351e+03,9.961515e+02
2.123244e+03,1.003067e+03
2.126136e+03,9.863419e+02
2.129029e+03,9.811577e+02
2.131922e+03,9.843474e+02
2.134814e+03,9.777178e+02
2.137707e+03,9.772013e+02
2.140600e+03,9.820095e+02
2.143492e+03,9.552493e+02
2.146385e+03,9.520413e+02
2.149278e+03,9.486140e+02
2.152170e+03,9.661243e+02
2.155063e+03,9.606124e+02
2.157956e+03,9.546379e+02
2.160849e+03,9.502283e+02
2.163741e+03,9.526359e+02
2.166634e+03,9.563624e+02
2.169527e+03,9.317474e+02
2.172419e+03,9.474169e+02
2.175312e+03,9.421973e+02
2.178205e+03,9.336531e+02
2.181098e+03,9.293066e+02
2.183990e+03,9.325058e+02
2.186883e+03,9.249467e+02
2.189776e+03,9.220819e+02
2.192668e+03,9.226121e+02
2.195561e+03,9.065160e+02
2.198454e+03,9.057017e+02
2.201346e+03,9.197880e+02
2.204239e+03,9.064884e+02
2.207132e+03,8.996730e+02
2.210024e+03,8.985408e+02
2.212917e+03,8.980020e+02
2.215810e+03,9.020609e+02
2.218703e+03,8.987665e+02
2.221595e+03,8.948701e+02
2.224488e+03,8.888098e+02
2.227381e+03,8.850546e+02
2.230273e+03,8.745339e+02
2.233166e+03,8.844377e+02
2.236059e+03,8.650352e+02
2.238952e+03,8.706027e+02
2.241844e+03,8.591888e+02
2.244737e+03,8.677817e+02
2.247630e+03,8.529257e+02
2.250522e+03,8.579435e+02
2.253415e+03,8.705959e+02
2.256308e+03,8.580775e+02
2.259200e+03,8.548268e+02
2.262093e+03,8.468505e+02
2.264986e+03,8.444304e+02
2.267879e+03,8.460759e+02
2.270771e+03,8.434060e+02
2.273664e+03,8.176485e+02
2.276557e+03,8.450267e+02
2.279449e+03,8.290372e+02
2.282342e+03,8.393619e+02
2.285235e+03,8.260303e+02
2.288127e+03,8.240106e+02
2.291020e+03,8.129069e+02
2.293913e+03,8.178152e+02
2.296805e+03,8.166849e+02
2.299698e+03,8.154473e+02
2.302591e+03,8.093533e+02
2.305484e+03,8.023292e+02
2.308376e+03,8.053733e+02
2.311269e+03,7.956505e+02
2.314162e+03,7.852369e+02
2.317054e+03,7.970979e+02
2.319947e+03,7.881981e+02
2.322840e+03,7.910715e+02
2.325733e+03,7.963390e+02
2.328625e+03,8.001203e+02
2.331518e+03,7.841690e+02
2.334411e+03,7.736773e+02
2.337303e+03,7.804520e+02
2.340196e+03,7.747510e+02
2.343089e+03,7.792737e+02
2.345981e+03,7.819597e+02
2.348874e+03,7.633506e+02
2.351767e+03,7.697012e+02
2.354659e+03,7.621711e+02
2.357552e+03,7.580338e+02
2.360445e+03,7.627322e+02
2.363338e+03,7.635862e+02
2.366230e+03,7.476249e+02
2.369123e+03,7.473559e+02
2.372016e+03,7.507795e+02
2.374908e+03,7.439833e+02
2.377801e+03,7.502557e+02
2.380694e+03,7.357055e+02
2.383587e+03,7.347938e+02
2.386479e+03,7.301886e+02
2.389372e+03,7.327313e+02
2.392265e+03,7.354406e+02
2.395157e+03,7.381008e+02
2.398050e+03,7.226007e+02
2.400943e+03,7.249444e+02
2.403835e+03,7.241086e+02
2.406728e+03,7.238078e+02
2.409621e+03,7.119673e+02
2.412513e+03,7.096306e+02
2.415406e+03,7.077610e+02
2.418299e+03,7.256542e+02
2.421192e+03,7.101480e+02
2.424084e+03,7.229326e+02
2.426977e+03,7.175951e+02
2.429870e+03,7.022831e+02
2.432762e+03,7.070311e+02
2.435655e+03,6.960895e+02
2.438548e+03,7.038035e+02
2.441441e+03,6.875582e+02
2.444333e+03,6.869896e+02
2.447226e+03,6.894213e+02
2.450119e+03,6.873251e+02
2.453011e+03,6.787195e+02
2.455904e+03,6.746984e+02
2.458797e+03,6.911399e+02
2.461689e+03,6.783616e+02
2.464582e+03,6.852835e+02
2.467475e+03,6.811760e+02
2.470367e+03,6.757618e+02
2.473260e+03,6.876854e+02
2.476153e+03,6.786996e+02
2.479046e+03,6.634739e+02
2.481938e+03,6.750798e+02
2.484831e+03,6.649264e+02
2.487724e+03,6.682349e+02
2.490616e+03,6.544647e+02
2.493509e+03,6.670166e+02
2.496402e+03,6.630970e+02
2.499295e+03,6.753160e+02
2.502187e+03,6.513497e+02
2.505080e+03,6.526248e+02
2.507973e+03,6.568096e+02
2.510865e+03,6.633661e+02
2.513758e+03,6.517143e+02
2.516651e+03,6.370009e+02
2.519543e+03,6.538256e+02
2.522436e+03,6.453969e+02
2.525329e+03,6.463217e+02
2.528221e+03,6.395021e+02
2.531114e+03,6.427066e+02
2.534007e+03,6.409799e+02
2.536900e+03,6.308051e+02
2.539792e+03,6.368214e+02
2.542685e+03,6.348196e+02
2.545578e+03,6.430908e+02
2.548470e+03,6.420360e+02
2.551363e+03,6.426385e+02
2.554256e+03,6.371712e+02
2.557149e+03,6.280070e+02
2.560041e+03,6.211555e+02
2.562934e+03,6.229561e+02
2.565827e+03,6.191669e+02
2.568719e+03,6.216125e+02
2.571612e+03,6.262137e+02
2.574505e+03,6.199135e+02
2.577397e+03,6.219416e+02
2.580290e+03,5.972736e+02
2.583183e+03,6.095900e+02
2.586075e+03,5.960574e+02
2.588968e+03,6.031799e+02
2.591861e+03,6.031387e+02
2.594754e+03,6.159094e+02
2.597646e+03,6.128712e+02
2.600539e+03,5.955379e+02
2.603432e+03,5.919843e+02
2.606324e+03,5.975303e+02
2.609217e+03,6.008028e+02
2.612110e+03,6.056574e+02
2.615003e+03,5.861962e+02
2.617895e+03,5.869402e+02
2.620788e+03,5.819807e+02
2.623681e+03,5.879056e+02
2.626573e+03,5.961371e+02
2.629466e+03,5.873754e+02
2.632359e+03,5.842475e+02
2.635251e+03,5.785840e+02
2.638144e+03,5.846224e+02
2.641037e+03,5.699304e+02
2.643929e+03,5.825224e+02
2.646822e+03,5.801041e+02
2.649715e+03,5.591254e+02
2.652608e+03,5.767568e+02
2.655500e+03,5.757706e+02
2.658393e+03,5.622496e+02
2.661286e+03,5.687757e+02
2.664178e+03,5.634254e+02
2.667071e+03,5.690496e+02
2.669964e+03,5.645905e+02
2.672857e+03,5.677946e+02
2.675749e+03,5.644068e+02
2.678642e+03,5.563454e+02
2.681535e+03,5.689438e+02
2.684427e+03,5.672058e+02
2.687320e+03,5.602953e+02
2.690213e+03,5.532781e+02
2.693105e+03,5.478626e+02
2.695998e+03,5.506503e+02
2.698891e+03,5.600571e+02
2.701783e+03,5.530900e+02
2.704676e+03,5.490903e+02
2.707569e+03,5.460461e+02
2.710462e+03,5.363788e+02
2.713354e+03,5.448057e+02
2.716247e+03,5.547634e+02
2.719140e+03,5.476931e+02
2.722032e+03,5.476521e+02
2.724925e+03,5.402314e+02
2.727818e+03,5.230476e+02
2.730711e+03,5.462277e+02
2.733603e+03,5.423224e+02
2.736496e+03,5.328492e+02
2.739389e+03,5.286285e+02
2.742281e+03,5.370616e+02
2.745174e+03,5.417758e+02
2.748067e+03,5.245523e+02
2.750959e+03,5.260173e+02
2.753852e+03,5.266200e+02
2.756745e+03,5.299380e+02
2.759637e+03,5.143617e+02
2.762530e+03,5.306885e+02
2.765423e+03,5.249230e+02
2.768316e+03,5.336545e+02
2.771208e+03,5.197352e+02
2.774101e+03,5.140817e+02
2.776994e+03,5.241335e+02
2.779886e+03,5.131007e+02
2.782779e+03,5.107008e+02
2.785672e+03,5.167471e+02
2.788565e+03,5.129747e+02
2.791457e+03,5.171608e+02
2.794350e+03,5.012889e+02
2.797243e+03,5.125158e+02
2.800135e+03,5.113856e+02
2.803028e+03,4.908356e+02
2.805921e+03,4.992190e+02
2.808813e+03,5.037493e+02
2.811706e+03,5.039966e+02
2.814599e+03,5.034034e+02
2.817491e+03,5.187883e+02
2.820384e+03,5.087533e+02
2.823277e+03,5.151656e+02
2.826170e+03,4.963624e+02
2.829062e+03,5.164296e+02
2.831955e+03,5.051035e+02
2.834848e+03,5.045458e+02
2.837740e+03,5.097129e+02
2.840633e+03,4.964386e+02
2.843526e+03,4.977697e+02
2.846419e+03,4.979671e+02
2.849311e+03,5.062931e+02
2.852204e+03,4.982614e+02
2.855097e+03,4.978401e+02
2.857990e+03,5.015943e+02
2.860882e+03,5.012045e+02
2.863775e+03,5.105700e+02
2.866667e+03,5.058456e+02
2.869560e+03,5.081878e+02
2.872453e+03,5.157582e+02
2.875345e+03,5.095973e+02
2.878238e+03,5.233420e+02
2.881131e+03,5.216445e+02
2.884024e+03,5.169313e+02
2.886916e+03,5.200668e+02
2.889809e+03,5.219797e+02
2.892702e+03,5.034248e+02
2.895594e+03,5.280365e+02
2.898487e+03,5.112800e+02
2.901380e+03,4.897961e+02
2.904273e+03,5.116342e+02
2.907165e+03,5.030877e+02
2.910058e+03,5.183353e+02
2.912951e+03,5.150923e+02
2.915844e+03,4.981835e+02
2.918736e+03,4.876900e+02
2.921629e+03,5.012787e+02
2.924521e+03,4.938295e+02
2.927414e+03,4.944533e+02
2.930307e+03,4.765301e+02
2.933199e+03,4.970055e+02
2.936092e+03,4.681192e+02
2.938985e+03,4.675921e+02
2.941878e+03,4.837215e+02
2.944770e+03,4.959955e+02
2.947663e+03,4.968345e+02
2.950556e+03,4.824694e+02
2.953448e+03,4.790117e+02
2.956341e+03,5.257713e+02
2.959234e+03,5.167905e+02
2.962127e+03,4.784903e+02
2.965019e+03,4.728268e+02
2.967912e+03,4.932241e+02
2.970805e+03,4.463955e+02
2.973698e+03,4.563222e+02
2.976590e+03,4.487338e+02
2.979483e+03,4.543418e+02
2.982375e+03,4.596408e+02
2.985268e+03,4.551674e+02
2.988161e+03,4.495985e+02
2.991053e+03,4.594789e+02
2.993946e+03,4.523137e+02
2.996839e+03,4.608245e+02
2.999732e+03,4.447660e+02
3.002624e+03,4.165852e+02
3.005517e+03,4.430154e+02
3.008410e+03,4.312501e+02
3.011302e+03,4.578348e+02
3.014195e+03,4.447111e+02
3.017088e+03,4.555445e+02
3.019981e+03,4.454261e+02
3.022873e+03,4.422857e+02
3.025766e+03,4.624601e+02
3.028659e+03,4.457896e+02
3.031552e+03,4.311856e+02
3.034444e+03,4.564477e+02
3.037337e+03,4.259369e+02
3.040229e+03,4.353721e+02
3.043122e+03,4.477451e+02
3.046015e+03,4.358759e+02
3.048907e+03,4.098362e+02
3.051800e+03,4.437047e+02
3.054693e+03,4.378891e+02
3.057586e+03,4.283710e+02
3.060478e+03,4.524067e+02
3.063371e+03,4.405660e+02
3.066264e+03,4.166689e+02
3.069156e+03,4.487747e+02
3.072049e+03,4.529452e+02
3.074942e+03,4.384779e+02
3.077835e+03,4.377167e+02
3.080727e+03,4.363636e+02
3.083620e+03,4.457930e+02
3.086513e+03,4.413864e+02
3.089406e+03,4.294893e+02
3.092298e+03,4.365585e+02
3.095191e+03,4.381845e+02
3.098083e+03,4.393887e+02
3.100976e+03,4.469980e+02
3.103869e+03,4.092572e+02
3.106761e+03,4.163567e+02
3.109654e+03,4.296798e+02
3.112547e+03,4.452954e+02
3.115440e+03,4.234129e+02
3.118332e+03,4.311980e+02
3.121225e+03,4.554268e+02
3.124118e+03,4.403822e+02
3.127010e+03,4.539993e+02
3.129903e+03,4.316247e+02
3.132796e+03,4.176140e+02
3.135689e+03,4.351849e+02
3.138581e+03,4.448507e+02
3.141474e+03,4.507591e+02
3.144367e+03,4.357898e+02
3.147260e+03,4.339910e+02
3.150152e+03,4.145296e+02
3.153045e+03,4.160196e+02
3.155938e+03,4.327392e+02
3.158830e+03,4.240321e+02
3.161723e+03,4.456583e+02
3.164615e+03,4.316172e+02
3.167508e+03,4.495132e+02
3.170401e+03,4.377124e+02
3.173294e+03,4.539228e+02
3.176186e+03,4.706132e+02
3.179079e+03,4.662065e+02
3.181972e+03,4.391315e+02
3.184865e+03,4.465611e+02
3.187757e+03,4.727714e+02
3.190650e+03,4.278241e+02
3.193543e+03,4.223646e+02
3.196435e+03,4.422987e+02
3.199328e+03,4.764504e+02
3.200292e+03,4.674590e+02