File: RAMAN_data/06022023_r1/black fibre6.CSV
1.995979e+02,3.806534e+03
2.024906e+02,3.819875e+03
2.053833e+02,3.845872e+03
2.082760e+02,3.836472e+03
2.111687e+02,3.840028e+03
2.140614e+02,3.833917e+03
2.169541e+02,3.835144e+03
2.198468e+02,3.871194e+03
2.227395e+02,3.847907e+03
2.256322e+02,3.855395e+03
2.285249e+02,3.861390e+03
2.314176e+02,3.872775e+03
2.343103e+02,3.868910e+03
2.372030e+02,3.881057e+03
2.400957e+02,3.881791e+03
2.429884e+02,3.880867e+03
2.458811e+02,3.895743e+03
2.487738e+02,3.906722e+03
2.516665e+02,3.900593e+03
2.545592e+02,3.916557e+03
2.574519e+02,3.890413e+03
2.603446e+02,3.912478e+03
2.632373e+02,3.922023e+03
2.661300e+02,3.917350e+03
2.690227e+02,3.918875e+03
2.719154e+02,3.928356e+03
2.748081e+02,3.931677e+03
2.777008e+02,3.947346e+03
2.805935e+02,3.950860e+03
2.834862e+02,3.929995e+03
2.863789e+02,3.932141e+03
2.892716e+02,3.928293e+03
2.921643e+02,3.935899e+03
2.950570e+02,3.960185e+03
2.979497e+02,3.957284e+03
3.008424e+02,3.951770e+03
3.037351e+02,3.952814e+03
3.066278e+02,3.947160e+03
3.095205e+02,3.947101e+03
3.124132e+02,3.955983e+03
3.153059e+02,3.948867e+03
3.181986e+02,3.940344e+03
3.210913e+02,3.957612e+03
3.239840e+02,3.948873e+03
3.268767e+02,3.967291e+03
3.297694e+02,3.965844e+03
3.326621e+02,3.968412e+03
3.355548e+02,3.964697e+03
3.384475e+02,3.949007e+03
3.413402e+02,3.977069e+03
3.442329e+02,3.957394e+03
3.471256e+02,3.962150e+03
3.500183e+02,3.959136e+03
3.529110e+02,3.947768e+03
3.558037e+02,3.961950e+03
3.586964e+02,3.964843e+03
3.615891e+02,3.972059e+03
3.644818e+02,3.965326e+03
3.673745e+02,3.949638e+03
3.702672e+02,3.969777e+03
3.731599e+02,3.977621e+03
3.760526e+02,3.980702e+03
3.789453e+02,3.996265e+03
3.818380e+02,3.973669e+03
3.847307e+02,3.966161e+03
3.876234e+02,3.948170e+03
3.905161e+02,3.946282e+03
3.934088e+02,3.956625e+03
3.963015e+02,3.948940e+03
3.991942e+02,3.952575e+03
4.020869e+02,3.961324e+03
4.049796e+02,3.951625e+03
4.078723e+02,3.969571e+03
4.107650e+02,3.936444e+03
4.136577e+02,3.923347e+03
4.165504e+02,3.939805e+03
4.194431e+02,3.937181e+03
4.223358e+02,3.943831e+03
4.252285e+02,3.916030e+03
4.281212e+02,3.935278e+03
4.310139e+02,3.940385e+03
4.339066e+02,3.938422e+03
4.367993e+02,3.939081e+03
4.396920e+02,3.945749e+03
4.425847e+02,3.912602e+03
4.454774e+02,3.918565e+03
4.483701e+02,3.911834e+03
4.512628e+02,3.905321e+03
4.541555e+02,3.911258e+03
4.570482e+02,3.911285e+03
4.599409e+02,3.913474e+03
4.628336e+02,3.890001e+03
4.657263e+02,3.903169e+03
4.686190e+02,3.893486e+03
4.715117e+02,3.889906e+03
4.744044e+02,3.885057e+03
4.772971e+02,3.896180e+03
4.801898e+02,3.883657e+03
4.830825e+02,3.871311e+03
4.859752e+02,3.895855e+03
4.888679e+02,3.876209e+03
4.917606e+02,3.883754e+03
4.946533e+02,3.856818e+03
4.975460e+02,3.860335e+03
5.004387e+02,3.841378e+03
5.033314e+02,3.846567e+03
5.062241e+02,3.846786e+03
5.091168e+02,3.841907e+03
5.120095e+02,3.849271e+03
5.149022e+02,3.845221e+03
5.177949e+02,3.835425e+03
5.206876e+02,3.827681e+03
5.235803e+02,3.812480e+03
5.264730e+02,3.833807e+03
5.293657e+02,3.806190e+03
5.322584e+02,3.793250e+03
5.351511e+02,3.803742e+03
5.380438e+02,3.794951e+03
5.409365e+02,3.791306e+03
5.438292e+02,3.802021e+03
5.467219e+02,3.783817e+03
5.496146e+02,3.772292e+03
5.525073e+02,3.767849e+03
5.554000e+02,3.775122e+03
5.582927e+02,3.745093e+03
5.611854e+02,3.744137e+03
5.640781e+02,3.762875e+03
5.669708e+02,3.758542e+03
5.698635e+02,3.733664e+03
5.727562e+02,3.732208e+03
5.756489e+02,3.741630e+03
5.785416e+02,3.734365e+03
5.814343e+02,3.725425e+03
5.843270e+02,3.716433e+03
5.872197e+02,3.698140e+03
5.901124e+02,3.724034e+03
5.930051e+02,3.707046e+03
5.958978e+02,3.696874e+03
5.987905e+02,3.711876e+03
6.016832e+02,3.712880e+03
6.045759e+02,3.695581e+03
6.074686e+02,3.700957e+03
6.103613e+02,3.669565e+03
6.132540e+02,3.676114e+03
6.161467e+02,3.655681e+03
6.190394e+02,3.656521e+03
6.219321e+02,3.670125e+03
6.248248e+02,3.673399e+03
6.277175e+02,3.641508e+03
6.306102e+02,3.632746e+03
6.335029e+02,3.629451e+03
6.363956e+02,3.635596e+03
6.392883e+02,3.628293e+03
6.421810e+02,3.619430e+03
6.450737e+02,3.623448e+03
6.479664e+02,3.578817e+03
6.508591e+02,3.604002e+03
6.537518e+02,3.594711e+03
6.566445e+02,3.587251e+03
6.595372e+02,3.574127e+03
6.624299e+02,3.563730e+03
6.653226e+02,3.571064e+03
6.682153e+02,3.577969e+03
6.711080e+02,3.559589e+03
6.740007e+02,3.552626e+03
6.768934e+02,3.550494e+03
6.797861e+02,3.510316e+03
6.826788e+02,3.531509e+03
6.855715e+02,3.514931e+03
6.884642e+02,3.515931e+03
6.913569e+02,3.501704e+03
6.942496e+02,3.498314e+03
6.971423e+02,3.504788e+03
7.000350e+02,3.504279e+03
7.029277e+02,3.467448e+03
7.058204e+02,3.499730e+03
7.087131e+02,3.461392e+03
7.116058e+02,3.475388e+03
7.144985e+02,3.479821e+03
7.173912e+02,3.454714e+03
7.202839e+02,3.455754e+03
7.231766e+02,3.431917e+03
7.260693e+02,3.434056e+03
7.289620e+02,3.429668e+03
7.318547e+02,3.415030e+03
7.347474e+02,3.415371e+03
7.376401e+02,3.415107e+03
7.405328e+02,3.414265e+03
7.434255e+02,3.399265e+03
7.463182e+02,3.400894e+03
7.492109e+02,3.391831e+03
7.521036e+02,3.392033e+03
7.549963e+02,3.378459e+03
7.578890e+02,3.365278e+03
7.607817e+02,3.363281e+03
7.636744e+02,3.359911e+03
7.665671e+02,3.350987e+03
7.694598e+02,3.337808e+03
7.723525e+02,3.333730e+03
7.752452e+02,3.336546e+03
7.781379e+02,3.323655e+03
7.810306e+02,3.312679e+03
7.839233e+02,3.310185e+03
7.868160e+02,3.295270e+03
7.897087e+02,3.279618e+03
7.926014e+02,3.277913e+03
7.954941e+02,3.277304e+03
7.983868e+02,3.275087e+03
8.012795e+02,3.271985e+03
8.041722e+02,3.263010e+03
8.070649e+02,3.266813e+03
8.099576e+02,3.264144e+03
8.128503e+02,3.230675e+03
8.157430e+02,3.237267e+03
8.186357e+02,3.235413e+03
8.215284e+02,3.228694e+03
8.244211e+02,3.230643e+03
8.273138e+02,3.220970e+03
8.302065e+02,3.198685e+03
8.330992e+02,3.199242e+03
8.359919e+02,3.200972e+03
8.388846e+02,3.192062e+03
8.417773e+02,3.190783e+03
8.446700e+02,3.174604e+03
8.475627e+02,3.171654e+03
8.504554e+02,3.141460e+03
8.533481e+02,3.165960e+03
8.562408e+02,3.147066e+03
8.591335e+02,3.130350e+03
8.620262e+02,3.130336e+03
8.649189e+02,3.133200e+03
8.678116e+02,3.110539e+03
8.707043e+02,3.120882e+03
8.735970e+02,3.106367e+03
8.764897e+02,3.108651e+03
8.793824e+02,3.106250e+03
8.822751e+02,3.091416e+03
8.851678e+02,3.099214e+03
8.880605e+02,3.090945e+03
8.909532e+02,3.071785e+03
8.938459e+02,3.060545e+03
8.967386e+02,3.056078e+03
8.996313e+02,3.053536e+03
9.025240e+02,3.057798e+03
9.054167e+02,3.026305e+03
9.083094e+02,3.028099e+03
9.112021e+02,3.024689e+03
9.140948e+02,3.011203e+03
9.169875e+02,2.996602e+03
9.198802e+02,2.997232e+03
9.227729e+02,2.992480e+03
9.256656e+02,2.986556e+03
9.285583e+02,2.980765e+03
9.314510e+02,2.986083e+03
9.343438e+02,2.971680e+03
9.372365e+02,2.962814e+03
9.401292e+02,2.955063e+03
9.430219e+02,2.942352e+03
9.459146e+02,2.941663e+03
9.488073e+02,2.949218e+03
9.517000e+02,2.914469e+03
9.545927e+02,2.921767e+03
9.574854e+02,2.926822e+03
9.603781e+02,2.913090e+03
9.632708e+02,2.903097e+03
9.661635e+02,2.904250e+03
9.690562e+02,2.880130e+03
9.719489e+02,2.880840e+03
9.748416e+02,2.877502e+03
9.777343e+02,2.873777e+03
9.806270e+02,2.875074e+03
9.835197e+02,2.860159e+03
9.864124e+02,2.849934e+03
9.893051e+02,2.845955e+03
9.921978e+02,2.848326e+03
9.950905e+02,2.847793e+03
9.979832e+02,2.828132e+03
1.000876e+03,2.821522e+03
1.003769e+03,2.810124e+03
1.006661e+03,2.802331e+03
1.009554e+03,2.813018e+03
1.012447e+03,2.808993e+03
1.015339e+03,2.793879e+03
1.018232e+03,2.790234e+03
1.021125e+03,2.785822e+03
1.024017e+03,2.777842e+03
1.026910e+03,2.779519e+03
1.029803e+03,2.764599e+03
1.032696e+03,2.769491e+03
1.035588e+03,2.761223e+03
1.038481e+03,2.766978e+03
1.041374e+03,2.757988e+03
1.044266e+03,2.750845e+03
1.047159e+03,2.726098e+03
1.050052e+03,2.727538e+03
1.052944e+03,2.738621e+03
1.055837e+03,2.735352e+03
1.058730e+03,2.722157e+03
1.061623e+03,2.716507e+03
1.064515e+03,2.699038e+03
1.067408e+03,2.705585e+03
1.070301e+03,2.710638e+03
1.073193e+03,2.705206e+03
1.076086e+03,2.668793e+03
1.078979e+03,2.677390e+03
1.081871e+03,2.691370e+03
1.084764e+03,2.689418e+03
1.087657e+03,2.701564e+03
1.090550e+03,2.685244e+03
1.093442e+03,2.682379e+03
1.096335e+03,2.673262e+03
1.099228e+03,2.677646e+03
1.102120e+03,2.644776e+03
1.105013e+03,2.656444e+03
1.107906e+03,2.643046e+03
1.110798e+03,2.651277e+03
1.113691e+03,2.649734e+03
1.116584e+03,2.657801e+03
1.119477e+03,2.643539e+03
1.122369e+03,2.627011e+03
1.125262e+03,2.619098e+03
1.128155e+03,2.617386e+03
1.131047e+03,2.614545e+03
1.133940e+03,2.596211e+03
1.136833e+03,2.585491e+03
1.139725e+03,2.570142e+03
1.142618e+03,2.578121e+03
1.145511e+03,2.568499e+03
1.148404e+03,2.575487e+03
1.151296e+03,2.577985e+03
1.154189e+03,2.568325e+03
1.157082e+03,2.553192e+03
1.159974e+03,2.542493e+03
1.162867e+03,2.533003e+03
1.165760e+03,2.526921e+03
1.168652e+03,2.523483e+03
1.171545e+03,2.520233e+03
1.174438e+03,2.518712e+03
1.177331e+03,2.510330e+03
1.180223e+03,2.509641e+03
1.183116e+03,2.508407e+03
1.186009e+03,2.487293e+03
1.188901e+03,2.490046e+03
1.191794e+03,2.482759e+03
1.194687e+03,2.486448e+03
1.197579e+03,2.490102e+03
1.200472e+03,2.470145e+03
1.203365e+03,2.470296e+03
1.206258e+03,2.449334e+03
1.209150e+03,2.464656e+03
1.212043e+03,2.463589e+03
1.214936e+03,2.458515e+03
1.217828e+03,2.462800e+03
1.220721e+03,2.457598e+03
1.223614e+03,2.451640e+03
1.226506e+03,2.443490e+03
1.229399e+03,2.432896e+03
1.232292e+03,2.439496e+03
1.235185e+03,2.421037e+03
1.238077e+03,2.420974e+03
1.240970e+03,2.427514e+03
1.243863e+03,2.415126e+03
1.246755e+03,2.403805e+03
1.249648e+03,2.414509e+03
1.252541e+03,2.408368e+03
1.255433e+03,2.410149e+03
1.258326e+03,2.391854e+03
1.261219e+03,2.405069e+03
1.264112e+03,2.379126e+03
1.267004e+03,2.382397e+03
1.269897e+03,2.379571e+03
1.272790e+03,2.381448e+03
1.275682e+03,2.386964e+03
1.278575e+03,2.378729e+03
1.281468e+03,2.368222e+03
1.284360e+03,2.353733e+03
1.287253e+03,2.361628e+03
1.290146e+03,2.362719e+03
1.293039e+03,2.339745e+03
1.295931e+03,2.352301e+03
1.298824e+03,2.329713e+03
1.301717e+03,2.336687e+03
1.304609e+03,2.327006e+03
1.307502e+03,2.312962e+03
1.310395e+03,2.319617e+03
1.313287e+03,2.311697e+03
1.316180e+03,2.312591e+03
1.319073e+03,2.316944e+03
1.321966e+03,2.302196e+03
1.324858e+03,2.315636e+03
1.327751e+03,2.299889e+03
1.330644e+03,2.304481e+03
1.333536e+03,2.303426e+03
1.336429e+03,2.298805e+03
1.339322e+03,2.298345e+03
1.342214e+03,2.277745e+03
1.345107e+03,2.266713e+03
1.348000e+03,2.264094e+03
1.350893e+03,2.273860e+03
1.353785e+03,2.271574e+03
1.356678e+03,2.258500e+03
1.359571e+03,2.256438e+03
1.362463e+03,2.260776e+03
1.365356e+03,2.251077e+03
1.368249e+03,2.252770e+03
1.371141e+03,2.258813e+03
1.374034e+03,2.242800e+03
1.376927e+03,2.228837e+03
1.379820e+03,2.235653e+03
1.382712e+03,2.224020e+03
1.385605e+03,2.235435e+03
1.388498e+03,2.217875e+03
1.391390e+03,2.217343e+03
1.394283e+03,2.204035e+03
1.397176e+03,2.222692e+03
1.400068e+03,2.205246e+03
1.402961e+03,2.216649e+03
1.405854e+03,2.185330e+03
1.408747e+03,2.202912e+03
1.411639e+03,2.197377e+03
1.414532e+03,2.178423e+03
1.417425e+03,2.171212e+03
1.420317e+03,2.168042e+03
1.423210e+03,2.158940e+03
1.426103e+03,2.151294e+03
1.428995e+03,2.157646e+03
1.431888e+03,2.151698e+03
1.434781e+03,2.136266e+03
1.437674e+03,2.126929e+03
1.440566e+03,2.132534e+03
1.443459e+03,2.135428e+03
1.446352e+03,2.119712e+03
1.449244e+03,2.109409e+03
1.452137e+03,2.121408e+03
1.455030e+03,2.104026e+03
1.457922e+03,2.115248e+03
1.460815e+03,2.108352e+03
1.463708e+03,2.119263e+03
1.466601e+03,2.095238e+03
1.469493e+03,2.091955e+03
1.472386e+03,2.095138e+03
1.475279e+03,2.103266e+03
1.478171e+03,2.101262e+03
1.481064e+03,2.083192e+03
1.483957e+03,2.078773e+03
1.486849e+03,2.066201e+03
1.489742e+03,2.060777e+03
1.492635e+03,2.047767e+03
1.495528e+03,2.068475e+03
1.498420e+03,2.048716e+03
1.501313e+03,2.058561e+03
1.504206e+03,2.044881e+03
1.507098e+03,2.047209e+03
1.509991e+03,2.025749e+03
1.512884e+03,2.038367e+03
1.515776e+03,2.030926e+03
1.518669e+03,2.026046e+03
1.521562e+03,2.025367e+03
1.524455e+03,2.025962e+03
1.527347e+03,2.009931e+03
1.530240e+03,2.002155e+03
1.533133e+03,1.997188e+03
1.536025e+03,1.997661e+03
1.538918e+03,2.005099e+03
1.541811e+03,1.982702e+03
1.544703e+03,1.986785e+03
1.547596e+03,1.989121e+03
1.550489e+03,1.993142e+03
1.553382e+03,1.982520e+03
1.556274e+03,1.986401e+03
1.559167e+03,1.968326e+03
1.562060e+03,1.965841e+03
1.564952e+03,1.975626e+03
1.567845e+03,1.981958e+03
1.570738e+03,1.970903e+03
1.573630e+03,1.959113e+03
1.576523e+03,1.973344e+03
1.579416e+03,1.955797e+03
1.582309e+03,1.958343e+03
1.585201e+03,1.954970e+03
1.588094e+03,1.943943e+03
1.590987e+03,1.936115e+03
1.593879e+03,1.931436e+03
1.596772e+03,1.932453e+03
1.599665e+03,1.918604e+03
1.602557e+03,1.915195e+03
1.605450e+03,1.933295e+03
1.608343e+03,1.891279e+03
1.611236e+03,1.900265e+03
1.614128e+03,1.926425e+03
1.617021e+03,1.902934e+03
1.619914e+03,1.899857e+03
1.622806e+03,1.878980e+03
1.625699e+03,1.893828e+03
1.628592e+03,1.877646e+03
1.631484e+03,1.886325e+03
1.634377e+03,1.873833e+03
1.637270e+03,1.879974e+03
1.640163e+03,1.860231e+03
1.643055e+03,1.861342e+03
1.645948e+03,1.842263e+03
1.648841e+03,1.848410e+03
1.651733e+03,1.843887e+03
1.654626e+03,1.844558e+03
1.657519e+03,1.844669e+03
1.660411e+03,1.829552e+03
1.663304e+03,1.826412e+03
1.666197e+03,1.822867e+03
1.669090e+03,1.818359e+03
1.671982e+03,1.818937e+03
1.674875e+03,1.814267e+03
1.677768e+03,1.807976e+03
1.680660e+03,1.799182e+03
1.683553e+03,1.805862e+03
1.686446e+03,1.786510e+03
1.689339e+03,1.786960e+03
1.692231e+03,1.785592e+03
1.695124e+03,1.775202e+03
1.698017e+03,1.781159e+03
1.700909e+03,1.761421e+03
1.703802e+03,1.778332e+03
1.706695e+03,1.774853e+03
1.709587e+03,1.754425e+03
1.712480e+03,1.762998e+03
1.715373e+03,1.742395e+03
1.718266e+03,1.754606e+03
1.721158e+03,1.754069e+03
1.724051e+03,1.723281e+03
1.726944e+03,1.741930e+03
1.729836e+03,1.724406e+03
1.732729e+03,1.730825e+03
1.735622e+03,1.725320e+03
1.738514e+03,1.722636e+03
1.741407e+03,1.733487e+03
1.744300e+03,1.723710e+03
1.747193e+03,1.709935e+03
1.750085e+03,1.709849e+03
1.752978e+03,1.682301e+03
1.755871e+03,1.702061e+03
1.758763e+03,1.687993e+03
1.761656e+03,1.686859e+03
1.764549e+03,1.676592e+03
1.767441e+03,1.685537e+03
1.770334e+03,1.694471e+03
1.773227e+03,1.681551e+03
1.776120e+03,1.675236e+03
1.779012e+03,1.658907e+03
1.781905e+03,1.649936e+03
1.784798e+03,1.675023e+03
1.787690e+03,1.634432e+03
1.790583e+03,1.634172e+03
1.793476e+03,1.634552e+03
1.796368e+03,1.645746e+03
1.799261e+03,1.623029e+03
1.802154e+03,1.634624e+03
1.805047e+03,1.629456e+03
1.807939e+03,1.614686e+03
1.810832e+03,1.629709e+03
1.813725e+03,1.632990e+03
1.816617e+03,1.604152e+03
1.819510e+03,1.606148e+03
1.822403e+03,1.578422e+03
1.825295e+03,1.586059e+03
1.828188e+03,1.588847e+03
1.831081e+03,1.593688e+03
1.833974e+03,1.571314e+03
1.836866e+03,1.582928e+03
1.839759e+03,1.577989e+03
1.842652e+03,1.588969e+03
1.845544e+03,1.573488e+03
1.848437e+03,1.568757e+03
1.851330e+03,1.568446e+03
1.854222e+03,1.557953e+03
1.857115e+03,1.545707e+03
1.860008e+03,1.548838e+03
1.862901e+03,1.560110e+03
1.865793e+03,1.541092e+03
1.868686e+03,1.523805e+03
1.871579e+03,1.530572e+03
1.874471e+03,1.525547e+03
1.877364e+03,1.535344e+03
1.880257e+03,1.500531e+03
1.883149e+03,1.504464e+03
1.886042e+03,1.499863e+03
1.888935e+03,1.498610e+03
1.891828e+03,1.506579e+03
1.894720e+03,1.496030e+03
1.897613e+03,1.501909e+03
1.900506e+03,1.499846e+03
1.903398e+03,1.491071e+03
1.906291e+03,1.484899e+03
1.909184e+03,1.472634e+03
1.912076e+03,1.472023e+03
1.914969e+03,1.458640e+03
1.917862e+03,1.457295e+03
1.920755e+03,1.457468e+03
1.923647e+03,1.453564e+03
1.926540e+03,1.447210e+03
1.929433e+03,1.449618e+03
1.932325e+03,1.440460e+03
1.935218e+03,1.433976e+03
1.938111e+03,1.427020e+03
1.941003e+03,1.416411e+03
1.943896e+03,1.416813e+03
1.946789e+03,1.419744e+03
1.949682e+03,1.390906e+03
1.952574e+03,1.406892e+03
1.955467e+03,1.393116e+03
1.958360e+03,1.389553e+03
1.961252e+03,1.398996e+03
1.964145e+03,1.394330e+03
1.967038e+03,1.399808e+03
1.969930e+03,1.383595e+03
1.972823e+03,1.369070e+03
1.975716e+03,1.366089e+03
1.978609e+03,1.367435e+03
1.981501e+03,1.351674e+03
1.984394e+03,1.349959e+03
1.987287e+03,1.366044e+03
1.990179e+03,1.358446e+03
1.993072e+03,1.345649e+03
1.995965e+03,1.352074e+03
1.998857e+03,1.335928e+03
2.001750e+03,1.332345e+03
2.004643e+03,1.342566e+03
2.007536e+03,1.322203e+03
2.010428e+03,1.318830e+03
2.013321e+03,1.330109e+03
2.016214e+03,1.312467e+03
2.019106e+03,1.314649e+03
2.021999e+03,1.293813e+03
2.024892e+03,1.287305e+03
2.027784e+03,1.298134e+03
2.030677e+03,1.302880e+03
2.033570e+03,1.294119e+03
2.036463e+03,1.282011e+03
2.039355e+03,1.283178e+03
2.042248e+03,1.273647e+03
2.045141e+03,1.272768e+03
2.048033e+03,1.266074e+03
2.050926e+03,1.270426e+03
2.053819e+03,1.257457e+03
2.056711e+03,1.247891e+03
2.059604e+03,1.243346e+03
2.062497e+03,1.256590e+03
2.065390e+03,1.235434e+03
2.068282e+03,1.241395e+03
2.071175e+03,1.231310e+03
2.074068e+03,1.221467e+03
2.076960e+03,1.232572e+03
2.079853e+03,1.231612e+03
2.082746e+03,1.205406e+03
2.085638e+03,1.219759e+03
2.088531e+03,1.207867e+03
2.091424e+03,1.200284e+03
2.094316e+03,1.211327e+03
2.097209e+03,1.202107e+03
2.100102e+03,1.190241e+03
2.102995e+03,1.175178e+03
2.105887e+03,1.172451e+03
2.108780e+03,1.183606e+03
2.111673e+03,1.175881e+03
2.114565e+03,1.171889e+03
2.117458e+03,1.155676e+03
2.120351e+03,1.188296e+03
2.123244e+03,1.164526e+03
2.126136e+03,1.173180e+03
2.129029e+03,1.154465e+03
2.131922e+03,1.150362e+03
2.134814e+03,1.164934e+03
2.137707e+03,1.146999e+03
2.140600e+03,1.137478e+03
2.143492e+03,1.140018e+03
2.146385e+03,1.128589e+03
2.149278e+03,1.116901e+03
2.152170e+03,1.114503e+03
2.155063e+03,1.118091e+03
2.157956e+03,1.102424e+03
2.160849e+03,1.108514e+03
2.163741e+03,1.101755e+03
2.166634e+03,1.099897e+03
2.169527e+03,1.098098e+03
2.172419e+03,1.098102e+03
2.175312e+03,1.091091e+03
2.178205e+03,1.095954e+03
2.181098e+03,1.086909e+03
2.183990e+03,1.080815e+03
2.186883e+03,1.077497e+03
2.189776e+03,1.076365e+03
2.192668e+03,1.065704e+03
2.195561e+03,1.067661e+03
2.198454e+03,1.056132e+03
2.201346e+03,1.043980e+03
2.204239e+03,1.059240e+03
2.207132e+03,1.055770e+03
2.210024e+03,1.046322e+03
2.212917e+03,1.023006e+03
2.215810e+03,1.044618e+03
2.218703e+03,1.041627e+03
2.221595e+03,1.022139e+03
2.224488e+03,1.021079e+03
2.227381e+03,1.015417e+03
2.230273e+03,1.032308e+03
2.233166e+03,1.013195e+03
2.236059e+03,1.032900e+03
2.238952e+03,9.996575e+02
2.241844e+03,9.990706e+02
2.244737e+03,1.000743e+03
2.247630e+03,9.933980e+02
2.250522e+03,1.001566e+03
2.253415e+03,1.003057e+03
2.256308e+03,9.887537e+02
2.259200e+03,9.870010e+02
2.262093e+03,9.765516e+02
2.264986e+03,9.776686e+02
2.267879e+03,9.716992e+02
2.270771e+03,9.542990e+02
2.273664e+03,9.699668e+02
2.276557e+03,9.621816e+02
2.279449e+03,9.641558e+02
2.282342e+03,9.656036e+02
2.285235e+03,9.574879e+02
2.288127e+03,9.485437e+02
2.291020e+03,9.418352e+02
2.293913e+03,9.338914e+02
2.296805e+03,9.351182e+02
2.299698e+03,9.374793e+02
2.302591e+03,9.397463e+02
2.305484e+03,9.234404e+02
2.308376e+03,9.216353e+02
2.311269e+03,9.217054e+02
2.314162e+03,9.111097e+02
2.317054e+03,9.170392e+02
2.319947e+03,9.157853e+02
2.322840e+03,9.090291e+02
2.325733e+03,9.216949e+02
2.328625e+03,9.060199e+02
2.331518e+03,9.022180e+02
2.334411e+03,8.938531e+02
2.337303e+03,8.787368e+02
2.340196e+03,8.819005e+02
2.343089e+03,8.922285e+02
2.345981e+03,8.826146e+02
2.348874e+03,8.906158e+02
2.351767e+03,8.670270e+02
2.354659e+03,8.690892e+02
2.357552e+03,8.741160e+02
2.360445e+03,8.678129e+02
2.363338e+03,8.685841e+02
2.366230e+03,8.616688e+02
2.369123e+03,8.628221e+02
2.372016e+03,8.527400e+02
2.374908e+03,8.540388e+02
2.377801e+03,8.505909e+02
2.380694e+03,8.372586e+02
2.383587e+03,8.440607e+02
2.386479e+03,8.409479e+02
2.389372e+03,8.411768e+02
2.392265e+03,8.324089e+02
2.395157e+03,8.372331e+02
2.398050e+03,8.361157e+02
2.400943e+03,8.195547e+02
2.403835e+03,8.252100e+02
2.406728e+03,8.357971e+02
2.409621e+03,8.058192e+02
2.412513e+03,8.245010e+02
2.415406e+03,8.159465e+02
2.418299e+03,7.932975e+02
2.421192e+03,8.028672e+02
2.424084e+03,8.131780e+02
2.426977e+03,8.119463e+02
2.429870e+03,7.983777e+02
2.432762e+03,7.993933e+02
2.435655e+03,7.936986e+02
2.438548e+03,7.876568e+02
2.441441e+03,7.838557e+02
2.444333e+03,7.784531e+02
2.447226e+03,7.728069e+02
2.450119e+03,7.784893e+02
2.453011e+03,7.869477e+02
2.455904e+03,7.763917e+02
2.458797e+03,7.578482e+02
2.461689e+03,7.860441e+02
2.464582e+03,7.591132e+02
2.467475e+03,7.695779e+02
2.470367e+03,7.583107e+02
2.473260e+03,7.616921e+02
2.476153e+03,7.403260e+02
2.479046e+03,7.603552e+02
2.481938e+03,7.625957e+02
2.484831e+03,7.627092e+02
2.487724e+03,7.431845e+02
2.490616e+03,7.529870e+02
2.493509e+03,7.373047e+02
2.496402e+03,7.480673e+02
2.499295e+03,7.431402e+02
2.502187e+03,7.372117e+02
2.505080e+03,7.337197e+02
2.507973e+03,7.227169e+02
2.510865e+03,7.320849e+02
2.513758e+03,7.278842e+02
2.516651e+03,7.270212e+02
2.519543e+03,7.138793e+02
2.522436e+03,7.376599e+02
2.525329e+03,7.218811e+02
2.528221e+03,7.242145e+02
2.531114e+03,7.145869e+02
2.534007e+03,7.169039e+02
2.536900e+03,7.035814e+02
2.539792e+03,6.962352e+02
2.542685e+03,7.081113e+02
2.545578e+03,7.040892e+02
2.548470e+03,7.165889e+02
2.551363e+03,7.228490e+02
2.554256e+03,7.066228e+02
2.557149e+03,7.110359e+02
2.560041e+03,7.062335e+02
2.562934e+03,6.887006e+02
2.565827e+03,7.157626e+02
2.568719e+03,6.944062e+02
2.571612e+03,6.918287e+02
2.574505e+03,6.823113e+02
2.577397e+03,6.833898e+02
2.580290e+03,6.754591e+02
2.583183e+03,6.742459e+02
2.586075e+03,6.709753e+02
2.588968e+03,6.899841e+02
2.591861e+03,6.736581e+02
2.594754e+03,6.798928e+02
2.597646e+03,6.528181e+02
2.600539e+03,6.599276e+02
2.603432e+03,6.691713e+02
2.606324e+03,6.535334e+02
2.609217e+03,6.594539e+02
2.612110e+03,6.603464e+02
2.615003e+03,6.581854e+02
2.617895e+03,6.508354e+02
2.620788e+03,6.592278e+02
2.623681e+03,6.449305e+02
2.626573e+03,6.345504e+02
2.629466e+03,6.492321e+02
2.632359e+03,6.496733e+02
2.635251e+03,6.338231e+02
2.638144e+03,6.568790e+02
2.641037e+03,6.337780e+02
2.643929e+03,6.434603e+02
2.646822e+03,6.293583e+02
2.649715e+03,6.561415e+02
2.652608e+03,6.408905e+02
2.655500e+03,6.179406e+02
2.658393e+03,6.353964e+02
2.661286e+03,6.283007e+02
2.664178e+03,6.364968e+02
2.667071e+03,6.235710e+02
2.669964e+03,6.295191e+02
2.672857e+03,6.321867e+02
2.675749e+03,6.182294e+02
2.678642e+03,6.265175e+02
2.681535e+03,6.208652e+02
2.684427e+03,6.118362e+02
2.687320e+03,6.086683e+02
2.690213e+03,6.238294e+02
2.693105e+03,6.122055e+02
2.695998e+03,5.850284e+02
2.698891e+03,6.148598e+02
2.701783e+03,6.159727e+02
2.704676e+03,6.058860e+02
2.707569e+03,5.989177e+02
2.710462e+03,6.121739e+02
2.713354e+03,5.921052e+02
2.716247e+03,5.909586e+02
2.719140e+03,5.993392e+02
2.722032e+03,5.995956e+02
2.724925e+03,6.112082e+02
2.727818e+03,6.067118e+02
2.730711e+03,6.065178e+02
2.733603e+03,5.859052e+02
2.736496e+03,5.731558e+02
2.739389e+03,5.874071e+02
2.742281e+03,5.845833e+02
2.745174e+03,5.792937e+02
2.748067e+03,5.919465e+02
2.750959e+03,5.856872e+02
2.753852e+03,5.754591e+02
2.756745e+03,5.938070e+02
2.759637e+03,5.710051e+02
2.762530e+03,5.740455e+02
2.765423e+03,5.775195e+02
2.768316e+03,5.578803e+02
2.771208e+03,5.640435e+02
2.774101e+03,5.694535e+02
2.776994e+03,5.655214e+02
2.779886e+03,5.784011e+02
2.782779e+03,5.809807e+02
2.785672e+03,5.646971e+02
2.788565e+03,5.681339e+02
2.791457e+03,5.710582e+02
2.794350e+03,5.499498e+02
2.797243e+03,5.836314e+02
2.800135e+03,5.735313e+02
2.803028e+03,5.574788e+02
2.805921e+03,5.569738e+02
2.808813e+03,5.691035e+02
2.811706e+03,5.645945e+02
2.814599e+03,5.532091e+02
2.817491e+03,5.548177e+02
2.820384e+03,5.547593e+02
2.823277e+03,5.619099e+02
2.826170e+03,5.564366e+02
2.829062e+03,5.652205e+02
2.831955e+03,5.418986e+02
2.834848e+03,5.798764e+02
2.837740e+03,5.656537e+02
2.840633e+03,5.432456e+02
2.843526e+03,5.636489e+02
2.846419e+03,5.554971e+02
2.849311e+03,5.442949e+02
2.852204e+03,5.361519e+02
2.855097e+03,5.529867e+02
2.857990e+03,5.654858e+02
2.860882e+03,5.366108e+02
2.863775e+03,5.487240e+02
2.866667e+03,5.649993e+02
2.869560e+03,5.616982e+02
2.872453e+03,5.604630e+02
2.875345e+03,5.527926e+02
2.878238e+03,5.594717e+02
2.881131e+03,5.580806e+02
2.884024e+03,5.739317e+02
2.886916e+03,5.735394e+02
2.889809e+03,5.716222e+02
2.892702e+03,5.735762e+02
2.895594e+03,5.564103e+02
2.898487e+03,5.977881e+02
2.901380e+03,5.695998e+02
2.904273e+03,5.674381e+02
2.907165e+03,5.678461e+02
2.910058e+03,5.705770e+02
2.912951e+03,5.626833e+02
2.915844e+03,5.473867e+02
2.918736e+03,5.350435e+02
2.921629e+03,5.480197e+02
2.924521e+03,5.323167e+02
2.927414e+03,5.496728e+02
2.930307e+03,5.497043e+02
2.933199e+03,5.264775e+02
2.936092e+03,5.315856e+02
2.938985e+03,5.230563e+02
2.941878e+03,5.316664e+02
2.944770e+03,5.419203e+02
2.947663e+03,5.348685e+02
2.950556e+03,5.376925e+02
2.953448e+03,5.308899e+02
2.956341e+03,5.917905e+02
2.959234e+03,5.537817e+02
2.962127e+03,5.227488e+02
2.965019e+03,5.074372e+02
2.967912e+03,5.210865e+02
2.970805e+03,5.008466e+02
2.973698e+03,5.197052e+02
2.976590e+03,5.113683e+02
2.979483e+03,5.121698e+02
2.982375e+03,5.065393e+02
2.985268e+03,5.128463e+02
2.988161e+03,4.965403e+02
2.991053e+03,5.158811e+02
2.993946e+03,4.983220e+02
2.996839e+03,5.264760e+02
2.999732e+03,4.733929e+02
3.002624e+03,4.752086e+02
3.005517e+03,4.927409e+02
3.008410e+03,4.942021e+02
3.011302e+03,4.893410e+02
3.014195e+03,4.980948e+02
3.017088e+03,4.999253e+02
3.019981e+03,5.119637e+02
3.022873e+03,4.641017e+02
3.025766e+03,4.989184e+02
3.028659e+03,5.027681e+02
3.031552e+03,4.803622e+02
3.034444e+03,4.927036e+02
3.037337e+03,4.959605e+02
3.040229e+03,4.970862e+02
3.043122e+03,5.152097e+02
3.046015e+03,4.894602e+02
3.048907e+03,4.568630e+02
3.051800e+03,4.805976e+02
3.054693e+03,4.715632e+02
3.057586e+03,5.118100e+02
3.060478e+03,4.955082e+02
3.063371e+03,4.958020e+02
3.066264e+03,4.756251e+02
3.069156e+03,4.905239e+02
3.072049e+03,4.845675e+02
3.074942e+03,4.809890e+02
3.077835e+03,4.887538e+02
3.080727e+03,4.907144e+02
3.083620e+03,4.718894e+02
3.086513e+03,5.332098e+02
3.089406e+03,5.012588e+02
3.092298e+03,4.874986e+02
3.095191e+03,4.986012e+02
3.098083e+03,4.796525e+02
3.100976e+03,5.016667e+02
3.103869e+03,4.650380e+02
3.106761e+03,4.768581e+02
3.109654e+03,4.849370e+02
3.112547e+03,4.915490e+02
3.115440e+03,4.851379e+02
3.118332e+03,5.035121e+02
3.121225e+03,4.922473e+02
3.124118e+03,4.877717e+02
3.127010e+03,4.972831e+02
3.129903e+03,4.987921e+02
3.132796e+03,4.763203e+02
3.135689e+03,5.059994e+02
3.138581e+03,5.010879e+02
3.141474e+03,5.123427e+02
3.144367e+03,4.798067e+02
3.147260e+03,4.950739e+02
3.150152e+03,5.056884e+02
3.153045e+03,4.935194e+02
3.155938e+03,4.914207e+02
3.158830e+03,5.040532e+02
3.161723e+03,4.871314e+02
3.164615e+03,4.964511e+02
3.167508e+03,5.109019e+02
3.170401e+03,4.617197e+02
3.173294e+03,4.790715e+02
3.176186e+03,4.913437e+02
3.179079e+03,5.089254e+02
3.181972e+03,4.793195e+02
3.184865e+03,4.809439e+02
3.187757e+03,4.942616e+02
3.190650e+03,5.305414e+02
3.193543e+03,4.738289e+02
3.196435e+03,5.014918e+02
3.199328e+03,5.452263e+02
3.200292e+03,5.409940e+02