File: RAMAN_data/06022023_r1/black fibre9.CSV
1.995979e+02,2.655956e+03
2.024906e+02,2.672000e+03
2.053833e+02,2.685881e+03
2.082760e+02,2.683951e+03
2.111687e+02,2.687340e+03
2.140614e+02,2.683869e+03
2.169541e+02,2.682231e+03
2.198468e+02,2.696376e+03
2.227395e+02,2.712150e+03
2.256322e+02,2.700508e+03
2.285249e+02,2.677533e+03
2.314176e+02,2.695315e+03
2.343103e+02,2.706337e+03
2.372030e+02,2.707216e+03
2.400957e+02,2.699506e+03
2.429884e+02,2.698265e+03
2.458811e+02,2.697060e+03
2.487738e+02,2.700651e+03
2.516665e+02,2.720482e+03
2.545592e+02,2.737731e+03
2.574519e+02,2.715753e+03
2.603446e+02,2.725562e+03
2.632373e+02,2.739965e+03
2.661300e+02,2.715736e+03
2.690227e+02,2.736194e+03
2.719154e+02,2.744782e+03
2.748081e+02,2.731959e+03
2.777008e+02,2.737815e+03
2.805935e+02,2.746283e+03
2.834862e+02,2.760927e+03
2.863789e+02,2.765133e+03
2.892716e+02,2.742618e+03
2.921643e+02,2.739018e+03
2.950570e+02,2.733574e+03
2.979497e+02,2.748480e+03
3.008424e+02,2.741634e+03
3.037351e+02,2.741127e+03
3.066278e+02,2.737357e+03
3.095205e+02,2.747443e+03
3.124132e+02,2.744068e+03
3.153059e+02,2.749613e+03
3.181986e+02,2.756495e+03
3.210913e+02,2.753671e+03
3.239840e+02,2.739971e+03
3.268767e+02,2.763209e+03
3.297694e+02,2.767058e+03
3.326621e+02,2.749879e+03
3.355548e+02,2.754571e+03
3.384475e+02,2.759699e+03
3.413402e+02,2.759031e+03
3.442329e+02,2.765353e+03
3.471256e+02,2.753282e+03
3.500183e+02,2.743092e+03
3.529110e+02,2.750790e+03
3.558037e+02,2.755672e+03
3.586964e+02,2.753055e+03
3.615891e+02,2.758115e+03
3.644818e+02,2.757315e+03
3.673745e+02,2.740000e+03
3.702672e+02,2.768368e+03
3.731599e+02,2.779397e+03
3.760526e+02,2.776148e+03
3.789453e+02,2.765839e+03
3.818380e+02,2.763102e+03
3.847307e+02,2.754207e+03
3.876234e+02,2.742027e+03
3.905161e+02,2.748816e+03
3.934088e+02,2.745776e+03
3.963015e+02,2.747039e+03
3.991942e+02,2.738928e+03
4.020869e+02,2.724227e+03
4.049796e+02,2.731314e+03
4.078723e+02,2.738129e+03
4.107650e+02,2.716517e+03
4.136577e+02,2.724939e+03
4.165504e+02,2.718171e+03
4.194431e+02,2.727886e+03
4.223358e+02,2.722881e+03
4.252285e+02,2.725982e+03
4.281212e+02,2.734427e+03
4.310139e+02,2.715672e+03
4.339066e+02,2.722320e+03
4.367993e+02,2.733521e+03
4.396920e+02,2.714237e+03
4.425847e+02,2.721146e+03
4.454774e+02,2.718964e+03
4.483701e+02,2.715487e+03
4.512628e+02,2.724390e+03
4.541555e+02,2.713202e+03
4.570482e+02,2.713768e+03
4.599409e+02,2.690846e+03
4.628336e+02,2.680768e+03
4.657263e+02,2.685868e+03
4.686190e+02,2.694357e+03
4.715117e+02,2.682333e+03
4.744044e+02,2.683375e+03
4.772971e+02,2.677142e+03
4.801898e+02,2.673303e+03
4.830825e+02,2.693636e+03
4.859752e+02,2.699421e+03
4.888679e+02,2.688532e+03
4.917606e+02,2.680872e+03
4.946533e+02,2.679748e+03
4.975460e+02,2.674739e+03
5.004387e+02,2.677061e+03
5.033314e+02,2.662269e+03
5.062241e+02,2.659248e+03
5.091168e+02,2.650777e+03
5.120095e+02,2.644066e+03
5.149022e+02,2.653120e+03
5.177949e+02,2.646734e+03
5.206876e+02,2.651306e+03
5.235803e+02,2.644978e+03
5.264730e+02,2.633781e+03
5.293657e+02,2.628845e+03
5.322584e+02,2.619152e+03
5.351511e+02,2.616258e+03
5.380438e+02,2.615041e+03
5.409365e+02,2.620418e+03
5.438292e+02,2.622888e+03
5.467219e+02,2.606772e+03
5.496146e+02,2.598604e+03
5.525073e+02,2.585782e+03
5.554000e+02,2.593845e+03
5.582927e+02,2.600903e+03
5.611854e+02,2.603245e+03
5.640781e+02,2.604971e+03
5.669708e+02,2.576183e+03
5.698635e+02,2.563087e+03
5.727562e+02,2.586806e+03
5.756489e+02,2.576852e+03
5.785416e+02,2.564836e+03
5.814343e+02,2.571817e+03
5.843270e+02,2.571841e+03
5.872197e+02,2.555274e+03
5.901124e+02,2.555686e+03
5.930051e+02,2.556122e+03
5.958978e+02,2.548615e+03
5.987905e+02,2.561146e+03
6.016832e+02,2.546076e+03
6.045759e+02,2.544867e+03
6.074686e+02,2.537751e+03
6.103613e+02,2.541760e+03
6.132540e+02,2.539347e+03
6.161467e+02,2.527902e+03
6.190394e+02,2.523660e+03
6.219321e+02,2.511992e+03
6.248248e+02,2.517071e+03
6.277175e+02,2.520976e+03
6.306102e+02,2.502539e+03
6.335029e+02,2.511480e+03
6.363956e+02,2.501501e+03
6.392883e+02,2.483029e+03
6.421810e+02,2.484380e+03
6.450737e+02,2.472054e+03
6.479664e+02,2.484578e+03
6.508591e+02,2.486848e+03
6.537518e+02,2.490503e+03
6.566445e+02,2.487336e+03
6.595372e+02,2.469810e+03
6.624299e+02,2.455366e+03
6.653226e+02,2.461474e+03
6.682153e+02,2.447032e+03
6.711080e+02,2.462226e+03
6.740007e+02,2.455696e+03
6.768934e+02,2.428058e+03
6.797861e+02,2.428214e+03
6.826788e+02,2.430529e+03
6.855715e+02,2.438650e+03
6.884642e+02,2.429999e+03
6.913569e+02,2.416099e+03
6.942496e+02,2.429727e+03
6.971423e+02,2.419191e+03
7.000350e+02,2.407054e+03
7.029277e+02,2.396092e+03
7.058204e+02,2.417542e+03
7.087131e+02,2.401652e+03
7.116058e+02,2.399182e+03
7.144985e+02,2.399511e+03
7.173912e+02,2.388614e+03
7.202839e+02,2.384050e+03
7.231766e+02,2.382389e+03
7.260693e+02,2.386506e+03
7.289620e+02,2.372269e+03
7.318547e+02,2.370033e+03
7.347474e+02,2.359831e+03
7.376401e+02,2.352898e+03
7.405328e+02,2.361562e+03
7.434255e+02,2.362112e+03
7.463182e+02,2.355918e+03
7.492109e+02,2.335842e+03
7.521036e+02,2.329640e+03
7.549963e+02,2.319665e+03
7.578890e+02,2.319137e+03
7.607817e+02,2.329924e+03
7.636744e+02,2.316487e+03
7.665671e+02,2.302671e+03
7.694598e+02,2.311642e+03
7.723525e+02,2.301441e+03
7.752452e+02,2.304409e+03
7.781379e+02,2.308727e+03
7.810306e+02,2.299284e+03
7.839233e+02,2.290019e+03
7.868160e+02,2.286918e+03
7.897087e+02,2.292055e+03
7.926014e+02,2.286072e+03
7.954941e+02,2.275289e+03
7.983868e+02,2.264026e+03
8.012795e+02,2.265511e+03
8.041722e+02,2.263806e+03
8.070649e+02,2.269998e+03
8.099576e+02,2.256674e+03
8.128503e+02,2.254270e+03
8.157430e+02,2.245931e+03
8.186357e+02,2.241191e+03
8.215284e+02,2.234845e+03
8.244211e+02,2.217109e+03
8.273138e+02,2.225166e+03
8.302065e+02,2.227663e+03
8.330992e+02,2.212993e+03
8.359919e+02,2.216063e+03
8.388846e+02,2.224702e+03
8.417773e+02,2.225453e+03
8.446700e+02,2.197713e+03
8.475627e+02,2.198563e+03
8.504554e+02,2.194280e+03
8.533481e+02,2.197327e+03
8.562408e+02,2.193110e+03
8.591335e+02,2.197759e+03
8.620262e+02,2.177440e+03
8.649189e+02,2.160678e+03
8.678116e+02,2.174479e+03
8.707043e+02,2.170329e+03
8.735970e+02,2.168474e+03
8.764897e+02,2.169379e+03
8.793824e+02,2.161096e+03
8.822751e+02,2.166749e+03
8.851678e+02,2.165477e+03
8.880605e+02,2.165489e+03
8.909532e+02,2.140987e+03
8.938459e+02,2.152882e+03
8.967386e+02,2.132761e+03
8.996313e+02,2.133777e+03
9.025240e+02,2.135701e+03
9.054167e+02,2.129433e+03
9.083094e+02,2.110605e+03
9.112021e+02,2.124691e+03
9.140948e+02,2.106420e+03
9.169875e+02,2.113028e+03
9.198802e+02,2.106734e+03
9.227729e+02,2.100678e+03
9.256656e+02,2.083944e+03
9.285583e+02,2.079252e+03
9.314510e+02,2.079900e+03
9.343438e+02,2.095403e+03
9.372365e+02,2.077664e+03
9.401292e+02,2.061633e+03
9.430219e+02,2.066810e+03
9.459146e+02,2.060712e+03
9.488073e+02,2.070360e+03
9.517000e+02,2.054947e+03
9.545927e+02,2.055231e+03
9.574854e+02,2.045615e+03
9.603781e+02,2.037731e+03
9.632708e+02,2.054411e+03
9.661635e+02,2.018982e+03
9.690562e+02,2.030656e+03
9.719489e+02,2.011475e+03
9.748416e+02,2.025720e+03
9.777343e+02,2.029602e+03
9.806270e+02,2.017312e+03
9.835197e+02,2.007748e+03
9.864124e+02,1.999061e+03
9.893051e+02,1.993359e+03
9.921978e+02,2.004448e+03
9.950905e+02,2.002659e+03
9.979832e+02,1.993414e+03
1.000876e+03,1.981119e+03
1.003769e+03,1.977381e+03
1.006661e+03,1.982246e+03
1.009554e+03,1.981260e+03
1.012447e+03,1.977623e+03
1.015339e+03,1.961299e+03
1.018232e+03,1.956875e+03
1.021125e+03,1.956581e+03
1.024017e+03,1.963586e+03
1.026910e+03,1.946343e+03
1.029803e+03,1.956967e+03
1.032696e+03,1.955623e+03
1.035588e+03,1.937169e+03
1.038481e+03,1.949774e+03
1.041374e+03,1.932695e+03
1.044266e+03,1.928554e+03
1.047159e+03,1.942639e+03
1.050052e+03,1.928789e+03
1.052944e+03,1.936303e+03
1.055837e+03,1.930874e+03
1.058730e+03,1.936071e+03
1.061623e+03,1.921220e+03
1.064515e+03,1.917632e+03
1.067408e+03,1.915686e+03
1.070301e+03,1.907249e+03
1.073193e+03,1.906962e+03
1.076086e+03,1.917913e+03
1.078979e+03,1.914229e+03
1.081871e+03,1.915707e+03
1.084764e+03,1.928710e+03
1.087657e+03,1.925054e+03
1.090550e+03,1.937197e+03
1.093442e+03,1.919188e+03
1.096335e+03,1.926651e+03
1.099228e+03,1.909643e+03
1.102120e+03,1.896010e+03
1.105013e+03,1.899096e+03
1.107906e+03,1.882902e+03
1.110798e+03,1.891223e+03
1.113691e+03,1.901296e+03
1.116584e+03,1.901585e+03
1.119477e+03,1.908494e+03
1.122369e+03,1.890376e+03
1.125262e+03,1.869851e+03
1.128155e+03,1.880923e+03
1.131047e+03,1.873674e+03
1.133940e+03,1.861793e+03
1.136833e+03,1.862647e+03
1.139725e+03,1.866331e+03
1.142618e+03,1.858455e+03
1.145511e+03,1.857299e+03
1.148404e+03,1.860529e+03
1.151296e+03,1.856535e+03
1.154189e+03,1.853062e+03
1.157082e+03,1.840116e+03
1.159974e+03,1.838699e+03
1.162867e+03,1.823602e+03
1.165760e+03,1.821222e+03
1.168652e+03,1.820071e+03
1.171545e+03,1.823912e+03
1.174438e+03,1.803361e+03
1.177331e+03,1.818174e+03
1.180223e+03,1.821238e+03
1.183116e+03,1.806624e+03
1.186009e+03,1.794828e+03
1.188901e+03,1.794635e+03
1.191794e+03,1.785946e+03
1.194687e+03,1.784508e+03
1.197579e+03,1.789051e+03
1.200472e+03,1.794898e+03
1.203365e+03,1.776689e+03
1.206258e+03,1.776752e+03
1.209150e+03,1.789239e+03
1.212043e+03,1.770110e+03
1.214936e+03,1.763975e+03
1.217828e+03,1.769653e+03
1.220721e+03,1.765374e+03
1.223614e+03,1.763182e+03
1.226506e+03,1.763373e+03
1.229399e+03,1.754999e+03
1.232292e+03,1.749484e+03
1.235185e+03,1.747560e+03
1.238077e+03,1.749121e+03
1.240970e+03,1.758484e+03
1.243863e+03,1.742281e+03
1.246755e+03,1.731537e+03
1.249648e+03,1.737410e+03
1.252541e+03,1.727715e+03
1.255433e+03,1.726578e+03
1.258326e+03,1.730414e+03
1.261219e+03,1.724829e+03
1.264112e+03,1.715691e+03
1.267004e+03,1.710294e+03
1.269897e+03,1.725246e+03
1.272790e+03,1.712843e+03
1.275682e+03,1.737807e+03
1.278575e+03,1.725921e+03
1.281468e+03,1.721158e+03
1.284360e+03,1.727927e+03
1.287253e+03,1.723447e+03
1.290146e+03,1.722252e+03
1.293039e+03,1.711628e+03
1.295931e+03,1.693148e+03
1.298824e+03,1.691541e+03
1.301717e+03,1.705337e+03
1.304609e+03,1.691072e+03
1.307502e+03,1.688386e+03
1.310395e+03,1.691319e+03
1.313287e+03,1.680927e+03
1.316180e+03,1.682004e+03
1.319073e+03,1.686475e+03
1.321966e+03,1.689950e+03
1.324858e+03,1.685666e+03
1.327751e+03,1.679419e+03
1.330644e+03,1.681115e+03
1.333536e+03,1.687800e+03
1.336429e+03,1.698026e+03
1.339322e+03,1.679133e+03
1.342214e+03,1.671408e+03
1.345107e+03,1.671841e+03
1.348000e+03,1.664708e+03
1.350893e+03,1.660597e+03
1.353785e+03,1.657381e+03
1.356678e+03,1.663552e+03
1.359571e+03,1.664656e+03
1.362463e+03,1.657796e+03
1.365356e+03,1.659047e+03
1.368249e+03,1.659252e+03
1.371141e+03,1.656537e+03
1.374034e+03,1.659274e+03
1.376927e+03,1.635256e+03
1.379820e+03,1.624795e+03
1.382712e+03,1.624698e+03
1.385605e+03,1.638445e+03
1.388498e+03,1.630643e+03
1.391390e+03,1.607344e+03
1.394283e+03,1.606868e+03
1.397176e+03,1.614725e+03
1.400068e+03,1.614367e+03
1.402961e+03,1.599600e+03
1.405854e+03,1.608638e+03
1.408747e+03,1.602135e+03
1.411639e+03,1.608970e+03
1.414532e+03,1.606721e+03
1.417425e+03,1.601926e+03
1.420317e+03,1.601552e+03
1.423210e+03,1.587014e+03
1.426103e+03,1.587337e+03
1.428995e+03,1.573382e+03
1.431888e+03,1.572627e+03
1.434781e+03,1.580423e+03
1.437674e+03,1.570515e+03
1.440566e+03,1.559783e+03
1.443459e+03,1.564890e+03
1.446352e+03,1.553553e+03
1.449244e+03,1.561193e+03
1.452137e+03,1.547596e+03
1.455030e+03,1.553699e+03
1.457922e+03,1.551047e+03
1.460815e+03,1.542863e+03
1.463708e+03,1.546590e+03
1.466601e+03,1.541452e+03
1.469493e+03,1.541189e+03
1.472386e+03,1.540807e+03
1.475279e+03,1.550755e+03
1.478171e+03,1.533464e+03
1.481064e+03,1.537362e+03
1.483957e+03,1.523164e+03
1.486849e+03,1.517396e+03
1.489742e+03,1.525097e+03
1.492635e+03,1.522496e+03
1.495528e+03,1.521644e+03
1.498420e+03,1.518505e+03
1.501313e+03,1.516822e+03
1.504206e+03,1.511923e+03
1.507098e+03,1.503813e+03
1.509991e+03,1.493232e+03
1.512884e+03,1.484250e+03
1.515776e+03,1.494198e+03
1.518669e+03,1.493486e+03
1.521562e+03,1.495423e+03
1.524455e+03,1.492641e+03
1.527347e+03,1.484248e+03
1.530240e+03,1.476670e+03
1.533133e+03,1.481201e+03
1.536025e+03,1.483806e+03
1.538918e+03,1.478065e+03
1.541811e+03,1.465039e+03
1.544703e+03,1.474169e+03
1.547596e+03,1.466236e+03
1.550489e+03,1.480152e+03
1.553382e+03,1.469054e+03
1.556274e+03,1.480885e+03
1.559167e+03,1.465047e+03
1.562060e+03,1.467337e+03
1.564952e+03,1.465364e+03
1.567845e+03,1.467298e+03
1.570738e+03,1.471424e+03
1.573630e+03,1.451824e+03
1.576523e+03,1.453080e+03
1.579416e+03,1.471789e+03
1.582309e+03,1.456640e+03
1.585201e+03,1.452801e+03
1.588094e+03,1.453331e+03
1.590987e+03,1.456490e+03
1.593879e+03,1.450546e+03
1.596772e+03,1.438552e+03
1.599665e+03,1.435284e+03
1.602557e+03,1.422802e+03
1.605450e+03,1.424597e+03
1.608343e+03,1.419373e+03
1.611236e+03,1.414311e+03
1.614128e+03,1.429900e+03
1.617021e+03,1.411697e+03
1.619914e+03,1.414033e+03
1.622806e+03,1.409220e+03
1.625699e+03,1.412588e+03
1.628592e+03,1.391506e+03
1.631484e+03,1.409348e+03
1.634377e+03,1.408953e+03
1.637270e+03,1.397500e+03
1.640163e+03,1.380434e+03
1.643055e+03,1.373459e+03
1.645948e+03,1.361802e+03
1.648841e+03,1.381556e+03
1.651733e+03,1.368000e+03
1.654626e+03,1.382109e+03
1.657519e+03,1.364210e+03
1.660411e+03,1.365007e+03
1.663304e+03,1.375807e+03
1.666197e+03,1.351466e+03
1.669090e+03,1.359204e+03
1.671982e+03,1.344074e+03
1.674875e+03,1.357320e+03
1.677768e+03,1.356027e+03
1.680660e+03,1.349000e+03
1.683553e+03,1.354717e+03
1.686446e+03,1.341338e+03
1.689339e+03,1.335327e+03
1.692231e+03,1.336905e+03
1.695124e+03,1.328279e+03
1.698017e+03,1.329643e+03
1.700909e+03,1.341609e+03
1.703802e+03,1.335477e+03
1.706695e+03,1.320444e+03
1.709587e+03,1.311133e+03
1.712480e+03,1.312767e+03
1.715373e+03,1.309418e+03
1.718266e+03,1.325627e+03
1.721158e+03,1.304696e+03
1.724051e+03,1.297508e+03
1.726944e+03,1.299595e+03
1.729836e+03,1.299260e+03
1.732729e+03,1.292038e+03
1.735622e+03,1.289022e+03
1.738514e+03,1.289033e+03
1.741407e+03,1.297328e+03
1.744300e+03,1.281708e+03
1.747193e+03,1.277378e+03
1.750085e+03,1.285744e+03
1.752978e+03,1.285687e+03
1.755871e+03,1.261259e+03
1.758763e+03,1.274825e+03
1.761656e+03,1.267233e+03
1.764549e+03,1.268898e+03
1.767441e+03,1.264124e+03
1.770334e+03,1.276673e+03
1.773227e+03,1.261584e+03
1.776120e+03,1.264881e+03
1.779012e+03,1.243875e+03
1.781905e+03,1.249880e+03
1.784798e+03,1.249167e+03
1.787690e+03,1.250441e+03
1.790583e+03,1.243259e+03
1.793476e+03,1.237724e+03
1.796368e+03,1.231584e+03
1.799261e+03,1.231422e+03
1.802154e+03,1.218709e+03
1.805047e+03,1.234902e+03
1.807939e+03,1.214193e+03
1.810832e+03,1.223525e+03
1.813725e+03,1.204458e+03
1.816617e+03,1.224437e+03
1.819510e+03,1.212686e+03
1.822403e+03,1.199594e+03
1.825295e+03,1.191836e+03
1.828188e+03,1.201807e+03
1.831081e+03,1.211315e+03
1.833974e+03,1.184123e+03
1.836866e+03,1.198461e+03
1.839759e+03,1.190696e+03
1.842652e+03,1.191786e+03
1.845544e+03,1.168911e+03
1.848437e+03,1.171384e+03
1.851330e+03,1.176161e+03
1.854222e+03,1.185542e+03
1.857115e+03,1.175895e+03
1.860008e+03,1.172202e+03
1.862901e+03,1.173849e+03
1.865793e+03,1.162375e+03
1.868686e+03,1.150006e+03
1.871579e+03,1.155970e+03
1.874471e+03,1.154296e+03
1.877364e+03,1.135716e+03
1.880257e+03,1.147625e+03
1.883149e+03,1.130870e+03
1.886042e+03,1.141482e+03
1.888935e+03,1.122579e+03
1.891828e+03,1.140529e+03
1.894720e+03,1.135012e+03
1.897613e+03,1.122171e+03
1.900506e+03,1.117366e+03
1.903398e+03,1.113415e+03
1.906291e+03,1.125226e+03
1.909184e+03,1.115621e+03
1.912076e+03,1.121208e+03
1.914969e+03,1.107580e+03
1.917862e+03,1.106540e+03
1.920755e+03,1.103753e+03
1.923647e+03,1.099899e+03
1.926540e+03,1.099745e+03
1.929433e+03,1.099068e+03
1.932325e+03,1.085951e+03
1.935218e+03,1.079122e+03
1.938111e+03,1.087621e+03
1.941003e+03,1.089427e+03
1.943896e+03,1.074728e+03
1.946789e+03,1.075619e+03
1.949682e+03,1.071947e+03
1.952574e+03,1.069206e+03
1.955467e+03,1.064343e+03
1.958360e+03,1.071954e+03
1.961252e+03,1.063840e+03
1.964145e+03,1.063477e+03
1.967038e+03,1.062049e+03
1.969930e+03,1.052992e+03
1.972823e+03,1.030565e+03
1.975716e+03,1.044879e+03
1.978609e+03,1.043542e+03
1.981501e+03,1.043252e+03
1.984394e+03,1.030849e+03
1.987287e+03,1.042685e+03
1.990179e+03,1.036326e+03
1.993072e+03,1.038562e+03
1.995965e+03,1.020451e+03
1.998857e+03,1.021371e+03
2.001750e+03,1.025833e+03
2.004643e+03,1.027044e+03
2.007536e+03,1.006832e+03
2.010428e+03,1.018458e+03
2.013321e+03,1.005704e+03
2.016214e+03,9.957355e+02
2.019106e+03,1.005771e+03
2.021999e+03,9.975036e+02
2.024892e+03,1.002168e+03
2.027784e+03,9.927875e+02
2.030677e+03,9.900375e+02
2.033570e+03,9.844758e+02
2.036463e+03,9.828387e+02
2.039355e+03,9.627091e+02
2.042248e+03,9.823575e+02
2.045141e+03,9.521261e+02
2.048033e+03,9.770395e+02
2.050926e+03,9.894501e+02
2.053819e+03,9.606797e+02
2.056711e+03,9.591211e+02
2.059604e+03,9.679944e+02
2.062497e+03,9.600499e+02
2.065390e+03,9.572941e+02
2.068282e+03,9.510784e+02
2.071175e+03,9.354140e+02
2.074068e+03,9.388939e+02
2.076960e+03,9.433779e+02
2.079853e+03,9.416217e+02
2.082746e+03,9.406872e+02
2.085638e+03,9.170644e+02
2.088531e+03,9.314110e+02
2.091424e+03,9.279026e+02
2.094316e+03,9.304916e+02
2.097209e+03,9.242531e+02
2.100102e+03,9.300112e+02
2.102995e+03,9.182897e+02
2.105887e+03,9.120822e+02
2.108780e+03,9.156471e+02
2.111673e+03,8.997322e+02
2.114565e+03,8.957970e+02
2.117458e+03,8.920204e+02
2.120351e+03,8.938047e+02
2.123244e+03,8.961827e+02
2.126136e+03,8.938115e+02
2.129029e+03,8.765660e+02
2.131922e+03,8.989987e+02
2.134814e+03,8.900601e+02
2.137707e+03,8.801869e+02
2.140600e+03,8.812548e+02
2.143492e+03,8.780457e+02
2.146385e+03,8.760736e+02
2.149278e+03,8.661593e+02
2.152170e+03,8.663647e+02
2.155063e+03,8.672805e+02
2.157956e+03,8.652119e+02
2.160849e+03,8.461467e+02
2.163741e+03,8.621469e+02
2.166634e+03,8.540900e+02
2.169527e+03,8.633713e+02
2.172419e+03,8.425871e+02
2.175312e+03,8.396755e+02
2.178205e+03,8.321472e+02
2.181098e+03,8.432558e+02
2.183990e+03,8.386055e+02
2.186883e+03,8.254553e+02
2.189776e+03,8.425742e+02
2.192668e+03,8.264323e+02
2.195561e+03,8.179173e+02
2.198454e+03,8.236683e+02
2.201346e+03,8.215897e+02
2.204239e+03,8.250908e+02
2.207132e+03,8.355237e+02
2.210024e+03,7.956534e+02
2.212917e+03,7.943632e+02
2.215810e+03,8.106575e+02
2.218703e+03,8.016960e+02
2.221595e+03,7.892155e+02
2.224488e+03,7.885513e+02
2.227381e+03,7.892003e+02
2.230273e+03,8.096545e+02
2.233166e+03,7.931818e+02
2.236059e+03,7.891276e+02
2.238952e+03,7.768764e+02
2.241844e+03,7.820463e+02
2.244737e+03,7.769777e+02
2.247630e+03,7.845452e+02
2.250522e+03,7.770685e+02
2.253415e+03,7.813036e+02
2.256308e+03,7.681088e+02
2.259200e+03,7.724788e+02
2.262093e+03,7.732162e+02
2.264986e+03,7.471185e+02
2.267879e+03,7.586191e+02
2.270771e+03,7.588311e+02
2.273664e+03,7.508582e+02
2.276557e+03,7.557279e+02
2.279449e+03,7.557791e+02
2.282342e+03,7.351880e+02
2.285235e+03,7.435320e+02
2.288127e+03,7.309605e+02
2.291020e+03,7.318133e+02
2.293913e+03,7.263078e+02
2.296805e+03,7.367037e+02
2.299698e+03,7.299215e+02
2.302591e+03,7.296818e+02
2.305484e+03,7.201926e+02
2.308376e+03,7.162158e+02
2.311269e+03,7.135831e+02
2.314162e+03,7.240880e+02
2.317054e+03,7.299608e+02
2.319947e+03,7.285878e+02
2.322840e+03,7.114576e+02
2.325733e+03,7.145270e+02
2.328625e+03,7.110629e+02
2.331518e+03,6.984275e+02
2.334411e+03,7.037733e+02
2.337303e+03,6.921757e+02
2.340196e+03,6.948871e+02
2.343089e+03,7.026876e+02
2.345981e+03,6.927137e+02
2.348874e+03,7.010979e+02
2.351767e+03,6.863450e+02
2.354659e+03,6.901710e+02
2.357552e+03,6.808995e+02
2.360445e+03,6.821066e+02
2.363338e+03,6.819505e+02
2.366230e+03,6.770403e+02
2.369123e+03,6.743426e+02
2.372016e+03,6.717682e+02
2.374908e+03,6.718019e+02
2.377801e+03,6.746768e+02
2.380694e+03,6.520849e+02
2.383587e+03,6.569744e+02
2.386479e+03,6.498299e+02
2.389372e+03,6.610629e+02
2.392265e+03,6.667711e+02
2.395157e+03,6.630672e+02
2.398050e+03,6.468024e+02
2.400943e+03,6.500085e+02
2.403835e+03,6.564982e+02
2.406728e+03,6.582238e+02
2.409621e+03,6.493746e+02
2.412513e+03,6.427606e+02
2.415406e+03,6.469139e+02
2.418299e+03,6.411097e+02
2.421192e+03,6.441875e+02
2.424084e+03,6.376411e+02
2.426977e+03,6.412016e+02
2.429870e+03,6.335957e+02
2.432762e+03,6.278168e+02
2.435655e+03,6.237021e+02
2.438548e+03,6.179728e+02
2.441441e+03,6.190729e+02
2.444333e+03,6.233967e+02
2.447226e+03,6.187865e+02
2.450119e+03,6.194736e+02
2.453011e+03,6.163671e+02
2.455904e+03,6.054122e+02
2.458797e+03,6.217117e+02
2.461689e+03,6.065295e+02
2.464582e+03,6.124223e+02
2.467475e+03,6.126436e+02
2.470367e+03,5.965390e+02
2.473260e+03,6.065892e+02
2.476153e+03,5.956207e+02
2.479046e+03,6.055529e+02
2.481938e+03,5.949636e+02
2.484831e+03,5.917575e+02
2.487724e+03,5.942144e+02
2.490616e+03,5.800986e+02
2.493509e+03,5.950084e+02
2.496402e+03,6.000160e+02
2.499295e+03,5.837605e+02
2.502187e+03,5.901208e+02
2.505080e+03,5.827109e+02
2.507973e+03,5.769141e+02
2.510865e+03,5.801810e+02
2.513758e+03,5.826766e+02
2.516651e+03,5.764964e+02
2.519543e+03,5.769706e+02
2.522436e+03,5.729174e+02
2.525329e+03,5.601591e+02
2.528221e+03,5.647922e+02
2.531114e+03,5.688398e+02
2.534007e+03,5.670112e+02
2.536900e+03,5.752001e+02
2.539792e+03,5.580570e+02
2.542685e+03,5.702927e+02
2.545578e+03,5.595325e+02
2.548470e+03,5.634100e+02
2.551363e+03,5.684404e+02
2.554256e+03,5.696542e+02
2.557149e+03,5.582393e+02
2.560041e+03,5.561382e+02
2.562934e+03,5.617632e+02
2.565827e+03,5.692904e+02
2.568719e+03,5.598589e+02
2.571612e+03,5.580119e+02
2.574505e+03,5.638220e+02
2.577397e+03,5.505120e+02
2.580290e+03,5.470120e+02
2.583183e+03,5.355343e+02
2.586075e+03,5.421430e+02
2.588968e+03,5.428867e+02
2.591861e+03,5.420455e+02
2.594754e+03,5.382091e+02
2.597646e+03,5.262933e+02
2.600539e+03,5.323401e+02
2.603432e+03,5.457186e+02
2.606324e+03,5.299606e+02
2.609217e+03,5.204482e+02
2.612110e+03,5.289551e+02
2.615003e+03,5.238262e+02
2.617895e+03,5.424767e+02
2.620788e+03,5.243792e+02
2.623681e+03,5.327730e+02
2.626573e+03,5.147046e+02
2.629466e+03,5.123156e+02
2.632359e+03,5.035939e+02
2.635251e+03,5.307759e+02
2.638144e+03,5.099312e+02
2.641037e+03,5.084149e+02
2.643929e+03,5.066602e+02
2.646822e+03,5.018125e+02
2.649715e+03,4.986301e+02
2.652608e+03,5.026571e+02
2.655500e+03,5.011024e+02
2.658393e+03,5.044499e+02
2.661286e+03,4.901054e+02
2.664178e+03,5.071699e+02
2.667071e+03,4.952487e+02
2.669964e+03,5.055647e+02
2.672857e+03,5.045006e+02
2.675749e+03,4.966916e+02
2.678642e+03,5.003223e+02
2.681535e+03,5.033595e+02
2.684427e+03,4.960886e+02
2.687320e+03,4.945084e+02
2.690213e+03,4.865305e+02
2.693105e+03,4.912239e+02
2.695998e+03,5.001310e+02
2.698891e+03,4.957234e+02
2.701783e+03,4.996196e+02
2.704676e+03,4.775014e+02
2.707569e+03,4.786649e+02
2.710462e+03,4.847324e+02
2.713354e+03,4.817656e+02
2.716247e+03,4.859857e+02
2.719140e+03,4.903458e+02
2.722032e+03,4.908141e+02
2.724925e+03,4.863747e+02
2.727818e+03,4.779179e+02
2.730711e+03,4.712428e+02
2.733603e+03,4.687968e+02
2.736496e+03,4.675567e+02
2.739389e+03,4.679342e+02
2.742281e+03,4.787429e+02
2.745174e+03,4.668768e+02
2.748067e+03,4.543546e+02
2.750959e+03,4.709979e+02
2.753852e+03,4.732667e+02
2.756745e+03,4.651302e+02
2.759637e+03,4.527743e+02
2.762530e+03,4.511997e+02
2.765423e+03,4.686546e+02
2.768316e+03,4.557211e+02
2.771208e+03,4.659831e+02
2.774101e+03,4.841212e+02
2.776994e+03,4.641015e+02
2.779886e+03,4.531957e+02
2.782779e+03,4.588303e+02
2.785672e+03,4.565046e+02
2.788565e+03,4.512790e+02
2.791457e+03,4.704898e+02
2.794350e+03,4.590456e+02
2.797243e+03,4.549169e+02
2.800135e+03,4.658139e+02
2.803028e+03,4.609278e+02
2.805921e+03,4.545150e+02
2.808813e+03,4.582797e+02
2.811706e+03,4.574405e+02
2.814599e+03,4.522773e+02
2.817491e+03,4.610530e+02
2.820384e+03,4.493331e+02
2.823277e+03,4.537366e+02
2.826170e+03,4.339482e+02
2.829062e+03,4.477523e+02
2.831955e+03,4.207789e+02
2.834848e+03,4.457336e+02
2.837740e+03,4.545736e+02
2.840633e+03,4.467504e+02
2.843526e+03,4.517028e+02
2.846419e+03,4.495540e+02
2.849311e+03,4.522118e+02
2.852204e+03,4.384612e+02
2.855097e+03,4.515446e+02
2.857990e+03,4.378996e+02
2.860882e+03,4.680997e+02
2.863775e+03,4.552003e+02
2.866667e+03,4.409790e+02
2.869560e+03,4.602414e+02
2.872453e+03,4.488417e+02
2.875345e+03,4.696891e+02
2.878238e+03,4.578491e+02
2.881131e+03,4.799888e+02
2.884024e+03,4.568172e+02
2.886916e+03,4.617476e+02
2.889809e+03,4.634092e+02
2.892702e+03,4.749818e+02
2.895594e+03,4.743531e+02
2.898487e+03,4.644707e+02
2.901380e+03,4.612139e+02
2.904273e+03,4.784031e+02
2.907165e+03,4.632254e+02
2.910058e+03,4.472191e+02
2.912951e+03,4.521800e+02
2.915844e+03,4.398148e+02
2.918736e+03,4.492562e+02
2.921629e+03,4.585898e+02
2.924521e+03,4.400926e+02
2.927414e+03,4.476552e+02
2.930307e+03,4.269020e+02
2.933199e+03,4.342750e+02
2.936092e+03,4.255860e+02
2.938985e+03,4.406315e+02
2.941878e+03,4.456489e+02
2.944770e+03,4.389381e+02
2.947663e+03,4.353496e+02
2.950556e+03,4.269642e+02
2.953448e+03,4.246808e+02
2.956341e+03,4.804727e+02
2.959234e+03,4.560322e+02
2.962127e+03,4.194775e+02
2.965019e+03,4.268597e+02
2.967912e+03,4.324499e+02
2.970805e+03,4.288343e+02
2.973698e+03,4.216849e+02
2.976590e+03,4.214759e+02
2.979483e+03,4.082990e+02
2.982375e+03,4.168961e+02
2.985268e+03,4.151200e+02
2.988161e+03,3.951325e+02
2.991053e+03,4.224209e+02
2.993946e+03,3.915553e+02
2.996839e+03,4.197413e+02
2.999732e+03,3.814656e+02
3.002624e+03,3.882434e+02
3.005517e+03,4.092508e+02
3.008410e+03,4.043942e+02
3.011302e+03,4.188683e+02
3.014195e+03,4.167533e+02
3.017088e+03,3.781660e+02
3.019981e+03,4.032694e+02
3.022873e+03,3.781940e+02
3.025766e+03,3.933187e+02
3.028659e+03,4.034915e+02
3.031552e+03,3.766000e+02
3.034444e+03,3.962562e+02
3.037337e+03,3.944719e+02
3.040229e+03,3.775629e+02
3.043122e+03,3.979237e+02
3.046015e+03,3.819906e+02
3.048907e+03,3.767827e+02
3.051800e+03,3.953224e+02
3.054693e+03,3.900329e+02
3.057586e+03,3.926594e+02
3.060478e+03,3.748024e+02
3.063371e+03,3.733963e+02
3.066264e+03,3.774835e+02
3.069156e+03,3.855220e+02
3.072049e+03,3.953935e+02
3.074942e+03,3.899046e+02
3.077835e+03,3.653477e+02
3.080727e+03,3.931690e+02
3.083620e+03,3.914125e+02
3.086513e+03,4.035557e+02
3.089406e+03,4.057645e+02
3.092298e+03,3.969217e+02
3.095191e+03,3.804295e+02
3.098083e+03,3.656444e+02
3.100976e+03,4.002007e+02
3.103869e+03,4.052688e+02
3.106761e+03,3.741225e+02
3.109654e+03,3.961329e+02
3.112547e+03,3.848706e+02
3.115440e+03,3.910025e+02
3.118332e+03,4.216593e+02
3.121225e+03,3.876421e+02
3.124118e+03,3.996364e+02
3.127010e+03,3.782751e+02
3.129903e+03,3.762632e+02
3.132796e+03,4.059187e+02
3.135689e+03,4.196419e+02
3.138581e+03,4.211873e+02
3.141474e+03,4.048544e+02
3.144367e+03,3.861565e+02
3.147260e+03,3.724729e+02
3.150152e+03,4.075023e+02
3.153045e+03,3.818594e+02
3.155938e+03,3.646021e+02
3.158830e+03,3.909679e+02
3.161723e+03,4.089841e+02
3.164615e+03,3.963806e+02
3.167508e+03,3.842508e+02
3.170401e+03,3.730524e+02
3.173294e+03,3.804041e+02
3.176186e+03,3.930110e+02
3.179079e+03,3.767068e+02
3.181972e+03,3.991321e+02
3.184865e+03,3.924104e+02
3.187757e+03,3.775003e+02
3.190650e+03,3.765082e+02
3.193543e+03,3.754938e+02
3.196435e+03,3.909844e+02
3.199328e+03,4.072430e+02
3.200292e+03,4.108522e+02