File: RAMAN_data/06022023_r1/black fibre12.CSV
1.995979e+02,1.139708e+03
2.024906e+02,1.141197e+03
2.053833e+02,1.135459e+03
2.082760e+02,1.141001e+03
2.111687e+02,1.139620e+03
2.140614e+02,1.143309e+03
2.169541e+02,1.137106e+03
2.198468e+02,1.130422e+03
2.227395e+02,1.147460e+03
2.256322e+02,1.150161e+03
2.285249e+02,1.131574e+03
2.314176e+02,1.139076e+03
2.343103e+02,1.146977e+03
2.372030e+02,1.142245e+03
2.400957e+02,1.143799e+03
2.429884e+02,1.141473e+03
2.458811e+02,1.145982e+03
2.487738e+02,1.148604e+03
2.516665e+02,1.153822e+03
2.545592e+02,1.152877e+03
2.574519e+02,1.151055e+03
2.603446e+02,1.151519e+03
2.632373e+02,1.161225e+03
2.661300e+02,1.160438e+03
2.690227e+02,1.160241e+03
2.719154e+02,1.161328e+03
2.748081e+02,1.152538e+03
2.777008e+02,1.156172e+03
2.805935e+02,1.172868e+03
2.834862e+02,1.166158e+03
2.863789e+02,1.171006e+03
2.892716e+02,1.164817e+03
2.921643e+02,1.164417e+03
2.950570e+02,1.159100e+03
2.979497e+02,1.164528e+03
3.008424e+02,1.163517e+03
3.037351e+02,1.163575e+03
3.066278e+02,1.163561e+03
3.095205e+02,1.160381e+03
3.124132e+02,1.162751e+03
3.153059e+02,1.167314e+03
3.181986e+02,1.160640e+03
3.210913e+02,1.167147e+03
3.239840e+02,1.160936e+03
3.268767e+02,1.173580e+03
3.297694e+02,1.171704e+03
3.326621e+02,1.165637e+03
3.355548e+02,1.170447e+03
3.384475e+02,1.171178e+03
3.413402e+02,1.177291e+03
3.442329e+02,1.165367e+03
3.471256e+02,1.168075e+03
3.500183e+02,1.161789e+03
3.529110e+02,1.162121e+03
3.558037e+02,1.167997e+03
3.586964e+02,1.173494e+03
3.615891e+02,1.178892e+03
3.644818e+02,1.174504e+03
3.673745e+02,1.162438e+03
3.702672e+02,1.172251e+03
3.731599e+02,1.187043e+03
3.760526e+02,1.205488e+03
3.789453e+02,1.192841e+03
3.818380e+02,1.175364e+03
3.847307e+02,1.173218e+03
3.876234e+02,1.167762e+03
3.905161e+02,1.166256e+03
3.934088e+02,1.164162e+03
3.963015e+02,1.158829e+03
3.991942e+02,1.171477e+03
4.020869e+02,1.162030e+03
4.049796e+02,1.158497e+03
4.078723e+02,1.165443e+03
4.107650e+02,1.168495e+03
4.136577e+02,1.159462e+03
4.165504e+02,1.159159e+03
4.194431e+02,1.153926e+03
4.223358e+02,1.155438e+03
4.252285e+02,1.163767e+03
4.281212e+02,1.172501e+03
4.310139e+02,1.163631e+03
4.339066e+02,1.173495e+03
4.367993e+02,1.183268e+03
4.396920e+02,1.164192e+03
4.425847e+02,1.157694e+03
4.454774e+02,1.159379e+03
4.483701e+02,1.149175e+03
4.512628e+02,1.159130e+03
4.541555e+02,1.155325e+03
4.570482e+02,1.155292e+03
4.599409e+02,1.159516e+03
4.628336e+02,1.148652e+03
4.657263e+02,1.144510e+03
4.686190e+02,1.139569e+03
4.715117e+02,1.140939e+03
4.744044e+02,1.139155e+03
4.772971e+02,1.153626e+03
4.801898e+02,1.155106e+03
4.830825e+02,1.154392e+03
4.859752e+02,1.158784e+03
4.888679e+02,1.160403e+03
4.917606e+02,1.148199e+03
4.946533e+02,1.138078e+03
4.975460e+02,1.143985e+03
5.004387e+02,1.146401e+03
5.033314e+02,1.146926e+03
5.062241e+02,1.134501e+03
5.091168e+02,1.134052e+03
5.120095e+02,1.141979e+03
5.149022e+02,1.148220e+03
5.177949e+02,1.145403e+03
5.206876e+02,1.139684e+03
5.235803e+02,1.126077e+03
5.264730e+02,1.125867e+03
5.293657e+02,1.133471e+03
5.322584e+02,1.129472e+03
5.351511e+02,1.119519e+03
5.380438e+02,1.118778e+03
5.409365e+02,1.123081e+03
5.438292e+02,1.122108e+03
5.467219e+02,1.116675e+03
5.496146e+02,1.122737e+03
5.525073e+02,1.111365e+03
5.554000e+02,1.107860e+03
5.582927e+02,1.108804e+03
5.611854e+02,1.106573e+03
5.640781e+02,1.109740e+03
5.669708e+02,1.117581e+03
5.698635e+02,1.093590e+03
5.727562e+02,1.100568e+03
5.756489e+02,1.112377e+03
5.785416e+02,1.115988e+03
5.814343e+02,1.113969e+03
5.843270e+02,1.086831e+03
5.872197e+02,1.100861e+03
5.901124e+02,1.107665e+03
5.930051e+02,1.096761e+03
5.958978e+02,1.099162e+03
5.987905e+02,1.112411e+03
6.016832e+02,1.109811e+03
6.045759e+02,1.097236e+03
6.074686e+02,1.104839e+03
6.103613e+02,1.097003e+03
6.132540e+02,1.087300e+03
6.161467e+02,1.086759e+03
6.190394e+02,1.085964e+03
6.219321e+02,1.092073e+03
6.248248e+02,1.087769e+03
6.277175e+02,1.083292e+03
6.306102e+02,1.083141e+03
6.335029e+02,1.085858e+03
6.363956e+02,1.092056e+03
6.392883e+02,1.081839e+03
6.421810e+02,1.087170e+03
6.450737e+02,1.079432e+03
6.479664e+02,1.080596e+03
6.508591e+02,1.082153e+03
6.537518e+02,1.083654e+03
6.566445e+02,1.069493e+03
6.595372e+02,1.068158e+03
6.624299e+02,1.071463e+03
6.653226e+02,1.063540e+03
6.682153e+02,1.064176e+03
6.711080e+02,1.059975e+03
6.740007e+02,1.064091e+03
6.768934e+02,1.058979e+03
6.797861e+02,1.064608e+03
6.826788e+02,1.061979e+03
6.855715e+02,1.053691e+03
6.884642e+02,1.059166e+03
6.913569e+02,1.059547e+03
6.942496e+02,1.054070e+03
6.971423e+02,1.044971e+03
7.000350e+02,1.049075e+03
7.029277e+02,1.051458e+03
7.058204e+02,1.058712e+03
7.087131e+02,1.036425e+03
7.116058e+02,1.039816e+03
7.144985e+02,1.043448e+03
7.173912e+02,1.035466e+03
7.202839e+02,1.041872e+03
7.231766e+02,1.032578e+03
7.260693e+02,1.046563e+03
7.289620e+02,1.033137e+03
7.318547e+02,1.029680e+03
7.347474e+02,1.029717e+03
7.376401e+02,1.036904e+03
7.405328e+02,1.026946e+03
7.434255e+02,1.027033e+03
7.463182e+02,1.028623e+03
7.492109e+02,1.020521e+03
7.521036e+02,1.016831e+03
7.549963e+02,1.021476e+03
7.578890e+02,1.020855e+03
7.607817e+02,1.014999e+03
7.636744e+02,1.015601e+03
7.665671e+02,1.018721e+03
7.694598e+02,1.021558e+03
7.723525e+02,1.010857e+03
7.752452e+02,1.014897e+03
7.781379e+02,1.008464e+03
7.810306e+02,1.010956e+03
7.839233e+02,1.000777e+03
7.868160e+02,1.007935e+03
7.897087e+02,1.005830e+03
7.926014e+02,1.006159e+03
7.954941e+02,1.001662e+03
7.983868e+02,9.907657e+02
8.012795e+02,9.900126e+02
8.041722e+02,9.909142e+02
8.070649e+02,9.874223e+02
8.099576e+02,9.893774e+02
8.128503e+02,9.948071e+02
8.157430e+02,1.000954e+03
8.186357e+02,9.839553e+02
8.215284e+02,9.843305e+02
8.244211e+02,9.800439e+02
8.273138e+02,9.937355e+02
8.302065e+02,9.841368e+02
8.330992e+02,9.765477e+02
8.359919e+02,9.711185e+02
8.388846e+02,9.866281e+02
8.417773e+02,9.769538e+02
8.446700e+02,9.758073e+02
8.475627e+02,9.721218e+02
8.504554e+02,9.801266e+02
8.533481e+02,9.751615e+02
8.562408e+02,9.749938e+02
8.591335e+02,9.580725e+02
8.620262e+02,9.623452e+02
8.649189e+02,9.534468e+02
8.678116e+02,9.635305e+02
8.707043e+02,9.653580e+02
8.735970e+02,9.589553e+02
8.764897e+02,9.626579e+02
8.793824e+02,9.672215e+02
8.822751e+02,9.609857e+02
8.851678e+02,9.608242e+02
8.880605e+02,9.621060e+02
8.909532e+02,9.617189e+02
8.938459e+02,9.558520e+02
8.967386e+02,9.525977e+02
8.996313e+02,9.493596e+02
9.025240e+02,9.549911e+02
9.054167e+02,9.448377e+02
9.083094e+02,9.462350e+02
9.112021e+02,9.358348e+02
9.140948e+02,9.366998e+02
9.169875e+02,9.356184e+02
9.198802e+02,9.339328e+02
9.227729e+02,9.275609e+02
9.256656e+02,9.412952e+02
9.285583e+02,9.237689e+02
9.314510e+02,9.320772e+02
9.343438e+02,9.355702e+02
9.372365e+02,9.197695e+02
9.401292e+02,9.217958e+02
9.430219e+02,9.179096e+02
9.459146e+02,9.199291e+02
9.488073e+02,9.155484e+02
9.517000e+02,9.149630e+02
9.545927e+02,9.131736e+02
9.574854e+02,9.124542e+02
9.603781e+02,9.174015e+02
9.632708e+02,9.162296e+02
9.661635e+02,9.151470e+02
9.690562e+02,9.089167e+02
9.719489e+02,9.040900e+02
9.748416e+02,8.983935e+02
9.777343e+02,8.959561e+02
9.806270e+02,8.998488e+02
9.835197e+02,8.972598e+02
9.864124e+02,9.007983e+02
9.893051e+02,8.935130e+02
9.921978e+02,9.041241e+02
9.950905e+02,8.984135e+02
9.979832e+02,8.952960e+02
1.000876e+03,8.891578e+02
1.003769e+03,8.889608e+02
1.006661e+03,8.918511e+02
1.009554e+03,8.895914e+02
1.012447e+03,8.829996e+02
1.015339e+03,8.881953e+02
1.018232e+03,8.823785e+02
1.021125e+03,8.859612e+02
1.024017e+03,8.858160e+02
1.026910e+03,8.860914e+02
1.029803e+03,8.828763e+02
1.032696e+03,8.776285e+02
1.035588e+03,8.822090e+02
1.038481e+03,8.771708e+02
1.041374e+03,8.691709e+02
1.044266e+03,8.774117e+02
1.047159e+03,8.806208e+02
1.050052e+03,8.761215e+02
1.052944e+03,8.816580e+02
1.055837e+03,8.743803e+02
1.058730e+03,8.724040e+02
1.061623e+03,8.748058e+02
1.064515e+03,8.632908e+02
1.067408e+03,8.700048e+02
1.070301e+03,8.642897e+02
1.073193e+03,8.697959e+02
1.076086e+03,8.688499e+02
1.078979e+03,8.615170e+02
1.081871e+03,8.743934e+02
1.084764e+03,8.722735e+02
1.087657e+03,8.933554e+02
1.090550e+03,8.928177e+02
1.093442e+03,8.947283e+02
1.096335e+03,8.963216e+02
1.099228e+03,8.736740e+02
1.102120e+03,8.771790e+02
1.105013e+03,8.657923e+02
1.107906e+03,8.727540e+02
1.110798e+03,8.659738e+02
1.113691e+03,8.743597e+02
1.116584e+03,8.837535e+02
1.119477e+03,8.872260e+02
1.122369e+03,8.863840e+02
1.125262e+03,8.669321e+02
1.128155e+03,8.674567e+02
1.131047e+03,8.576730e+02
1.133940e+03,8.563144e+02
1.136833e+03,8.587530e+02
1.139725e+03,8.540176e+02
1.142618e+03,8.511966e+02
1.145511e+03,8.552289e+02
1.148404e+03,8.619575e+02
1.151296e+03,8.508581e+02
1.154189e+03,8.555529e+02
1.157082e+03,8.392888e+02
1.159974e+03,8.413180e+02
1.162867e+03,8.301778e+02
1.165760e+03,8.248622e+02
1.168652e+03,8.296833e+02
1.171545e+03,8.175766e+02
1.174438e+03,8.185579e+02
1.177331e+03,8.234523e+02
1.180223e+03,8.268717e+02
1.183116e+03,8.273815e+02
1.186009e+03,8.210741e+02
1.188901e+03,8.101216e+02
1.191794e+03,8.134803e+02
1.194687e+03,8.153758e+02
1.197579e+03,8.078404e+02
1.200472e+03,8.059645e+02
1.203365e+03,8.002742e+02
1.206258e+03,8.006669e+02
1.209150e+03,8.037521e+02
1.212043e+03,8.074133e+02
1.214936e+03,8.097155e+02
1.217828e+03,8.071259e+02
1.220721e+03,7.948644e+02
1.223614e+03,8.031072e+02
1.226506e+03,7.938884e+02
1.229399e+03,8.015247e+02
1.232292e+03,7.971921e+02
1.235185e+03,7.980192e+02
1.238077e+03,7.887075e+02
1.240970e+03,7.935770e+02
1.243863e+03,7.921280e+02
1.246755e+03,7.913076e+02
1.249648e+03,7.854957e+02
1.252541e+03,7.898198e+02
1.255433e+03,7.868806e+02
1.258326e+03,7.896600e+02
1.261219e+03,7.852299e+02
1.264112e+03,7.771254e+02
1.267004e+03,7.761262e+02
1.269897e+03,7.781369e+02
1.272790e+03,7.963719e+02
1.275682e+03,7.962001e+02
1.278575e+03,7.926670e+02
1.281468e+03,7.951418e+02
1.284360e+03,7.948670e+02
1.287253e+03,8.021146e+02
1.290146e+03,7.974197e+02
1.293039e+03,7.907514e+02
1.295931e+03,7.747024e+02
1.298824e+03,7.792733e+02
1.301717e+03,7.762003e+02
1.304609e+03,7.741076e+02
1.307502e+03,7.699726e+02
1.310395e+03,7.656707e+02
1.313287e+03,7.621628e+02
1.316180e+03,7.701848e+02
1.319073e+03,7.742054e+02
1.321966e+03,7.728312e+02
1.324858e+03,7.679710e+02
1.327751e+03,7.697894e+02
1.330644e+03,7.809535e+02
1.333536e+03,7.754749e+02
1.336429e+03,7.781689e+02
1.339322e+03,7.761238e+02
1.342214e+03,7.685525e+02
1.345107e+03,7.734758e+02
1.348000e+03,7.709827e+02
1.350893e+03,7.753542e+02
1.353785e+03,7.662315e+02
1.356678e+03,7.630457e+02
1.359571e+03,7.630518e+02
1.362463e+03,7.599811e+02
1.365356e+03,7.612722e+02
1.368249e+03,7.609342e+02
1.371141e+03,7.623387e+02
1.374034e+03,7.681215e+02
1.376927e+03,7.576086e+02
1.379820e+03,7.555183e+02
1.382712e+03,7.517521e+02
1.385605e+03,7.552336e+02
1.388498e+03,7.473339e+02
1.391390e+03,7.384490e+02
1.394283e+03,7.380108e+02
1.397176e+03,7.414434e+02
1.400068e+03,7.334037e+02
1.402961e+03,7.354206e+02
1.405854e+03,7.340065e+02
1.408747e+03,7.334453e+02
1.411639e+03,7.383770e+02
1.414532e+03,7.300854e+02
1.417425e+03,7.272195e+02
1.420317e+03,7.265387e+02
1.423210e+03,7.230893e+02
1.426103e+03,7.205603e+02
1.428995e+03,7.230329e+02
1.431888e+03,7.146212e+02
1.434781e+03,7.130458e+02
1.437674e+03,7.190533e+02
1.440566e+03,7.125803e+02
1.443459e+03,7.097504e+02
1.446352e+03,7.151141e+02
1.449244e+03,6.997792e+02
1.452137e+03,7.064902e+02
1.455030e+03,7.103300e+02
1.457922e+03,7.069044e+02
1.460815e+03,7.017918e+02
1.463708e+03,7.008331e+02
1.466601e+03,6.946093e+02
1.469493e+03,6.929128e+02
1.472386e+03,6.985730e+02
1.475279e+03,6.956565e+02
1.478171e+03,6.996054e+02
1.481064e+03,7.018934e+02
1.483957e+03,6.942129e+02
1.486849e+03,6.851541e+02
1.489742e+03,6.939885e+02
1.492635e+03,6.889056e+02
1.495528e+03,6.930875e+02
1.498420e+03,6.855504e+02
1.501313e+03,6.724815e+02
1.504206e+03,6.789482e+02
1.507098e+03,6.856462e+02
1.509991e+03,6.726624e+02
1.512884e+03,6.720869e+02
1.515776e+03,6.777697e+02
1.518669e+03,6.744681e+02
1.521562e+03,6.803840e+02
1.524455e+03,6.773609e+02
1.527347e+03,6.700499e+02
1.530240e+03,6.640850e+02
1.533133e+03,6.731448e+02
1.536025e+03,6.685793e+02
1.538918e+03,6.707392e+02
1.541811e+03,6.612845e+02
1.544703e+03,6.667720e+02
1.547596e+03,6.588105e+02
1.550489e+03,6.645416e+02
1.553382e+03,6.580146e+02
1.556274e+03,6.720883e+02
1.559167e+03,6.687858e+02
1.562060e+03,6.609703e+02
1.564952e+03,6.725613e+02
1.567845e+03,6.660696e+02
1.570738e+03,6.735098e+02
1.573630e+03,6.682871e+02
1.576523e+03,6.647926e+02
1.579416e+03,6.671981e+02
1.582309e+03,6.725956e+02
1.585201e+03,6.680286e+02
1.588094e+03,6.665883e+02
1.590987e+03,6.629477e+02
1.593879e+03,6.618888e+02
1.596772e+03,6.556583e+02
1.599665e+03,6.494528e+02
1.602557e+03,6.453030e+02
1.605450e+03,6.439349e+02
1.608343e+03,6.401553e+02
1.611236e+03,6.489656e+02
1.614128e+03,6.460905e+02
1.617021e+03,6.358821e+02
1.619914e+03,6.444423e+02
1.622806e+03,6.327116e+02
1.625699e+03,6.365427e+02
1.628592e+03,6.298298e+02
1.631484e+03,6.276697e+02
1.634377e+03,6.278716e+02
1.637270e+03,6.366165e+02
1.640163e+03,6.225345e+02
1.643055e+03,6.283443e+02
1.645948e+03,6.192789e+02
1.648841e+03,6.243657e+02
1.651733e+03,6.201887e+02
1.654626e+03,6.230045e+02
1.657519e+03,6.172529e+02
1.660411e+03,6.184291e+02
1.663304e+03,6.208627e+02
1.666197e+03,6.170089e+02
1.669090e+03,6.200820e+02
1.671982e+03,6.130407e+02
1.674875e+03,6.158504e+02
1.677768e+03,6.168829e+02
1.680660e+03,6.078015e+02
1.683553e+03,6.066457e+02
1.686446e+03,6.103522e+02
1.689339e+03,6.003749e+02
1.692231e+03,6.086245e+02
1.695124e+03,6.074012e+02
1.698017e+03,6.012215e+02
1.700909e+03,6.020463e+02
1.703802e+03,5.994474e+02
1.706695e+03,5.988185e+02
1.709587e+03,6.014654e+02
1.712480e+03,5.981511e+02
1.715373e+03,5.991107e+02
1.718266e+03,5.881768e+02
1.721158e+03,5.973107e+02
1.724051e+03,5.953043e+02
1.726944e+03,5.862921e+02
1.729836e+03,5.920876e+02
1.732729e+03,5.894062e+02
1.735622e+03,5.938292e+02
1.738514e+03,5.861847e+02
1.741407e+03,5.833116e+02
1.744300e+03,5.825596e+02
1.747193e+03,5.821810e+02
1.750085e+03,5.849034e+02
1.752978e+03,5.780862e+02
1.755871e+03,5.907464e+02
1.758763e+03,5.800198e+02
1.761656e+03,5.840355e+02
1.764549e+03,5.755532e+02
1.767441e+03,5.671943e+02
1.770334e+03,5.841016e+02
1.773227e+03,5.734426e+02
1.776120e+03,5.696686e+02
1.779012e+03,5.777562e+02
1.781905e+03,5.672214e+02
1.784798e+03,5.642689e+02
1.787690e+03,5.617111e+02
1.790583e+03,5.603111e+02
1.793476e+03,5.517955e+02
1.796368e+03,5.622055e+02
1.799261e+03,5.618070e+02
1.802154e+03,5.595519e+02
1.805047e+03,5.591264e+02
1.807939e+03,5.571182e+02
1.810832e+03,5.605225e+02
1.813725e+03,5.487648e+02
1.816617e+03,5.513179e+02
1.819510e+03,5.476434e+02
1.822403e+03,5.467060e+02
1.825295e+03,5.439543e+02
1.828188e+03,5.565519e+02
1.831081e+03,5.523777e+02
1.833974e+03,5.447254e+02
1.836866e+03,5.369720e+02
1.839759e+03,5.380648e+02
1.842652e+03,5.456571e+02
1.845544e+03,5.462070e+02
1.848437e+03,5.344750e+02
1.851330e+03,5.373904e+02
1.854222e+03,5.402198e+02
1.857115e+03,5.321986e+02
1.860008e+03,5.361996e+02
1.862901e+03,5.359111e+02
1.865793e+03,5.315349e+02
1.868686e+03,5.254774e+02
1.871579e+03,5.248391e+02
1.874471e+03,5.229886e+02
1.877364e+03,5.221879e+02
1.880257e+03,5.211097e+02
1.883149e+03,5.075186e+02
1.886042e+03,5.228967e+02
1.888935e+03,5.178270e+02
1.891828e+03,5.228879e+02
1.894720e+03,5.166129e+02
1.897613e+03,5.106988e+02
1.900506e+03,5.207986e+02
1.903398e+03,5.118590e+02
1.906291e+03,5.166320e+02
1.909184e+03,5.060508e+02
1.912076e+03,5.091867e+02
1.914969e+03,5.065073e+02
1.917862e+03,5.032191e+02
1.920755e+03,4.984662e+02
1.923647e+03,4.986219e+02
1.926540e+03,5.032827e+02
1.929433e+03,5.036728e+02
1.932325e+03,5.024409e+02
1.935218e+03,5.009200e+02
1.938111e+03,4.924742e+02
1.941003e+03,4.996568e+02
1.943896e+03,4.902958e+02
1.946789e+03,4.880073e+02
1.949682e+03,4.881122e+02
1.952574e+03,4.936903e+02
1.955467e+03,4.850992e+02
1.958360e+03,4.881111e+02
1.961252e+03,4.897482e+02
1.964145e+03,4.824154e+02
1.967038e+03,4.758734e+02
1.969930e+03,4.740880e+02
1.972823e+03,4.754116e+02
1.975716e+03,4.772842e+02
1.978609e+03,4.739094e+02
1.981501e+03,4.775700e+02
1.984394e+03,4.701346e+02
1.987287e+03,4.813109e+02
1.990179e+03,4.713911e+02
1.993072e+03,4.731754e+02
1.995965e+03,4.729965e+02
1.998857e+03,4.633898e+02
2.001750e+03,4.758601e+02
2.004643e+03,4.621024e+02
2.007536e+03,4.747229e+02
2.010428e+03,4.788470e+02
2.013321e+03,4.620910e+02
2.016214e+03,4.542347e+02
2.019106e+03,4.557559e+02
2.021999e+03,4.592590e+02
2.024892e+03,4.646880e+02
2.027784e+03,4.481439e+02
2.030677e+03,4.418759e+02
2.033570e+03,4.622040e+02
2.036463e+03,4.481207e+02
2.039355e+03,4.533698e+02
2.042248e+03,4.406093e+02
2.045141e+03,4.450677e+02
2.048033e+03,4.467558e+02
2.050926e+03,4.411911e+02
2.053819e+03,4.432912e+02
2.056711e+03,4.414500e+02
2.059604e+03,4.352836e+02
2.062497e+03,4.332077e+02
2.065390e+03,4.331065e+02
2.068282e+03,4.350757e+02
2.071175e+03,4.320105e+02
2.074068e+03,4.366247e+02
2.076960e+03,4.297875e+02
2.079853e+03,4.374012e+02
2.082746e+03,4.255366e+02
2.085638e+03,4.285311e+02
2.088531e+03,4.251445e+02
2.091424e+03,4.282105e+02
2.094316e+03,4.269307e+02
2.097209e+03,4.190085e+02
2.100102e+03,4.264892e+02
2.102995e+03,4.214712e+02
2.105887e+03,4.187038e+02
2.108780e+03,4.180321e+02
2.111673e+03,4.179580e+02
2.114565e+03,4.107867e+02
2.117458e+03,4.169928e+02
2.120351e+03,4.091607e+02
2.123244e+03,4.085337e+02
2.126136e+03,4.166166e+02
2.129029e+03,4.049047e+02
2.131922e+03,4.054188e+02
2.134814e+03,4.096865e+02
2.137707e+03,4.051089e+02
2.140600e+03,4.069156e+02
2.143492e+03,4.057852e+02
2.146385e+03,3.962741e+02
2.149278e+03,4.045089e+02
2.152170e+03,4.042651e+02
2.155063e+03,4.059304e+02
2.157956e+03,3.993557e+02
2.160849e+03,3.965998e+02
2.163741e+03,3.919702e+02
2.166634e+03,3.955972e+02
2.169527e+03,3.893326e+02
2.172419e+03,3.965065e+02
2.175312e+03,3.974094e+02
2.178205e+03,3.963964e+02
2.181098e+03,3.952064e+02
2.183990e+03,3.862491e+02
2.186883e+03,3.899057e+02
2.189776e+03,3.827717e+02
2.192668e+03,3.796139e+02
2.195561e+03,3.920269e+02
2.198454e+03,3.828748e+02
2.201346e+03,3.749822e+02
2.204239e+03,3.819672e+02
2.207132e+03,3.957930e+02
2.210024e+03,3.740148e+02
2.212917e+03,3.621073e+02
2.215810e+03,3.811649e+02
2.218703e+03,3.777841e+02
2.221595e+03,3.745056e+02
2.224488e+03,3.783463e+02
2.227381e+03,3.617430e+02
2.230273e+03,3.741372e+02
2.233166e+03,3.668919e+02
2.236059e+03,3.725908e+02
2.238952e+03,3.564802e+02
2.241844e+03,3.623242e+02
2.244737e+03,3.581080e+02
2.247630e+03,3.588354e+02
2.250522e+03,3.600270e+02
2.253415e+03,3.603138e+02
2.256308e+03,3.567602e+02
2.259200e+03,3.583157e+02
2.262093e+03,3.547966e+02
2.264986e+03,3.596091e+02
2.267879e+03,3.517281e+02
2.270771e+03,3.482348e+02
2.273664e+03,3.408351e+02
2.276557e+03,3.568625e+02
2.279449e+03,3.469781e+02
2.282342e+03,3.530222e+02
2.285235e+03,3.487871e+02
2.288127e+03,3.477586e+02
2.291020e+03,3.483692e+02
2.293913e+03,3.427982e+02
2.296805e+03,3.424099e+02
2.299698e+03,3.461849e+02
2.302591e+03,3.376622e+02
2.305484e+03,3.330719e+02
2.308376e+03,3.400450e+02
2.311269e+03,3.441436e+02
2.314162e+03,3.359315e+02
2.317054e+03,3.337079e+02
2.319947e+03,3.210880e+02
2.322840e+03,3.290782e+02
2.325733e+03,3.368235e+02
2.328625e+03,3.328444e+02
2.331518e+03,3.286170e+02
2.334411e+03,3.244087e+02
2.337303e+03,3.256607e+02
2.340196e+03,3.200668e+02
2.343089e+03,3.270517e+02
2.345981e+03,3.328242e+02
2.348874e+03,3.293843e+02
2.351767e+03,3.155481e+02
2.354659e+03,3.244763e+02
2.357552e+03,3.201558e+02
2.360445e+03,3.296035e+02
2.363338e+03,3.184894e+02
2.366230e+03,3.166296e+02
2.369123e+03,3.192688e+02
2.372016e+03,3.178929e+02
2.374908e+03,3.177860e+02
2.377801e+03,3.232923e+02
2.380694e+03,3.137418e+02
2.383587e+03,3.159514e+02
2.386479e+03,3.124615e+02
2.389372e+03,3.104370e+02
2.392265e+03,3.120861e+02
2.395157e+03,3.200132e+02
2.398050e+03,3.074608e+02
2.400943e+03,3.001940e+02
2.403835e+03,3.060160e+02
2.406728e+03,3.079521e+02
2.409621e+03,3.025840e+02
2.412513e+03,3.101559e+02
2.415406e+03,3.025259e+02
2.418299e+03,2.999678e+02
2.421192e+03,3.117195e+02
2.424084e+03,3.012982e+02
2.426977e+03,3.008600e+02
2.429870e+03,3.021166e+02
2.432762e+03,3.010084e+02
2.435655e+03,2.913935e+02
2.438548e+03,2.933997e+02
2.441441e+03,2.906373e+02
2.444333e+03,2.961131e+02
2.447226e+03,2.971107e+02
2.450119e+03,2.884305e+02
2.453011e+03,2.979562e+02
2.455904e+03,2.905956e+02
2.458797e+03,2.869406e+02
2.461689e+03,2.938799e+02
2.464582e+03,2.836290e+02
2.467475e+03,2.900667e+02
2.470367e+03,2.923804e+02
2.473260e+03,2.893543e+02
2.476153e+03,2.867397e+02
2.479046e+03,2.879878e+02
2.481938e+03,2.888939e+02
2.484831e+03,2.878727e+02
2.487724e+03,2.909625e+02
2.490616e+03,2.827153e+02
2.493509e+03,2.842721e+02
2.496402e+03,2.827863e+02
2.499295e+03,2.842119e+02
2.502187e+03,2.736381e+02
2.505080e+03,2.796997e+02
2.507973e+03,2.796258e+02
2.510865e+03,2.779736e+02
2.513758e+03,2.777624e+02
2.516651e+03,2.844391e+02
2.519543e+03,2.702733e+02
2.522436e+03,2.664915e+02
2.525329e+03,2.820464e+02
2.528221e+03,2.766466e+02
2.531114e+03,2.781832e+02
2.534007e+03,2.747480e+02
2.536900e+03,2.750347e+02
2.539792e+03,2.715981e+02
2.542685e+03,2.790596e+02
2.545578e+03,2.729217e+02
2.548470e+03,2.822695e+02
2.551363e+03,2.757348e+02
2.554256e+03,2.845960e+02
2.557149e+03,2.727391e+02
2.560041e+03,2.739535e+02
2.562934e+03,2.751987e+02
2.565827e+03,2.708610e+02
2.568719e+03,2.730303e+02
2.571612e+03,2.772940e+02
2.574505e+03,2.674030e+02
2.577397e+03,2.704203e+02
2.580290e+03,2.608580e+02
2.583183e+03,2.640145e+02
2.586075e+03,2.590763e+02
2.588968e+03,2.607957e+02
2.591861e+03,2.601872e+02
2.594754e+03,2.638836e+02
2.597646e+03,2.598692e+02
2.600539e+03,2.588316e+02
2.603432e+03,2.642804e+02
2.606324e+03,2.546676e+02
2.609217e+03,2.537815e+02
2.612110e+03,2.568238e+02
2.615003e+03,2.527657e+02
2.617895e+03,2.512785e+02
2.620788e+03,2.509208e+02
2.623681e+03,2.548880e+02
2.626573e+03,2.539993e+02
2.629466e+03,2.517105e+02
2.632359e+03,2.506635e+02
2.635251e+03,2.449484e+02
2.638144e+03,2.552940e+02
2.641037e+03,2.556583e+02
2.643929e+03,2.481634e+02
2.646822e+03,2.432535e+02
2.649715e+03,2.396723e+02
2.652608e+03,2.439404e+02
2.655500e+03,2.464040e+02
2.658393e+03,2.455949e+02
2.661286e+03,2.398922e+02
2.664178e+03,2.533139e+02
2.667071e+03,2.452730e+02
2.669964e+03,2.394094e+02
2.672857e+03,2.463130e+02
2.675749e+03,2.429358e+02
2.678642e+03,2.470055e+02
2.681535e+03,2.400735e+02
2.684427e+03,2.464869e+02
2.687320e+03,2.474829e+02
2.690213e+03,2.328484e+02
2.693105e+03,2.419618e+02
2.695998e+03,2.343213e+02
2.698891e+03,2.434885e+02
2.701783e+03,2.494171e+02
2.704676e+03,2.327568e+02
2.707569e+03,2.507152e+02
2.710462e+03,2.419771e+02
2.713354e+03,2.344437e+02
2.716247e+03,2.382593e+02
2.719140e+03,2.532700e+02
2.722032e+03,2.393932e+02
2.724925e+03,2.442457e+02
2.727818e+03,2.376184e+02
2.730711e+03,2.361113e+02
2.733603e+03,2.450161e+02
2.736496e+03,2.283482e+02
2.739389e+03,2.323673e+02
2.742281e+03,2.266272e+02
2.745174e+03,2.264597e+02
2.748067e+03,2.368217e+02
2.750959e+03,2.347703e+02
2.753852e+03,2.305027e+02
2.756745e+03,2.320484e+02
2.759637e+03,2.284422e+02
2.762530e+03,2.423784e+02
2.765423e+03,2.283277e+02
2.768316e+03,2.314606e+02
2.771208e+03,2.230116e+02
2.774101e+03,2.304684e+02
2.776994e+03,2.274767e+02
2.779886e+03,2.221026e+02
2.782779e+03,2.283874e+02
2.785672e+03,2.298288e+02
2.788565e+03,2.265061e+02
2.791457e+03,2.298427e+02
2.794350e+03,2.234931e+02
2.797243e+03,2.253014e+02
2.800135e+03,2.333265e+02
2.803028e+03,2.327789e+02
2.805921e+03,2.323397e+02
2.808813e+03,2.305243e+02
2.811706e+03,2.312688e+02
2.814599e+03,2.156189e+02
2.817491e+03,2.309252e+02
2.820384e+03,2.291772e+02
2.823277e+03,2.372685e+02
2.826170e+03,2.194251e+02
2.829062e+03,2.356622e+02
2.831955e+03,2.277496e+02
2.834848e+03,2.275015e+02
2.837740e+03,2.434434e+02
2.840633e+03,2.149705e+02
2.843526e+03,2.360112e+02
2.846419e+03,2.283914e+02
2.849311e+03,2.276849e+02
2.852204e+03,2.298406e+02
2.855097e+03,2.245842e+02
2.857990e+03,2.354901e+02
2.860882e+03,2.371733e+02
2.863775e+03,2.462639e+02
2.866667e+03,2.464459e+02
2.869560e+03,2.555651e+02
2.872453e+03,2.480822e+02
2.875345e+03,2.550447e+02
2.878238e+03,2.466576e+02
2.881131e+03,2.528924e+02
2.884024e+03,2.710580e+02
2.886916e+03,2.641817e+02
2.889809e+03,2.594447e+02
2.892702e+03,2.500996e+02
2.895594e+03,2.723533e+02
2.898487e+03,2.490462e+02
2.901380e+03,2.696140e+02
2.904273e+03,2.547689e+02
2.907165e+03,2.456282e+02
2.910058e+03,2.606177e+02
2.912951e+03,2.393878e+02
2.915844e+03,2.550676e+02
2.918736e+03,2.354736e+02
2.921629e+03,2.537821e+02
2.924521e+03,2.437310e+02
2.927414e+03,2.326998e+02
2.930307e+03,2.258944e+02
2.933199e+03,2.284885e+02
2.936092e+03,2.348591e+02
2.938985e+03,2.232841e+02
2.941878e+03,2.304076e+02
2.944770e+03,2.403357e+02
2.947663e+03,2.307624e+02
2.950556e+03,2.221870e+02
2.953448e+03,2.305747e+02
2.956341e+03,2.516503e+02
2.959234e+03,2.532987e+02
2.962127e+03,2.381718e+02
2.965019e+03,2.228872e+02
2.967912e+03,2.171711e+02
2.970805e+03,2.145067e+02
2.973698e+03,2.104167e+02
2.976590e+03,2.234932e+02
2.979483e+03,2.179722e+02
2.982375e+03,2.021483e+02
2.985268e+03,2.148520e+02
2.988161e+03,2.171319e+02
2.991053e+03,2.123903e+02
2.993946e+03,2.078677e+02
2.996839e+03,2.224079e+02
2.999732e+03,2.111739e+02
3.002624e+03,1.850634e+02
3.005517e+03,2.030491e+02
3.008410e+03,2.062107e+02
3.011302e+03,2.088235e+02
3.014195e+03,2.013983e+02
3.017088e+03,2.050750e+02
3.019981e+03,2.072219e+02
3.022873e+03,2.032041e+02
3.025766e+03,2.075278e+02
3.028659e+03,1.962190e+02
3.031552e+03,1.860437e+02
3.034444e+03,2.194615e+02
3.037337e+03,2.038721e+02
3.040229e+03,1.928591e+02
3.043122e+03,2.183983e+02
3.046015e+03,1.951678e+02
3.048907e+03,1.835074e+02
3.051800e+03,2.084307e+02
3.054693e+03,2.051370e+02
3.057586e+03,2.073933e+02
3.060478e+03,2.050164e+02
3.063371e+03,2.094775e+02
3.066264e+03,2.009558e+02
3.069156e+03,2.069200e+02
3.072049e+03,2.189441e+02
3.074942e+03,1.754045e+02
3.077835e+03,1.821329e+02
3.080727e+03,1.970624e+02
3.083620e+03,2.038272e+02
3.086513e+03,2.212965e+02
3.089406e+03,2.101269e+02
3.092298e+03,2.149666e+02
3.095191e+03,2.040290e+02
3.098083e+03,1.990789e+02
3.100976e+03,2.149448e+02
3.103869e+03,1.841967e+02
3.106761e+03,1.997287e+02
3.109654e+03,2.103272e+02
3.112547e+03,1.956879e+02
3.115440e+03,2.163758e+02
3.118332e+03,2.357207e+02
3.121225e+03,1.974475e+02
3.124118e+03,2.090688e+02
3.127010e+03,2.043819e+02
3.129903e+03,2.189472e+02
3.132796e+03,1.928329e+02
3.135689e+03,2.106235e+02
3.138581e+03,2.121365e+02
3.141474e+03,2.337454e+02
3.144367e+03,2.067731e+02
3.147260e+03,2.063061e+02
3.150152e+03,2.229357e+02
3.153045e+03,1.953371e+02
3.155938e+03,2.202021e+02
3.158830e+03,1.965488e+02
3.161723e+03,2.447458e+02
3.164615e+03,2.158328e+02
3.167508e+03,2.224786e+02
3.170401e+03,2.254098e+02
3.173294e+03,2.188642e+02
3.176186e+03,2.215769e+02
3.179079e+03,2.052845e+02
3.181972e+03,2.263328e+02
3.184865e+03,2.041640e+02
3.187757e+03,2.341022e+02
3.190650e+03,2.095320e+02
3.193543e+03,1.848641e+02
3.196435e+03,2.237843e+02
3.199328e+03,2.376233e+02
3.200292e+03,2.573416e+02