File: RAMAN_data/06022023_r1/black fibre4.CSV
1.995979e+02,4.577417e+03
2.024906e+02,4.586815e+03
2.053833e+02,4.577460e+03
2.082760e+02,4.584819e+03
2.111687e+02,4.595234e+03
2.140614e+02,4.587410e+03
2.169541e+02,4.600701e+03
2.198468e+02,4.585175e+03
2.227395e+02,4.619569e+03
2.256322e+02,4.614783e+03
2.285249e+02,4.611041e+03
2.314176e+02,4.624298e+03
2.343103e+02,4.639323e+03
2.372030e+02,4.631585e+03
2.400957e+02,4.623726e+03
2.429884e+02,4.622454e+03
2.458811e+02,4.639094e+03
2.487738e+02,4.664375e+03
2.516665e+02,4.665698e+03
2.545592e+02,4.653968e+03
2.574519e+02,4.669220e+03
2.603446e+02,4.664859e+03
2.632373e+02,4.678005e+03
2.661300e+02,4.683930e+03
2.690227e+02,4.701015e+03
2.719154e+02,4.682486e+03
2.748081e+02,4.693856e+03
2.777008e+02,4.705089e+03
2.805935e+02,4.694345e+03
2.834862e+02,4.716600e+03
2.863789e+02,4.687491e+03
2.892716e+02,4.698504e+03
2.921643e+02,4.712318e+03
2.950570e+02,4.716471e+03
2.979497e+02,4.709602e+03
3.008424e+02,4.723972e+03
3.037351e+02,4.727162e+03
3.066278e+02,4.709955e+03
3.095205e+02,4.711011e+03
3.124132e+02,4.722911e+03
3.153059e+02,4.702374e+03
3.181986e+02,4.712462e+03
3.210913e+02,4.716295e+03
3.239840e+02,4.727361e+03
3.268767e+02,4.722580e+03
3.297694e+02,4.728927e+03
3.326621e+02,4.737864e+03
3.355548e+02,4.719283e+03
3.384475e+02,4.722414e+03
3.413402e+02,4.752544e+03
3.442329e+02,4.737612e+03
3.471256e+02,4.736969e+03
3.500183e+02,4.723309e+03
3.529110e+02,4.719086e+03
3.558037e+02,4.738846e+03
3.586964e+02,4.747639e+03
3.615891e+02,4.748414e+03
3.644818e+02,4.751261e+03
3.673745e+02,4.740864e+03
3.702672e+02,4.721412e+03
3.731599e+02,4.737343e+03
3.760526e+02,4.785154e+03
3.789453e+02,4.770101e+03
3.818380e+02,4.743322e+03
3.847307e+02,4.746545e+03
3.876234e+02,4.723472e+03
3.905161e+02,4.725820e+03
3.934088e+02,4.719829e+03
3.963015e+02,4.719638e+03
3.991942e+02,4.719269e+03
4.020869e+02,4.706026e+03
4.049796e+02,4.720599e+03
4.078723e+02,4.713806e+03
4.107650e+02,4.693155e+03
4.136577e+02,4.700273e+03
4.165504e+02,4.731564e+03
4.194431e+02,4.725455e+03
4.223358e+02,4.717253e+03
4.252285e+02,4.724171e+03
4.281212e+02,4.732421e+03
4.310139e+02,4.699110e+03
4.339066e+02,4.721675e+03
4.367993e+02,4.724117e+03
4.396920e+02,4.703811e+03
4.425847e+02,4.695915e+03
4.454774e+02,4.680458e+03
4.483701e+02,4.684443e+03
4.512628e+02,4.708396e+03
4.541555e+02,4.693125e+03
4.570482e+02,4.711579e+03
4.599409e+02,4.688266e+03
4.628336e+02,4.665752e+03
4.657263e+02,4.662788e+03
4.686190e+02,4.667972e+03
4.715117e+02,4.665129e+03
4.744044e+02,4.653287e+03
4.772971e+02,4.669721e+03
4.801898e+02,4.659943e+03
4.830825e+02,4.663706e+03
4.859752e+02,4.687281e+03
4.888679e+02,4.678048e+03
4.917606e+02,4.653278e+03
4.946533e+02,4.665050e+03
4.975460e+02,4.655193e+03
5.004387e+02,4.659447e+03
5.033314e+02,4.638531e+03
5.062241e+02,4.626407e+03
5.091168e+02,4.633729e+03
5.120095e+02,4.626524e+03
5.149022e+02,4.628320e+03
5.177949e+02,4.615500e+03
5.206876e+02,4.609597e+03
5.235803e+02,4.587221e+03
5.264730e+02,4.580761e+03
5.293657e+02,4.600726e+03
5.322584e+02,4.584967e+03
5.351511e+02,4.567638e+03
5.380438e+02,4.574775e+03
5.409365e+02,4.585344e+03
5.438292e+02,4.566254e+03
5.467219e+02,4.580219e+03
5.496146e+02,4.554250e+03
5.525073e+02,4.548325e+03
5.554000e+02,4.530588e+03
5.582927e+02,4.553279e+03
5.611854e+02,4.569282e+03
5.640781e+02,4.551387e+03
5.669708e+02,4.506600e+03
5.698635e+02,4.508420e+03
5.727562e+02,4.490661e+03
5.756489e+02,4.520883e+03
5.785416e+02,4.528870e+03
5.814343e+02,4.507318e+03
5.843270e+02,4.494394e+03
5.872197e+02,4.487564e+03
5.901124e+02,4.498461e+03
5.930051e+02,4.490343e+03
5.958978e+02,4.475733e+03
5.987905e+02,4.456457e+03
6.016832e+02,4.462646e+03
6.045759e+02,4.462741e+03
6.074686e+02,4.466965e+03
6.103613e+02,4.462358e+03
6.132540e+02,4.451804e+03
6.161467e+02,4.440705e+03
6.190394e+02,4.452714e+03
6.219321e+02,4.436296e+03
6.248248e+02,4.441820e+03
6.277175e+02,4.437399e+03
6.306102e+02,4.410378e+03
6.335029e+02,4.432819e+03
6.363956e+02,4.411330e+03
6.392883e+02,4.408908e+03
6.421810e+02,4.400210e+03
6.450737e+02,4.380631e+03
6.479664e+02,4.362746e+03
6.508591e+02,4.378671e+03
6.537518e+02,4.372494e+03
6.566445e+02,4.360808e+03
6.595372e+02,4.367530e+03
6.624299e+02,4.354568e+03
6.653226e+02,4.318390e+03
6.682153e+02,4.355943e+03
6.711080e+02,4.344677e+03
6.740007e+02,4.335013e+03
6.768934e+02,4.312577e+03
6.797861e+02,4.318215e+03
6.826788e+02,4.323239e+03
6.855715e+02,4.322705e+03
6.884642e+02,4.308823e+03
6.913569e+02,4.283894e+03
6.942496e+02,4.279624e+03
6.971423e+02,4.280886e+03
7.000350e+02,4.278067e+03
7.029277e+02,4.259690e+03
7.058204e+02,4.256719e+03
7.087131e+02,4.242563e+03
7.116058e+02,4.242720e+03
7.144985e+02,4.223613e+03
7.173912e+02,4.222598e+03
7.202839e+02,4.224967e+03
7.231766e+02,4.210166e+03
7.260693e+02,4.230404e+03
7.289620e+02,4.211579e+03
7.318547e+02,4.189224e+03
7.347474e+02,4.196851e+03
7.376401e+02,4.186482e+03
7.405328e+02,4.166592e+03
7.434255e+02,4.160419e+03
7.463182e+02,4.147875e+03
7.492109e+02,4.170462e+03
7.521036e+02,4.131286e+03
7.549963e+02,4.158803e+03
7.578890e+02,4.141333e+03
7.607817e+02,4.138542e+03
7.636744e+02,4.109286e+03
7.665671e+02,4.121974e+03
7.694598e+02,4.112424e+03
7.723525e+02,4.087542e+03
7.752452e+02,4.088431e+03
7.781379e+02,4.103177e+03
7.810306e+02,4.105104e+03
7.839233e+02,4.063443e+03
7.868160e+02,4.043732e+03
7.897087e+02,4.059315e+03
7.926014e+02,4.049802e+03
7.954941e+02,4.047800e+03
7.983868e+02,4.026365e+03
8.012795e+02,4.014581e+03
8.041722e+02,4.020905e+03
8.070649e+02,4.025110e+03
8.099576e+02,4.030908e+03
8.128503e+02,4.019675e+03
8.157430e+02,3.990560e+03
8.186357e+02,4.003951e+03
8.215284e+02,3.993828e+03
8.244211e+02,3.986927e+03
8.273138e+02,3.971723e+03
8.302065e+02,3.949321e+03
8.330992e+02,3.973998e+03
8.359919e+02,3.966624e+03
8.388846e+02,3.974520e+03
8.417773e+02,3.950329e+03
8.446700e+02,3.941656e+03
8.475627e+02,3.949460e+03
8.504554e+02,3.905550e+03
8.533481e+02,3.923743e+03
8.562408e+02,3.915029e+03
8.591335e+02,3.889995e+03
8.620262e+02,3.880071e+03
8.649189e+02,3.887156e+03
8.678116e+02,3.860117e+03
8.707043e+02,3.889045e+03
8.735970e+02,3.875438e+03
8.764897e+02,3.857602e+03
8.793824e+02,3.860233e+03
8.822751e+02,3.854747e+03
8.851678e+02,3.846190e+03
8.880605e+02,3.851647e+03
8.909532e+02,3.842374e+03
8.938459e+02,3.830854e+03
8.967386e+02,3.819155e+03
8.996313e+02,3.822716e+03
9.025240e+02,3.806760e+03
9.054167e+02,3.788099e+03
9.083094e+02,3.783502e+03
9.112021e+02,3.779530e+03
9.140948e+02,3.777157e+03
9.169875e+02,3.775114e+03
9.198802e+02,3.754452e+03
9.227729e+02,3.744864e+03
9.256656e+02,3.738041e+03
9.285583e+02,3.744237e+03
9.314510e+02,3.718802e+03
9.343438e+02,3.730692e+03
9.372365e+02,3.715023e+03
9.401292e+02,3.696752e+03
9.430219e+02,3.694747e+03
9.459146e+02,3.693925e+03
9.488073e+02,3.707174e+03
9.517000e+02,3.675548e+03
9.545927e+02,3.676014e+03
9.574854e+02,3.642114e+03
9.603781e+02,3.645396e+03
9.632708e+02,3.656834e+03
9.661635e+02,3.659099e+03
9.690562e+02,3.635551e+03
9.719489e+02,3.637681e+03
9.748416e+02,3.623473e+03
9.777343e+02,3.606278e+03
9.806270e+02,3.611530e+03
9.835197e+02,3.600610e+03
9.864124e+02,3.596126e+03
9.893051e+02,3.612643e+03
9.921978e+02,3.582214e+03
9.950905e+02,3.593042e+03
9.979832e+02,3.589404e+03
1.000876e+03,3.572819e+03
1.003769e+03,3.567566e+03
1.006661e+03,3.557514e+03
1.009554e+03,3.549088e+03
1.012447e+03,3.528492e+03
1.015339e+03,3.540582e+03
1.018232e+03,3.519764e+03
1.021125e+03,3.517414e+03
1.024017e+03,3.516128e+03
1.026910e+03,3.504419e+03
1.029803e+03,3.494299e+03
1.032696e+03,3.512787e+03
1.035588e+03,3.484764e+03
1.038481e+03,3.485530e+03
1.041374e+03,3.483638e+03
1.044266e+03,3.460163e+03
1.047159e+03,3.452730e+03
1.050052e+03,3.464094e+03
1.052944e+03,3.442287e+03
1.055837e+03,3.469341e+03
1.058730e+03,3.436240e+03
1.061623e+03,3.443422e+03
1.064515e+03,3.422592e+03
1.067408e+03,3.411118e+03
1.070301e+03,3.427022e+03
1.073193e+03,3.417779e+03
1.076086e+03,3.410186e+03
1.078979e+03,3.391592e+03
1.081871e+03,3.409938e+03
1.084764e+03,3.422271e+03
1.087657e+03,3.421400e+03
1.090550e+03,3.428101e+03
1.093442e+03,3.413632e+03
1.096335e+03,3.399594e+03
1.099228e+03,3.374050e+03
1.102120e+03,3.365999e+03
1.105013e+03,3.368358e+03
1.107906e+03,3.362327e+03
1.110798e+03,3.341263e+03
1.113691e+03,3.353849e+03
1.116584e+03,3.333549e+03
1.119477e+03,3.364991e+03
1.122369e+03,3.357556e+03
1.125262e+03,3.338211e+03
1.128155e+03,3.323771e+03
1.131047e+03,3.313539e+03
1.133940e+03,3.315087e+03
1.136833e+03,3.292486e+03
1.139725e+03,3.284059e+03
1.142618e+03,3.277204e+03
1.145511e+03,3.290856e+03
1.148404e+03,3.277210e+03
1.151296e+03,3.278517e+03
1.154189e+03,3.275742e+03
1.157082e+03,3.259693e+03
1.159974e+03,3.241602e+03
1.162867e+03,3.239941e+03
1.165760e+03,3.226268e+03
1.168652e+03,3.215903e+03
1.171545e+03,3.210336e+03
1.174438e+03,3.203305e+03
1.177331e+03,3.197200e+03
1.180223e+03,3.206757e+03
1.183116e+03,3.195591e+03
1.186009e+03,3.184847e+03
1.188901e+03,3.178567e+03
1.191794e+03,3.168885e+03
1.194687e+03,3.181952e+03
1.197579e+03,3.177609e+03
1.200472e+03,3.146938e+03
1.203365e+03,3.126275e+03
1.206258e+03,3.145525e+03
1.209150e+03,3.146080e+03
1.212043e+03,3.147320e+03
1.214936e+03,3.131075e+03
1.217828e+03,3.118896e+03
1.220721e+03,3.114814e+03
1.223614e+03,3.114336e+03
1.226506e+03,3.103533e+03
1.229399e+03,3.103011e+03
1.232292e+03,3.083751e+03
1.235185e+03,3.068022e+03
1.238077e+03,3.075927e+03
1.240970e+03,3.075148e+03
1.243863e+03,3.065545e+03
1.246755e+03,3.066355e+03
1.249648e+03,3.048975e+03
1.252541e+03,3.057025e+03
1.255433e+03,3.049200e+03
1.258326e+03,3.026757e+03
1.261219e+03,3.038679e+03
1.264112e+03,3.031119e+03
1.267004e+03,3.024787e+03
1.269897e+03,3.010937e+03
1.272790e+03,3.036739e+03
1.275682e+03,3.036214e+03
1.278575e+03,3.022751e+03
1.281468e+03,3.030087e+03
1.284360e+03,3.019416e+03
1.287253e+03,3.006214e+03
1.290146e+03,3.015713e+03
1.293039e+03,2.989205e+03
1.295931e+03,2.969313e+03
1.298824e+03,2.962142e+03
1.301717e+03,2.955581e+03
1.304609e+03,2.969578e+03
1.307502e+03,2.969629e+03
1.310395e+03,2.961290e+03
1.313287e+03,2.944052e+03
1.316180e+03,2.957876e+03
1.319073e+03,2.967125e+03
1.321966e+03,2.949895e+03
1.324858e+03,2.943151e+03
1.327751e+03,2.916963e+03
1.330644e+03,2.932394e+03
1.333536e+03,2.943085e+03
1.336429e+03,2.939175e+03
1.339322e+03,2.933386e+03
1.342214e+03,2.931736e+03
1.345107e+03,2.901576e+03
1.348000e+03,2.919902e+03
1.350893e+03,2.908846e+03
1.353785e+03,2.911133e+03
1.356678e+03,2.898114e+03
1.359571e+03,2.885671e+03
1.362463e+03,2.890504e+03
1.365356e+03,2.890361e+03
1.368249e+03,2.876697e+03
1.371141e+03,2.867604e+03
1.374034e+03,2.877125e+03
1.376927e+03,2.868085e+03
1.379820e+03,2.853132e+03
1.382712e+03,2.841552e+03
1.385605e+03,2.843308e+03
1.388498e+03,2.826172e+03
1.391390e+03,2.808305e+03
1.394283e+03,2.814861e+03
1.397176e+03,2.814324e+03
1.400068e+03,2.812409e+03
1.402961e+03,2.798063e+03
1.405854e+03,2.787432e+03
1.408747e+03,2.796568e+03
1.411639e+03,2.784151e+03
1.414532e+03,2.798507e+03
1.417425e+03,2.796043e+03
1.420317e+03,2.768305e+03
1.423210e+03,2.770940e+03
1.426103e+03,2.761919e+03
1.428995e+03,2.746290e+03
1.431888e+03,2.746497e+03
1.434781e+03,2.740258e+03
1.437674e+03,2.735442e+03
1.440566e+03,2.727976e+03
1.443459e+03,2.717477e+03
1.446352e+03,2.709656e+03
1.449244e+03,2.710430e+03
1.452137e+03,2.682880e+03
1.455030e+03,2.701175e+03
1.457922e+03,2.709267e+03
1.460815e+03,2.694996e+03
1.463708e+03,2.707160e+03
1.466601e+03,2.684678e+03
1.469493e+03,2.674465e+03
1.472386e+03,2.681099e+03
1.475279e+03,2.671557e+03
1.478171e+03,2.663911e+03
1.481064e+03,2.648433e+03
1.483957e+03,2.641238e+03
1.486849e+03,2.649513e+03
1.489742e+03,2.642377e+03
1.492635e+03,2.649153e+03
1.495528e+03,2.644376e+03
1.498420e+03,2.627874e+03
1.501313e+03,2.616680e+03
1.504206e+03,2.625384e+03
1.507098e+03,2.625378e+03
1.509991e+03,2.609510e+03
1.512884e+03,2.583819e+03
1.515776e+03,2.585826e+03
1.518669e+03,2.595088e+03
1.521562e+03,2.588618e+03
1.524455e+03,2.595363e+03
1.527347e+03,2.585548e+03
1.530240e+03,2.575001e+03
1.533133e+03,2.566147e+03
1.536025e+03,2.549664e+03
1.538918e+03,2.569591e+03
1.541811e+03,2.545556e+03
1.544703e+03,2.555570e+03
1.547596e+03,2.550352e+03
1.550489e+03,2.534293e+03
1.553382e+03,2.549466e+03
1.556274e+03,2.541104e+03
1.559167e+03,2.529313e+03
1.562060e+03,2.529979e+03
1.564952e+03,2.515498e+03
1.567845e+03,2.514538e+03
1.570738e+03,2.518918e+03
1.573630e+03,2.522365e+03
1.576523e+03,2.513460e+03
1.579416e+03,2.502401e+03
1.582309e+03,2.509005e+03
1.585201e+03,2.499279e+03
1.588094e+03,2.510155e+03
1.590987e+03,2.502897e+03
1.593879e+03,2.472183e+03
1.596772e+03,2.463767e+03
1.599665e+03,2.470819e+03
1.602557e+03,2.454696e+03
1.605450e+03,2.457850e+03
1.608343e+03,2.444838e+03
1.611236e+03,2.438812e+03
1.614128e+03,2.441081e+03
1.617021e+03,2.436531e+03
1.619914e+03,2.420212e+03
1.622806e+03,2.420069e+03
1.625699e+03,2.411582e+03
1.628592e+03,2.417109e+03
1.631484e+03,2.406450e+03
1.634377e+03,2.398418e+03
1.637270e+03,2.398667e+03
1.640163e+03,2.384286e+03
1.643055e+03,2.376248e+03
1.645948e+03,2.384830e+03
1.648841e+03,2.364270e+03
1.651733e+03,2.352375e+03
1.654626e+03,2.349654e+03
1.657519e+03,2.345734e+03
1.660411e+03,2.342158e+03
1.663304e+03,2.355286e+03
1.666197e+03,2.328265e+03
1.669090e+03,2.335969e+03
1.671982e+03,2.324985e+03
1.674875e+03,2.319169e+03
1.677768e+03,2.321568e+03
1.680660e+03,2.319536e+03
1.683553e+03,2.301534e+03
1.686446e+03,2.297425e+03
1.689339e+03,2.297371e+03
1.692231e+03,2.287477e+03
1.695124e+03,2.295560e+03
1.698017e+03,2.287192e+03
1.700909e+03,2.285811e+03
1.703802e+03,2.270527e+03
1.706695e+03,2.277760e+03
1.709587e+03,2.263778e+03
1.712480e+03,2.253481e+03
1.715373e+03,2.269260e+03
1.718266e+03,2.258044e+03
1.721158e+03,2.245287e+03
1.724051e+03,2.230959e+03
1.726944e+03,2.236937e+03
1.729836e+03,2.222835e+03
1.732729e+03,2.213457e+03
1.735622e+03,2.216238e+03
1.738514e+03,2.205841e+03
1.741407e+03,2.203013e+03
1.744300e+03,2.199537e+03
1.747193e+03,2.184554e+03
1.750085e+03,2.195048e+03
1.752978e+03,2.191065e+03
1.755871e+03,2.182942e+03
1.758763e+03,2.176772e+03
1.761656e+03,2.177993e+03
1.764549e+03,2.173132e+03
1.767441e+03,2.158472e+03
1.770334e+03,2.146421e+03
1.773227e+03,2.167953e+03
1.776120e+03,2.139985e+03
1.779012e+03,2.143624e+03
1.781905e+03,2.159053e+03
1.784798e+03,2.130429e+03
1.787690e+03,2.133051e+03
1.790583e+03,2.104431e+03
1.793476e+03,2.126106e+03
1.796368e+03,2.132602e+03
1.799261e+03,2.108132e+03
1.802154e+03,2.100913e+03
1.805047e+03,2.084445e+03
1.807939e+03,2.087817e+03
1.810832e+03,2.092212e+03
1.813725e+03,2.085026e+03
1.816617e+03,2.079701e+03
1.819510e+03,2.086558e+03
1.822403e+03,2.069487e+03
1.825295e+03,2.069738e+03
1.828188e+03,2.051905e+03
1.831081e+03,2.053665e+03
1.833974e+03,2.051240e+03
1.836866e+03,2.016096e+03
1.839759e+03,2.017233e+03
1.842652e+03,2.035403e+03
1.845544e+03,2.042453e+03
1.848437e+03,2.028366e+03
1.851330e+03,2.014279e+03
1.854222e+03,2.009279e+03
1.857115e+03,2.013436e+03
1.860008e+03,1.998777e+03
1.862901e+03,1.996367e+03
1.865793e+03,1.996928e+03
1.868686e+03,1.985861e+03
1.871579e+03,1.964632e+03
1.874471e+03,1.968609e+03
1.877364e+03,1.957172e+03
1.880257e+03,1.958723e+03
1.883149e+03,1.948264e+03
1.886042e+03,1.947545e+03
1.888935e+03,1.953031e+03
1.891828e+03,1.944314e+03
1.894720e+03,1.935432e+03
1.897613e+03,1.943813e+03
1.900506e+03,1.902673e+03
1.903398e+03,1.921198e+03
1.906291e+03,1.901702e+03
1.909184e+03,1.919941e+03
1.912076e+03,1.892940e+03
1.914969e+03,1.907848e+03
1.917862e+03,1.887288e+03
1.920755e+03,1.877979e+03
1.923647e+03,1.883656e+03
1.926540e+03,1.892436e+03
1.929433e+03,1.869537e+03
1.932325e+03,1.860328e+03
1.935218e+03,1.864426e+03
1.938111e+03,1.874737e+03
1.941003e+03,1.852898e+03
1.943896e+03,1.842113e+03
1.946789e+03,1.864865e+03
1.949682e+03,1.831585e+03
1.952574e+03,1.823501e+03
1.955467e+03,1.823646e+03
1.958360e+03,1.831166e+03
1.961252e+03,1.815074e+03
1.964145e+03,1.805140e+03
1.967038e+03,1.810653e+03
1.969930e+03,1.799385e+03
1.972823e+03,1.805863e+03
1.975716e+03,1.792632e+03
1.978609e+03,1.779802e+03
1.981501e+03,1.802446e+03
1.984394e+03,1.775938e+03
1.987287e+03,1.780600e+03
1.990179e+03,1.758557e+03
1.993072e+03,1.759841e+03
1.995965e+03,1.754468e+03
1.998857e+03,1.750085e+03
2.001750e+03,1.747684e+03
2.004643e+03,1.744332e+03
2.007536e+03,1.745926e+03
2.010428e+03,1.724681e+03
2.013321e+03,1.727423e+03
2.016214e+03,1.716101e+03
2.019106e+03,1.724562e+03
2.021999e+03,1.712829e+03
2.024892e+03,1.711759e+03
2.027784e+03,1.702447e+03
2.030677e+03,1.690220e+03
2.033570e+03,1.686036e+03
2.036463e+03,1.686461e+03
2.039355e+03,1.684532e+03
2.042248e+03,1.667455e+03
2.045141e+03,1.673975e+03
2.048033e+03,1.674652e+03
2.050926e+03,1.663489e+03
2.053819e+03,1.640498e+03
2.056711e+03,1.637544e+03
2.059604e+03,1.625942e+03
2.062497e+03,1.626569e+03
2.065390e+03,1.639641e+03
2.068282e+03,1.650506e+03
2.071175e+03,1.615733e+03
2.074068e+03,1.629578e+03
2.076960e+03,1.619679e+03
2.079853e+03,1.609007e+03
2.082746e+03,1.611530e+03
2.085638e+03,1.612599e+03
2.088531e+03,1.598925e+03
2.091424e+03,1.580356e+03
2.094316e+03,1.574354e+03
2.097209e+03,1.572687e+03
2.100102e+03,1.558857e+03
2.102995e+03,1.549871e+03
2.105887e+03,1.545809e+03
2.108780e+03,1.561201e+03
2.111673e+03,1.560918e+03
2.114565e+03,1.559479e+03
2.117458e+03,1.517736e+03
2.120351e+03,1.546567e+03
2.123244e+03,1.538781e+03
2.126136e+03,1.532820e+03
2.129029e+03,1.522713e+03
2.131922e+03,1.511611e+03
2.134814e+03,1.519908e+03
2.137707e+03,1.503515e+03
2.140600e+03,1.511066e+03
2.143492e+03,1.507630e+03
2.146385e+03,1.494315e+03
2.149278e+03,1.480041e+03
2.152170e+03,1.489721e+03
2.155063e+03,1.478797e+03
2.157956e+03,1.475091e+03
2.160849e+03,1.479821e+03
2.163741e+03,1.469343e+03
2.166634e+03,1.452545e+03
2.169527e+03,1.445771e+03
2.172419e+03,1.452697e+03
2.175312e+03,1.459748e+03
2.178205e+03,1.439690e+03
2.181098e+03,1.436021e+03
2.183990e+03,1.431115e+03
2.186883e+03,1.422934e+03
2.189776e+03,1.442671e+03
2.192668e+03,1.422744e+03
2.195561e+03,1.408598e+03
2.198454e+03,1.413745e+03
2.201346e+03,1.410859e+03
2.204239e+03,1.402992e+03
2.207132e+03,1.402615e+03
2.210024e+03,1.383691e+03
2.212917e+03,1.381086e+03
2.215810e+03,1.392882e+03
2.218703e+03,1.383974e+03
2.221595e+03,1.376182e+03
2.224488e+03,1.356317e+03
2.227381e+03,1.354963e+03
2.230273e+03,1.358460e+03
2.233166e+03,1.357612e+03
2.236059e+03,1.360957e+03
2.238952e+03,1.350526e+03
2.241844e+03,1.335297e+03
2.244737e+03,1.332873e+03
2.247630e+03,1.323284e+03
2.250522e+03,1.327670e+03
2.253415e+03,1.325059e+03
2.256308e+03,1.310719e+03
2.259200e+03,1.313219e+03
2.262093e+03,1.295959e+03
2.264986e+03,1.294651e+03
2.267879e+03,1.295715e+03
2.270771e+03,1.293905e+03
2.273664e+03,1.278068e+03
2.276557e+03,1.288934e+03
2.279449e+03,1.278686e+03
2.282342e+03,1.290006e+03
2.285235e+03,1.275232e+03
2.288127e+03,1.271244e+03
2.291020e+03,1.267531e+03
2.293913e+03,1.249240e+03
2.296805e+03,1.246959e+03
2.299698e+03,1.260647e+03
2.302591e+03,1.245584e+03
2.305484e+03,1.229909e+03
2.308376e+03,1.245184e+03
2.311269e+03,1.232245e+03
2.314162e+03,1.238689e+03
2.317054e+03,1.216706e+03
2.319947e+03,1.241930e+03
2.322840e+03,1.227251e+03
2.325733e+03,1.237525e+03
2.328625e+03,1.224635e+03
2.331518e+03,1.206620e+03
2.334411e+03,1.198518e+03
2.337303e+03,1.207322e+03
2.340196e+03,1.188457e+03
2.343089e+03,1.193150e+03
2.345981e+03,1.206355e+03
2.348874e+03,1.189145e+03
2.351767e+03,1.184028e+03
2.354659e+03,1.187235e+03
2.357552e+03,1.183151e+03
2.360445e+03,1.169760e+03
2.363338e+03,1.168204e+03
2.366230e+03,1.167577e+03
2.369123e+03,1.152663e+03
2.372016e+03,1.167674e+03
2.374908e+03,1.160029e+03
2.377801e+03,1.145591e+03
2.380694e+03,1.133043e+03
2.383587e+03,1.139800e+03
2.386479e+03,1.130228e+03
2.389372e+03,1.141685e+03
2.392265e+03,1.135236e+03
2.395157e+03,1.112398e+03
2.398050e+03,1.136091e+03
2.400943e+03,1.119321e+03
2.403835e+03,1.113119e+03
2.406728e+03,1.111806e+03
2.409621e+03,1.092040e+03
2.412513e+03,1.101472e+03
2.415406e+03,1.107958e+03
2.418299e+03,1.103772e+03
2.421192e+03,1.107276e+03
2.424084e+03,1.100021e+03
2.426977e+03,1.072502e+03
2.429870e+03,1.074372e+03
2.432762e+03,1.079639e+03
2.435655e+03,1.067194e+03
2.438548e+03,1.073820e+03
2.441441e+03,1.077798e+03
2.444333e+03,1.066001e+03
2.447226e+03,1.049694e+03
2.450119e+03,1.054570e+03
2.453011e+03,1.055260e+03
2.455904e+03,1.041777e+03
2.458797e+03,1.055950e+03
2.461689e+03,1.052547e+03
2.464582e+03,1.035726e+03
2.467475e+03,1.053044e+03
2.470367e+03,1.041234e+03
2.473260e+03,1.032959e+03
2.476153e+03,1.029823e+03
2.479046e+03,1.049805e+03
2.481938e+03,1.028808e+03
2.484831e+03,1.024754e+03
2.487724e+03,1.015914e+03
2.490616e+03,1.002482e+03
2.493509e+03,1.003515e+03
2.496402e+03,1.008029e+03
2.499295e+03,1.010391e+03
2.502187e+03,9.953774e+02
2.505080e+03,1.007850e+03
2.507973e+03,9.970471e+02
2.510865e+03,1.005427e+03
2.513758e+03,1.000399e+03
2.516651e+03,9.883498e+02
2.519543e+03,9.936017e+02
2.522436e+03,9.960247e+02
2.525329e+03,9.648803e+02
2.528221e+03,9.817169e+02
2.531114e+03,9.718985e+02
2.534007e+03,9.672398e+02
2.536900e+03,9.681389e+02
2.539792e+03,9.552728e+02
2.542685e+03,9.841297e+02
2.545578e+03,9.517525e+02
2.548470e+03,9.570207e+02
2.551363e+03,9.450182e+02
2.554256e+03,9.466240e+02
2.557149e+03,9.547944e+02
2.560041e+03,9.655142e+02
2.562934e+03,9.464219e+02
2.565827e+03,9.335386e+02
2.568719e+03,9.572177e+02
2.571612e+03,9.474240e+02
2.574505e+03,9.585567e+02
2.577397e+03,9.274286e+02
2.580290e+03,9.407998e+02
2.583183e+03,9.296006e+02
2.586075e+03,9.287513e+02
2.588968e+03,9.096385e+02
2.591861e+03,9.152148e+02
2.594754e+03,9.139821e+02
2.597646e+03,9.136645e+02
2.600539e+03,8.942238e+02
2.603432e+03,9.085717e+02
2.606324e+03,9.204301e+02
2.609217e+03,9.124003e+02
2.612110e+03,8.891852e+02
2.615003e+03,8.856355e+02
2.617895e+03,8.977014e+02
2.620788e+03,8.918444e+02
2.623681e+03,9.016036e+02
2.626573e+03,8.960935e+02
2.629466e+03,8.970372e+02
2.632359e+03,8.799551e+02
2.635251e+03,8.778455e+02
2.638144e+03,8.922682e+02
2.641037e+03,8.607535e+02
2.643929e+03,8.677582e+02
2.646822e+03,8.612291e+02
2.649715e+03,8.581582e+02
2.652608e+03,8.707379e+02
2.655500e+03,8.557542e+02
2.658393e+03,8.608332e+02
2.661286e+03,8.443732e+02
2.664178e+03,8.485665e+02
2.667071e+03,8.617413e+02
2.669964e+03,8.515493e+02
2.672857e+03,8.526190e+02
2.675749e+03,8.386526e+02
2.678642e+03,8.473976e+02
2.681535e+03,8.497030e+02
2.684427e+03,8.462398e+02
2.687320e+03,8.457679e+02
2.690213e+03,8.314970e+02
2.693105e+03,8.369250e+02
2.695998e+03,8.411648e+02
2.698891e+03,8.164103e+02
2.701783e+03,8.390040e+02
2.704676e+03,8.352875e+02
2.707569e+03,8.384957e+02
2.710462e+03,8.223125e+02
2.713354e+03,8.019475e+02
2.716247e+03,8.084630e+02
2.719140e+03,8.282617e+02
2.722032e+03,8.106492e+02
2.724925e+03,8.115442e+02
2.727818e+03,7.892924e+02
2.730711e+03,7.937540e+02
2.733603e+03,8.253290e+02
2.736496e+03,8.002386e+02
2.739389e+03,8.022565e+02
2.742281e+03,8.010935e+02
2.745174e+03,7.995994e+02
2.748067e+03,8.048022e+02
2.750959e+03,7.926407e+02
2.753852e+03,7.869846e+02
2.756745e+03,7.804796e+02
2.759637e+03,7.845737e+02
2.762530e+03,7.606355e+02
2.765423e+03,7.660566e+02
2.768316e+03,7.807921e+02
2.771208e+03,7.649006e+02
2.774101e+03,7.903569e+02
2.776994e+03,7.747014e+02
2.779886e+03,7.657396e+02
2.782779e+03,7.786441e+02
2.785672e+03,7.659365e+02
2.788565e+03,7.637278e+02
2.791457e+03,7.736818e+02
2.794350e+03,7.791964e+02
2.797243e+03,7.462793e+02
2.800135e+03,7.751355e+02
2.803028e+03,7.688087e+02
2.805921e+03,7.710634e+02
2.808813e+03,7.438778e+02
2.811706e+03,7.748022e+02
2.814599e+03,7.472382e+02
2.817491e+03,7.751004e+02
2.820384e+03,7.495002e+02
2.823277e+03,7.656149e+02
2.826170e+03,7.606567e+02
2.829062e+03,7.411848e+02
2.831955e+03,7.579159e+02
2.834848e+03,7.377442e+02
2.837740e+03,7.509172e+02
2.840633e+03,7.411804e+02
2.843526e+03,7.632546e+02
2.846419e+03,7.372243e+02
2.849311e+03,7.616459e+02
2.852204e+03,7.517551e+02
2.855097e+03,7.534626e+02
2.857990e+03,7.625417e+02
2.860882e+03,7.613868e+02
2.863775e+03,7.513826e+02
2.866667e+03,7.598275e+02
2.869560e+03,7.567357e+02
2.872453e+03,7.505673e+02
2.875345e+03,7.524295e+02
2.878238e+03,7.506265e+02
2.881131e+03,7.537743e+02
2.884024e+03,7.576600e+02
2.886916e+03,7.647606e+02
2.889809e+03,7.787695e+02
2.892702e+03,7.581943e+02
2.895594e+03,7.763434e+02
2.898487e+03,7.700596e+02
2.901380e+03,7.470668e+02
2.904273e+03,7.593473e+02
2.907165e+03,7.551959e+02
2.910058e+03,7.524556e+02
2.912951e+03,7.540232e+02
2.915844e+03,7.425700e+02
2.918736e+03,7.243342e+02
2.921629e+03,7.487081e+02
2.924521e+03,7.360841e+02
2.927414e+03,7.194276e+02
2.930307e+03,7.250854e+02
2.933199e+03,7.151959e+02
2.936092e+03,7.096565e+02
2.938985e+03,7.205594e+02
2.941878e+03,7.157275e+02
2.944770e+03,7.110451e+02
2.947663e+03,7.118751e+02
2.950556e+03,7.065017e+02
2.953448e+03,7.059885e+02
2.956341e+03,7.214064e+02
2.959234e+03,7.317775e+02
2.962127e+03,7.030280e+02
2.965019e+03,7.090343e+02
2.967912e+03,6.961916e+02
2.970805e+03,6.859061e+02
2.973698e+03,6.731773e+02
2.976590e+03,6.702068e+02
2.979483e+03,6.841910e+02
2.982375e+03,6.752462e+02
2.985268e+03,6.747863e+02
2.988161e+03,6.818398e+02
2.991053e+03,6.621849e+02
2.993946e+03,6.440895e+02
2.996839e+03,6.811319e+02
2.999732e+03,6.544935e+02
3.002624e+03,6.591754e+02
3.005517e+03,6.514901e+02
3.008410e+03,6.537894e+02
3.011302e+03,6.685102e+02
3.014195e+03,6.580192e+02
3.017088e+03,6.554053e+02
3.019981e+03,6.735573e+02
3.022873e+03,6.664143e+02
3.025766e+03,6.834551e+02
3.028659e+03,6.517012e+02
3.031552e+03,6.334775e+02
3.034444e+03,6.718353e+02
3.037337e+03,6.254761e+02
3.040229e+03,6.462123e+02
3.043122e+03,6.497601e+02
3.046015e+03,6.372122e+02
3.048907e+03,6.273458e+02
3.051800e+03,6.258099e+02
3.054693e+03,6.609714e+02
3.057586e+03,6.476542e+02
3.060478e+03,6.360250e+02
3.063371e+03,6.575261e+02
3.066264e+03,6.280687e+02
3.069156e+03,6.114465e+02
3.072049e+03,6.663571e+02
3.074942e+03,6.608759e+02
3.077835e+03,6.459750e+02
3.080727e+03,6.279589e+02
3.083620e+03,6.220059e+02
3.086513e+03,6.581628e+02
3.089406e+03,6.528676e+02
3.092298e+03,6.501368e+02
3.095191e+03,6.097281e+02
3.098083e+03,6.339119e+02
3.100976e+03,6.646329e+02
3.103869e+03,6.002950e+02
3.106761e+03,6.259441e+02
3.109654e+03,6.452792e+02
3.112547e+03,6.309803e+02
3.115440e+03,6.444826e+02
3.118332e+03,6.279312e+02
3.121225e+03,6.431608e+02
3.124118e+03,6.237670e+02
3.127010e+03,6.472159e+02
3.129903e+03,6.237901e+02
3.132796e+03,6.445338e+02
3.135689e+03,6.218853e+02
3.138581e+03,6.508372e+02
3.141474e+03,6.524631e+02
3.144367e+03,6.424811e+02
3.147260e+03,5.912606e+02
3.150152e+03,6.724075e+02
3.153045e+03,6.229844e+02
3.155938e+03,6.432540e+02
3.158830e+03,6.484042e+02
3.161723e+03,6.384580e+02
3.164615e+03,6.375284e+02
3.167508e+03,6.744200e+02
3.170401e+03,6.299393e+02
3.173294e+03,6.259803e+02
3.176186e+03,6.226252e+02
3.179079e+03,6.382361e+02
3.181972e+03,6.360982e+02
3.184865e+03,6.296525e+02
3.187757e+03,6.550152e+02
3.190650e+03,5.963418e+02
3.193543e+03,6.593089e+02
3.196435e+03,6.526144e+02
3.199328e+03,6.687611e+02
3.200292e+03,6.873684e+02