File: RAMAN_data/06022023_r1/black fibre13.CSV
1.995979e+02,4.479898e+03
2.024906e+02,4.492495e+03
2.053833e+02,4.505945e+03
2.082760e+02,4.517264e+03
2.111687e+02,4.483802e+03
2.140614e+02,4.514106e+03
2.169541e+02,4.517745e+03
2.198468e+02,4.533519e+03
2.227395e+02,4.533687e+03
2.256322e+02,4.536108e+03
2.285249e+02,4.525520e+03
2.314176e+02,4.555792e+03
2.343103e+02,4.560997e+03
2.372030e+02,4.569813e+03
2.400957e+02,4.573714e+03
2.429884e+02,4.564633e+03
2.458811e+02,4.578142e+03
2.487738e+02,4.592560e+03
2.516665e+02,4.606892e+03
2.545592e+02,4.600698e+03
2.574519e+02,4.596215e+03
2.603446e+02,4.629664e+03
2.632373e+02,4.654623e+03
2.661300e+02,4.649423e+03
2.690227e+02,4.658811e+03
2.719154e+02,4.656104e+03
2.748081e+02,4.655351e+03
2.777008e+02,4.671862e+03
2.805935e+02,4.697329e+03
2.834862e+02,4.694790e+03
2.863789e+02,4.669531e+03
2.892716e+02,4.680440e+03
2.921643e+02,4.663508e+03
2.950570e+02,4.695424e+03
2.979497e+02,4.715843e+03
3.008424e+02,4.721562e+03
3.037351e+02,4.718989e+03
3.066278e+02,4.714842e+03
3.095205e+02,4.701139e+03
3.124132e+02,4.725553e+03
3.153059e+02,4.745888e+03
3.181986e+02,4.736298e+03
3.210913e+02,4.748956e+03
3.239840e+02,4.736717e+03
3.268767e+02,4.769654e+03
3.297694e+02,4.768070e+03
3.326621e+02,4.757581e+03
3.355548e+02,4.755271e+03
3.384475e+02,4.764089e+03
3.413402e+02,4.777313e+03
3.442329e+02,4.792362e+03
3.471256e+02,4.762293e+03
3.500183e+02,4.774460e+03
3.529110e+02,4.805642e+03
3.558037e+02,4.794111e+03
3.586964e+02,4.796076e+03
3.615891e+02,4.813688e+03
3.644818e+02,4.817257e+03
3.673745e+02,4.799097e+03
3.702672e+02,4.821515e+03
3.731599e+02,4.840742e+03
3.760526e+02,4.847276e+03
3.789453e+02,4.842761e+03
3.818380e+02,4.837237e+03
3.847307e+02,4.818809e+03
3.876234e+02,4.813368e+03
3.905161e+02,4.828771e+03
3.934088e+02,4.832675e+03
3.963015e+02,4.827366e+03
3.991942e+02,4.831647e+03
4.020869e+02,4.838701e+03
4.049796e+02,4.826628e+03
4.078723e+02,4.832488e+03
4.107650e+02,4.809696e+03
4.136577e+02,4.828070e+03
4.165504e+02,4.850938e+03
4.194431e+02,4.832359e+03
4.223358e+02,4.832112e+03
4.252285e+02,4.844792e+03
4.281212e+02,4.834984e+03
4.310139e+02,4.850484e+03
4.339066e+02,4.839866e+03
4.367993e+02,4.850565e+03
4.396920e+02,4.845057e+03
4.425847e+02,4.842554e+03
4.454774e+02,4.868384e+03
4.483701e+02,4.869536e+03
4.512628e+02,4.849706e+03
4.541555e+02,4.869406e+03
4.570482e+02,4.886774e+03
4.599409e+02,4.858089e+03
4.628336e+02,4.854831e+03
4.657263e+02,4.851356e+03
4.686190e+02,4.863507e+03
4.715117e+02,4.869112e+03
4.744044e+02,4.871979e+03
4.772971e+02,4.854701e+03
4.801898e+02,4.891438e+03
4.830825e+02,4.910506e+03
4.859752e+02,4.938021e+03
4.888679e+02,4.933192e+03
4.917606e+02,4.921021e+03
4.946533e+02,4.916230e+03
4.975460e+02,4.904102e+03
5.004387e+02,4.886670e+03
5.033314e+02,4.872454e+03
5.062241e+02,4.881290e+03
5.091168e+02,4.871396e+03
5.120095e+02,4.864584e+03
5.149022e+02,4.874235e+03
5.177949e+02,4.858189e+03
5.206876e+02,4.831758e+03
5.235803e+02,4.835613e+03
5.264730e+02,4.863667e+03
5.293657e+02,4.853822e+03
5.322584e+02,4.847212e+03
5.351511e+02,4.842890e+03
5.380438e+02,4.841251e+03
5.409365e+02,4.829393e+03
5.438292e+02,4.812321e+03
5.467219e+02,4.868426e+03
5.496146e+02,4.833086e+03
5.525073e+02,4.817109e+03
5.554000e+02,4.812140e+03
5.582927e+02,4.825830e+03
5.611854e+02,4.839520e+03
5.640781e+02,4.829405e+03
5.669708e+02,4.800819e+03
5.698635e+02,4.823476e+03
5.727562e+02,4.827580e+03
5.756489e+02,4.823457e+03
5.785416e+02,4.830326e+03
5.814343e+02,4.825173e+03
5.843270e+02,4.820071e+03
5.872197e+02,4.812722e+03
5.901124e+02,4.852904e+03
5.930051e+02,4.826047e+03
5.958978e+02,4.829314e+03
5.987905e+02,4.831966e+03
6.016832e+02,4.816329e+03
6.045759e+02,4.802771e+03
6.074686e+02,4.831564e+03
6.103613e+02,4.824542e+03
6.132540e+02,4.812852e+03
6.161467e+02,4.806770e+03
6.190394e+02,4.807245e+03
6.219321e+02,4.804412e+03
6.248248e+02,4.811192e+03
6.277175e+02,4.804104e+03
6.306102e+02,4.781703e+03
6.335029e+02,4.780603e+03
6.363956e+02,4.779396e+03
6.392883e+02,4.793206e+03
6.421810e+02,4.795407e+03
6.450737e+02,4.789376e+03
6.479664e+02,4.773482e+03
6.508591e+02,4.773198e+03
6.537518e+02,4.773297e+03
6.566445e+02,4.780579e+03
6.595372e+02,4.764332e+03
6.624299e+02,4.748557e+03
6.653226e+02,4.731349e+03
6.682153e+02,4.773760e+03
6.711080e+02,4.764131e+03
6.740007e+02,4.744717e+03
6.768934e+02,4.734306e+03
6.797861e+02,4.739967e+03
6.826788e+02,4.766592e+03
6.855715e+02,4.739679e+03
6.884642e+02,4.716618e+03
6.913569e+02,4.717706e+03
6.942496e+02,4.725672e+03
6.971423e+02,4.737025e+03
7.000350e+02,4.711297e+03
7.029277e+02,4.714320e+03
7.058204e+02,4.703125e+03
7.087131e+02,4.687552e+03
7.116058e+02,4.723112e+03
7.144985e+02,4.707882e+03
7.173912e+02,4.687612e+03
7.202839e+02,4.691472e+03
7.231766e+02,4.665923e+03
7.260693e+02,4.688811e+03
7.289620e+02,4.680036e+03
7.318547e+02,4.669524e+03
7.347474e+02,4.655355e+03
7.376401e+02,4.680327e+03
7.405328e+02,4.654350e+03
7.434255e+02,4.649920e+03
7.463182e+02,4.650551e+03
7.492109e+02,4.647075e+03
7.521036e+02,4.619439e+03
7.549963e+02,4.636248e+03
7.578890e+02,4.620727e+03
7.607817e+02,4.628759e+03
7.636744e+02,4.605222e+03
7.665671e+02,4.610883e+03
7.694598e+02,4.606717e+03
7.723525e+02,4.592761e+03
7.752452e+02,4.592535e+03
7.781379e+02,4.603065e+03
7.810306e+02,4.583664e+03
7.839233e+02,4.571878e+03
7.868160e+02,4.570724e+03
7.897087e+02,4.571639e+03
7.926014e+02,4.570385e+03
7.954941e+02,4.551428e+03
7.983868e+02,4.555919e+03
8.012795e+02,4.554248e+03
8.041722e+02,4.549694e+03
8.070649e+02,4.546492e+03
8.099576e+02,4.538516e+03
8.128503e+02,4.534362e+03
8.157430e+02,4.544643e+03
8.186357e+02,4.537280e+03
8.215284e+02,4.534847e+03
8.244211e+02,4.519175e+03
8.273138e+02,4.511377e+03
8.302065e+02,4.498937e+03
8.330992e+02,4.511089e+03
8.359919e+02,4.498125e+03
8.388846e+02,4.518497e+03
8.417773e+02,4.496749e+03
8.446700e+02,4.473155e+03
8.475627e+02,4.471390e+03
8.504554e+02,4.478817e+03
8.533481e+02,4.485011e+03
8.562408e+02,4.470361e+03
8.591335e+02,4.465791e+03
8.620262e+02,4.432949e+03
8.649189e+02,4.439020e+03
8.678116e+02,4.439204e+03
8.707043e+02,4.436508e+03
8.735970e+02,4.437282e+03
8.764897e+02,4.430095e+03
8.793824e+02,4.453408e+03
8.822751e+02,4.437130e+03
8.851678e+02,4.423031e+03
8.880605e+02,4.427009e+03
8.909532e+02,4.395304e+03
8.938459e+02,4.405253e+03
8.967386e+02,4.400290e+03
8.996313e+02,4.387981e+03
9.025240e+02,4.384926e+03
9.054167e+02,4.387166e+03
9.083094e+02,4.353350e+03
9.112021e+02,4.349051e+03
9.140948e+02,4.351111e+03
9.169875e+02,4.359656e+03
9.198802e+02,4.342163e+03
9.227729e+02,4.332432e+03
9.256656e+02,4.325123e+03
9.285583e+02,4.319795e+03
9.314510e+02,4.302589e+03
9.343438e+02,4.315321e+03
9.372365e+02,4.321195e+03
9.401292e+02,4.280458e+03
9.430219e+02,4.283992e+03
9.459146e+02,4.307123e+03
9.488073e+02,4.292740e+03
9.517000e+02,4.271756e+03
9.545927e+02,4.264100e+03
9.574854e+02,4.245218e+03
9.603781e+02,4.244321e+03
9.632708e+02,4.259691e+03
9.661635e+02,4.237567e+03
9.690562e+02,4.219265e+03
9.719489e+02,4.212493e+03
9.748416e+02,4.232213e+03
9.777343e+02,4.213425e+03
9.806270e+02,4.233144e+03
9.835197e+02,4.215353e+03
9.864124e+02,4.186955e+03
9.893051e+02,4.207818e+03
9.921978e+02,4.194490e+03
9.950905e+02,4.202365e+03
9.979832e+02,4.172960e+03
1.000876e+03,4.167705e+03
1.003769e+03,4.164676e+03
1.006661e+03,4.171065e+03
1.009554e+03,4.170129e+03
1.012447e+03,4.155978e+03
1.015339e+03,4.142907e+03
1.018232e+03,4.105662e+03
1.021125e+03,4.140355e+03
1.024017e+03,4.131000e+03
1.026910e+03,4.112320e+03
1.029803e+03,4.110005e+03
1.032696e+03,4.105612e+03
1.035588e+03,4.113730e+03
1.038481e+03,4.101356e+03
1.041374e+03,4.119053e+03
1.044266e+03,4.083501e+03
1.047159e+03,4.086809e+03
1.050052e+03,4.080122e+03
1.052944e+03,4.087562e+03
1.055837e+03,4.071739e+03
1.058730e+03,4.060673e+03
1.061623e+03,4.039821e+03
1.064515e+03,4.049895e+03
1.067408e+03,4.046621e+03
1.070301e+03,4.041378e+03
1.073193e+03,4.051181e+03
1.076086e+03,4.022927e+03
1.078979e+03,4.038846e+03
1.081871e+03,4.015871e+03
1.084764e+03,4.025618e+03
1.087657e+03,4.046952e+03
1.090550e+03,4.050422e+03
1.093442e+03,4.030278e+03
1.096335e+03,4.023810e+03
1.099228e+03,4.005723e+03
1.102120e+03,3.976953e+03
1.105013e+03,4.003415e+03
1.107906e+03,3.980295e+03
1.110798e+03,3.986201e+03
1.113691e+03,3.983626e+03
1.116584e+03,4.006000e+03
1.119477e+03,3.996139e+03
1.122369e+03,4.011616e+03
1.125262e+03,4.005122e+03
1.128155e+03,3.997012e+03
1.131047e+03,3.972679e+03
1.133940e+03,3.983982e+03
1.136833e+03,3.961778e+03
1.139725e+03,3.961806e+03
1.142618e+03,3.958335e+03
1.145511e+03,3.970867e+03
1.148404e+03,3.962977e+03
1.151296e+03,3.977281e+03
1.154189e+03,3.959460e+03
1.157082e+03,3.923222e+03
1.159974e+03,3.912025e+03
1.162867e+03,3.879348e+03
1.165760e+03,3.872638e+03
1.168652e+03,3.856597e+03
1.171545e+03,3.860425e+03
1.174438e+03,3.872779e+03
1.177331e+03,3.865883e+03
1.180223e+03,3.884426e+03
1.183116e+03,3.858952e+03
1.186009e+03,3.854044e+03
1.188901e+03,3.838328e+03
1.191794e+03,3.830228e+03
1.194687e+03,3.821218e+03
1.197579e+03,3.827308e+03
1.200472e+03,3.801299e+03
1.203365e+03,3.799429e+03
1.206258e+03,3.797102e+03
1.209150e+03,3.799663e+03
1.212043e+03,3.815504e+03
1.214936e+03,3.802945e+03
1.217828e+03,3.792347e+03
1.220721e+03,3.769890e+03
1.223614e+03,3.773662e+03
1.226506e+03,3.741992e+03
1.229399e+03,3.768592e+03
1.232292e+03,3.747695e+03
1.235185e+03,3.738862e+03
1.238077e+03,3.731547e+03
1.240970e+03,3.724738e+03
1.243863e+03,3.726947e+03
1.246755e+03,3.727648e+03
1.249648e+03,3.702487e+03
1.252541e+03,3.687065e+03
1.255433e+03,3.712772e+03
1.258326e+03,3.685300e+03
1.261219e+03,3.672330e+03
1.264112e+03,3.675280e+03
1.267004e+03,3.673828e+03
1.269897e+03,3.687559e+03
1.272790e+03,3.694975e+03
1.275682e+03,3.719259e+03
1.278575e+03,3.726375e+03
1.281468e+03,3.694209e+03
1.284360e+03,3.713907e+03
1.287253e+03,3.694186e+03
1.290146e+03,3.673763e+03
1.293039e+03,3.658126e+03
1.295931e+03,3.627206e+03
1.298824e+03,3.627526e+03
1.301717e+03,3.623312e+03
1.304609e+03,3.618315e+03
1.307502e+03,3.597895e+03
1.310395e+03,3.605191e+03
1.313287e+03,3.583870e+03
1.316180e+03,3.589715e+03
1.319073e+03,3.600371e+03
1.321966e+03,3.590773e+03
1.324858e+03,3.580839e+03
1.327751e+03,3.583939e+03
1.330644e+03,3.581548e+03
1.333536e+03,3.597793e+03
1.336429e+03,3.594472e+03
1.339322e+03,3.591340e+03
1.342214e+03,3.569954e+03
1.345107e+03,3.578138e+03
1.348000e+03,3.572146e+03
1.350893e+03,3.557563e+03
1.353785e+03,3.549759e+03
1.356678e+03,3.538647e+03
1.359571e+03,3.531174e+03
1.362463e+03,3.496771e+03
1.365356e+03,3.505455e+03
1.368249e+03,3.519016e+03
1.371141e+03,3.499229e+03
1.374034e+03,3.501013e+03
1.376927e+03,3.501432e+03
1.379820e+03,3.467101e+03
1.382712e+03,3.464892e+03
1.385605e+03,3.457571e+03
1.388498e+03,3.445680e+03
1.391390e+03,3.430300e+03
1.394283e+03,3.428807e+03
1.397176e+03,3.423609e+03
1.400068e+03,3.421330e+03
1.402961e+03,3.421740e+03
1.405854e+03,3.409223e+03
1.408747e+03,3.399606e+03
1.411639e+03,3.436804e+03
1.414532e+03,3.406671e+03
1.417425e+03,3.409540e+03
1.420317e+03,3.371700e+03
1.423210e+03,3.376421e+03
1.426103e+03,3.373867e+03
1.428995e+03,3.362551e+03
1.431888e+03,3.360300e+03
1.434781e+03,3.351840e+03
1.437674e+03,3.334904e+03
1.440566e+03,3.327323e+03
1.443459e+03,3.329045e+03
1.446352e+03,3.323652e+03
1.449244e+03,3.302191e+03
1.452137e+03,3.301440e+03
1.455030e+03,3.288620e+03
1.457922e+03,3.283807e+03
1.460815e+03,3.295173e+03
1.463708e+03,3.285944e+03
1.466601e+03,3.271675e+03
1.469493e+03,3.249488e+03
1.472386e+03,3.259630e+03
1.475279e+03,3.252135e+03
1.478171e+03,3.256345e+03
1.481064e+03,3.256375e+03
1.483957e+03,3.254115e+03
1.486849e+03,3.255164e+03
1.489742e+03,3.251648e+03
1.492635e+03,3.252738e+03
1.495528e+03,3.241078e+03
1.498420e+03,3.230601e+03
1.501313e+03,3.233939e+03
1.504206e+03,3.229847e+03
1.507098e+03,3.206827e+03
1.509991e+03,3.197961e+03
1.512884e+03,3.193428e+03
1.515776e+03,3.197445e+03
1.518669e+03,3.178086e+03
1.521562e+03,3.182803e+03
1.524455e+03,3.191754e+03
1.527347e+03,3.167263e+03
1.530240e+03,3.144073e+03
1.533133e+03,3.157390e+03
1.536025e+03,3.131952e+03
1.538918e+03,3.153568e+03
1.541811e+03,3.155009e+03
1.544703e+03,3.129458e+03
1.547596e+03,3.118148e+03
1.550489e+03,3.153313e+03
1.553382e+03,3.138719e+03
1.556274e+03,3.117378e+03
1.559167e+03,3.136947e+03
1.562060e+03,3.121346e+03
1.564952e+03,3.134521e+03
1.567845e+03,3.144604e+03
1.570738e+03,3.166277e+03
1.573630e+03,3.144893e+03
1.576523e+03,3.125417e+03
1.579416e+03,3.114480e+03
1.582309e+03,3.114045e+03
1.585201e+03,3.139453e+03
1.588094e+03,3.115676e+03
1.590987e+03,3.098427e+03
1.593879e+03,3.093400e+03
1.596772e+03,3.091098e+03
1.599665e+03,3.057074e+03
1.602557e+03,3.047010e+03
1.605450e+03,3.048948e+03
1.608343e+03,3.046952e+03
1.611236e+03,3.040374e+03
1.614128e+03,3.028494e+03
1.617021e+03,3.019322e+03
1.619914e+03,3.014802e+03
1.622806e+03,2.998334e+03
1.625699e+03,2.990292e+03
1.628592e+03,2.973888e+03
1.631484e+03,2.979873e+03
1.634377e+03,2.971097e+03
1.637270e+03,2.964033e+03
1.640163e+03,2.960882e+03
1.643055e+03,2.968816e+03
1.645948e+03,2.935195e+03
1.648841e+03,2.950194e+03
1.651733e+03,2.939457e+03
1.654626e+03,2.922554e+03
1.657519e+03,2.924262e+03
1.660411e+03,2.930064e+03
1.663304e+03,2.924761e+03
1.666197e+03,2.911667e+03
1.669090e+03,2.902604e+03
1.671982e+03,2.887565e+03
1.674875e+03,2.891167e+03
1.677768e+03,2.898345e+03
1.680660e+03,2.898945e+03
1.683553e+03,2.878556e+03
1.686446e+03,2.874591e+03
1.689339e+03,2.868975e+03
1.692231e+03,2.857882e+03
1.695124e+03,2.884161e+03
1.698017e+03,2.861553e+03
1.700909e+03,2.839535e+03
1.703802e+03,2.856761e+03
1.706695e+03,2.844125e+03
1.709587e+03,2.832555e+03
1.712480e+03,2.851094e+03
1.715373e+03,2.829589e+03
1.718266e+03,2.816618e+03
1.721158e+03,2.809610e+03
1.724051e+03,2.822289e+03
1.726944e+03,2.803214e+03
1.729836e+03,2.806294e+03
1.732729e+03,2.796324e+03
1.735622e+03,2.801157e+03
1.738514e+03,2.767393e+03
1.741407e+03,2.792003e+03
1.744300e+03,2.774132e+03
1.747193e+03,2.748004e+03
1.750085e+03,2.760792e+03
1.752978e+03,2.741164e+03
1.755871e+03,2.759163e+03
1.758763e+03,2.739678e+03
1.761656e+03,2.738403e+03
1.764549e+03,2.728583e+03
1.767441e+03,2.741655e+03
1.770334e+03,2.716180e+03
1.773227e+03,2.703091e+03
1.776120e+03,2.724271e+03
1.779012e+03,2.696452e+03
1.781905e+03,2.702246e+03
1.784798e+03,2.680241e+03
1.787690e+03,2.681087e+03
1.790583e+03,2.683992e+03
1.793476e+03,2.669558e+03
1.796368e+03,2.681610e+03
1.799261e+03,2.702511e+03
1.802154e+03,2.666350e+03
1.805047e+03,2.644128e+03
1.807939e+03,2.645765e+03
1.810832e+03,2.634412e+03
1.813725e+03,2.623958e+03
1.816617e+03,2.637434e+03
1.819510e+03,2.617628e+03
1.822403e+03,2.619709e+03
1.825295e+03,2.621827e+03
1.828188e+03,2.593740e+03
1.831081e+03,2.625001e+03
1.833974e+03,2.606548e+03
1.836866e+03,2.597576e+03
1.839759e+03,2.586453e+03
1.842652e+03,2.601078e+03
1.845544e+03,2.586699e+03
1.848437e+03,2.575247e+03
1.851330e+03,2.545055e+03
1.854222e+03,2.556178e+03
1.857115e+03,2.549360e+03
1.860008e+03,2.541468e+03
1.862901e+03,2.543570e+03
1.865793e+03,2.525183e+03
1.868686e+03,2.483786e+03
1.871579e+03,2.530208e+03
1.874471e+03,2.507057e+03
1.877364e+03,2.500017e+03
1.880257e+03,2.506972e+03
1.883149e+03,2.498382e+03
1.886042e+03,2.472006e+03
1.888935e+03,2.481091e+03
1.891828e+03,2.464627e+03
1.894720e+03,2.483504e+03
1.897613e+03,2.460349e+03
1.900506e+03,2.493496e+03
1.903398e+03,2.470475e+03
1.906291e+03,2.460804e+03
1.909184e+03,2.459859e+03
1.912076e+03,2.428687e+03
1.914969e+03,2.436937e+03
1.917862e+03,2.434159e+03
1.920755e+03,2.416198e+03
1.923647e+03,2.425015e+03
1.926540e+03,2.424044e+03
1.929433e+03,2.399651e+03
1.932325e+03,2.400247e+03
1.935218e+03,2.383096e+03
1.938111e+03,2.400027e+03
1.941003e+03,2.394309e+03
1.943896e+03,2.384299e+03
1.946789e+03,2.373503e+03
1.949682e+03,2.378414e+03
1.952574e+03,2.361309e+03
1.955467e+03,2.343284e+03
1.958360e+03,2.341699e+03
1.961252e+03,2.344926e+03
1.964145e+03,2.321326e+03
1.967038e+03,2.310394e+03
1.969930e+03,2.333985e+03
1.972823e+03,2.331006e+03
1.975716e+03,2.305859e+03
1.978609e+03,2.293985e+03
1.981501e+03,2.312387e+03
1.984394e+03,2.299871e+03
1.987287e+03,2.311438e+03
1.990179e+03,2.290664e+03
1.993072e+03,2.272680e+03
1.995965e+03,2.266833e+03
1.998857e+03,2.286517e+03
2.001750e+03,2.273407e+03
2.004643e+03,2.253387e+03
2.007536e+03,2.266304e+03
2.010428e+03,2.245945e+03
2.013321e+03,2.245956e+03
2.016214e+03,2.229677e+03
2.019106e+03,2.224340e+03
2.021999e+03,2.215628e+03
2.024892e+03,2.214237e+03
2.027784e+03,2.205757e+03
2.030677e+03,2.222564e+03
2.033570e+03,2.189942e+03
2.036463e+03,2.190114e+03
2.039355e+03,2.190089e+03
2.042248e+03,2.151504e+03
2.045141e+03,2.172295e+03
2.048033e+03,2.160676e+03
2.050926e+03,2.181618e+03
2.053819e+03,2.172004e+03
2.056711e+03,2.150030e+03
2.059604e+03,2.153433e+03
2.062497e+03,2.145100e+03
2.065390e+03,2.135482e+03
2.068282e+03,2.118947e+03
2.071175e+03,2.125724e+03
2.074068e+03,2.107029e+03
2.076960e+03,2.124789e+03
2.079853e+03,2.120500e+03
2.082746e+03,2.095633e+03
2.085638e+03,2.084786e+03
2.088531e+03,2.080269e+03
2.091424e+03,2.092002e+03
2.094316e+03,2.072787e+03
2.097209e+03,2.084639e+03
2.100102e+03,2.050451e+03
2.102995e+03,2.055944e+03
2.105887e+03,2.034060e+03
2.108780e+03,2.064148e+03
2.111673e+03,2.037588e+03
2.114565e+03,2.028651e+03
2.117458e+03,2.021686e+03
2.120351e+03,2.044311e+03
2.123244e+03,2.051442e+03
2.126136e+03,2.038334e+03
2.129029e+03,1.995455e+03
2.131922e+03,2.004607e+03
2.134814e+03,1.994687e+03
2.137707e+03,1.992031e+03
2.140600e+03,1.997848e+03
2.143492e+03,1.975045e+03
2.146385e+03,1.961371e+03
2.149278e+03,1.975438e+03
2.152170e+03,1.972831e+03
2.155063e+03,1.943465e+03
2.157956e+03,1.951008e+03
2.160849e+03,1.949508e+03
2.163741e+03,1.935505e+03
2.166634e+03,1.948763e+03
2.169527e+03,1.910733e+03
2.172419e+03,1.926559e+03
2.175312e+03,1.919916e+03
2.178205e+03,1.907798e+03
2.181098e+03,1.902538e+03
2.183990e+03,1.898091e+03
2.186883e+03,1.905039e+03
2.189776e+03,1.891451e+03
2.192668e+03,1.897001e+03
2.195561e+03,1.885817e+03
2.198454e+03,1.873358e+03
2.201346e+03,1.872565e+03
2.204239e+03,1.874942e+03
2.207132e+03,1.868656e+03
2.210024e+03,1.843088e+03
2.212917e+03,1.826710e+03
2.215810e+03,1.863525e+03
2.218703e+03,1.824904e+03
2.221595e+03,1.838613e+03
2.224488e+03,1.832224e+03
2.227381e+03,1.828912e+03
2.230273e+03,1.820561e+03
2.233166e+03,1.812391e+03
2.236059e+03,1.799089e+03
2.238952e+03,1.791565e+03
2.241844e+03,1.797647e+03
2.244737e+03,1.784973e+03
2.247630e+03,1.787372e+03
2.250522e+03,1.776351e+03
2.253415e+03,1.777276e+03
2.256308e+03,1.765151e+03
2.259200e+03,1.740197e+03
2.262093e+03,1.758086e+03
2.264986e+03,1.743942e+03
2.267879e+03,1.754398e+03
2.270771e+03,1.735866e+03
2.273664e+03,1.742145e+03
2.276557e+03,1.745385e+03
2.279449e+03,1.731152e+03
2.282342e+03,1.731741e+03
2.285235e+03,1.712528e+03
2.288127e+03,1.724499e+03
2.291020e+03,1.703283e+03
2.293913e+03,1.692985e+03
2.296805e+03,1.695074e+03
2.299698e+03,1.685415e+03
2.302591e+03,1.673042e+03
2.305484e+03,1.665659e+03
2.308376e+03,1.664716e+03
2.311269e+03,1.663005e+03
2.314162e+03,1.677363e+03
2.317054e+03,1.657535e+03
2.319947e+03,1.636885e+03
2.322840e+03,1.667272e+03
2.325733e+03,1.653104e+03
2.328625e+03,1.643848e+03
2.331518e+03,1.631674e+03
2.334411e+03,1.623191e+03
2.337303e+03,1.605829e+03
2.340196e+03,1.610887e+03
2.343089e+03,1.623585e+03
2.345981e+03,1.610271e+03
2.348874e+03,1.614628e+03
2.351767e+03,1.579508e+03
2.354659e+03,1.606062e+03
2.357552e+03,1.612026e+03
2.360445e+03,1.590199e+03
2.363338e+03,1.574613e+03
2.366230e+03,1.577908e+03
2.369123e+03,1.571924e+03
2.372016e+03,1.567887e+03
2.374908e+03,1.542840e+03
2.377801e+03,1.561056e+03
2.380694e+03,1.543907e+03
2.383587e+03,1.548383e+03
2.386479e+03,1.544716e+03
2.389372e+03,1.534426e+03
2.392265e+03,1.534829e+03
2.395157e+03,1.540029e+03
2.398050e+03,1.530093e+03
2.400943e+03,1.493850e+03
2.403835e+03,1.511592e+03
2.406728e+03,1.504766e+03
2.409621e+03,1.522129e+03
2.412513e+03,1.493759e+03
2.415406e+03,1.492486e+03
2.418299e+03,1.487559e+03
2.421192e+03,1.505231e+03
2.424084e+03,1.492075e+03
2.426977e+03,1.489488e+03
2.429870e+03,1.477551e+03
2.432762e+03,1.460772e+03
2.435655e+03,1.480935e+03
2.438548e+03,1.457493e+03
2.441441e+03,1.465414e+03
2.444333e+03,1.445616e+03
2.447226e+03,1.429195e+03
2.450119e+03,1.449590e+03
2.453011e+03,1.442895e+03
2.455904e+03,1.423529e+03
2.458797e+03,1.432408e+03
2.461689e+03,1.422242e+03
2.464582e+03,1.422068e+03
2.467475e+03,1.409482e+03
2.470367e+03,1.430528e+03
2.473260e+03,1.413566e+03
2.476153e+03,1.401047e+03
2.479046e+03,1.392316e+03
2.481938e+03,1.410282e+03
2.484831e+03,1.392432e+03
2.487724e+03,1.400409e+03
2.490616e+03,1.371664e+03
2.493509e+03,1.376259e+03
2.496402e+03,1.377995e+03
2.499295e+03,1.380680e+03
2.502187e+03,1.365360e+03
2.505080e+03,1.352345e+03
2.507973e+03,1.369350e+03
2.510865e+03,1.379202e+03
2.513758e+03,1.347066e+03
2.516651e+03,1.348252e+03
2.519543e+03,1.330499e+03
2.522436e+03,1.347463e+03
2.525329e+03,1.340029e+03
2.528221e+03,1.337320e+03
2.531114e+03,1.322334e+03
2.534007e+03,1.340332e+03
2.536900e+03,1.328471e+03
2.539792e+03,1.317008e+03
2.542685e+03,1.318397e+03
2.545578e+03,1.327685e+03
2.548470e+03,1.319405e+03
2.551363e+03,1.329069e+03
2.554256e+03,1.305486e+03
2.557149e+03,1.311030e+03
2.560041e+03,1.291228e+03
2.562934e+03,1.309460e+03
2.565827e+03,1.309684e+03
2.568719e+03,1.298462e+03
2.571612e+03,1.297157e+03
2.574505e+03,1.279560e+03
2.577397e+03,1.271221e+03
2.580290e+03,1.272046e+03
2.583183e+03,1.281606e+03
2.586075e+03,1.284649e+03
2.588968e+03,1.271510e+03
2.591861e+03,1.238350e+03
2.594754e+03,1.265108e+03
2.597646e+03,1.245464e+03
2.600539e+03,1.249578e+03
2.603432e+03,1.236986e+03
2.606324e+03,1.236425e+03
2.609217e+03,1.237068e+03
2.612110e+03,1.242237e+03
2.615003e+03,1.218987e+03
2.617895e+03,1.232789e+03
2.620788e+03,1.235242e+03
2.623681e+03,1.210076e+03
2.626573e+03,1.221607e+03
2.629466e+03,1.209802e+03
2.632359e+03,1.213744e+03
2.635251e+03,1.211222e+03
2.638144e+03,1.206553e+03
2.641037e+03,1.198614e+03
2.643929e+03,1.207367e+03
2.646822e+03,1.189019e+03
2.649715e+03,1.196116e+03
2.652608e+03,1.201238e+03
2.655500e+03,1.183648e+03
2.658393e+03,1.174992e+03
2.661286e+03,1.179701e+03
2.664178e+03,1.169405e+03
2.667071e+03,1.171188e+03
2.669964e+03,1.167649e+03
2.672857e+03,1.170741e+03
2.675749e+03,1.174890e+03
2.678642e+03,1.179786e+03
2.681535e+03,1.152721e+03
2.684427e+03,1.152135e+03
2.687320e+03,1.161535e+03
2.690213e+03,1.149892e+03
2.693105e+03,1.146872e+03
2.695998e+03,1.140660e+03
2.698891e+03,1.152258e+03
2.701783e+03,1.136373e+03
2.704676e+03,1.129709e+03
2.707569e+03,1.142752e+03
2.710462e+03,1.124803e+03
2.713354e+03,1.116056e+03
2.716247e+03,1.131577e+03
2.719140e+03,1.137694e+03
2.722032e+03,1.116623e+03
2.724925e+03,1.117464e+03
2.727818e+03,1.111845e+03
2.730711e+03,1.121262e+03
2.733603e+03,1.125185e+03
2.736496e+03,1.103611e+03
2.739389e+03,1.106712e+03
2.742281e+03,1.094567e+03
2.745174e+03,1.102883e+03
2.748067e+03,1.091575e+03
2.750959e+03,1.093690e+03
2.753852e+03,1.087575e+03
2.756745e+03,1.065438e+03
2.759637e+03,1.057998e+03
2.762530e+03,1.090945e+03
2.765423e+03,1.092289e+03
2.768316e+03,1.059712e+03
2.771208e+03,1.063588e+03
2.774101e+03,1.061882e+03
2.776994e+03,1.069261e+03
2.779886e+03,1.053687e+03
2.782779e+03,1.061093e+03
2.785672e+03,1.069156e+03
2.788565e+03,1.034375e+03
2.791457e+03,1.066773e+03
2.794350e+03,1.035803e+03
2.797243e+03,1.028560e+03
2.800135e+03,1.058492e+03
2.803028e+03,1.050889e+03
2.805921e+03,1.023958e+03
2.808813e+03,1.030911e+03
2.811706e+03,1.039387e+03
2.814599e+03,1.047512e+03
2.817491e+03,1.028697e+03
2.820384e+03,1.023281e+03
2.823277e+03,1.038823e+03
2.826170e+03,1.023987e+03
2.829062e+03,1.017648e+03
2.831955e+03,1.004908e+03
2.834848e+03,1.039140e+03
2.837740e+03,1.021141e+03
2.840633e+03,1.019466e+03
2.843526e+03,1.025544e+03
2.846419e+03,1.008923e+03
2.849311e+03,1.003155e+03
2.852204e+03,1.013504e+03
2.855097e+03,1.009881e+03
2.857990e+03,1.028493e+03
2.860882e+03,1.020884e+03
2.863775e+03,1.009438e+03
2.866667e+03,1.013338e+03
2.869560e+03,1.033614e+03
2.872453e+03,1.001696e+03
2.875345e+03,1.025186e+03
2.878238e+03,1.005539e+03
2.881131e+03,9.953275e+02
2.884024e+03,1.031446e+03
2.886916e+03,1.013568e+03
2.889809e+03,1.016013e+03
2.892702e+03,1.025359e+03
2.895594e+03,1.027680e+03
2.898487e+03,1.024435e+03
2.901380e+03,1.014063e+03
2.904273e+03,1.005362e+03
2.907165e+03,9.958317e+02
2.910058e+03,9.660380e+02
2.912951e+03,1.007645e+03
2.915844e+03,1.000477e+03
2.918736e+03,9.816135e+02
2.921629e+03,9.754457e+02
2.924521e+03,9.722059e+02
2.927414e+03,9.874114e+02
2.930307e+03,9.617418e+02
2.933199e+03,9.799583e+02
2.936092e+03,9.767186e+02
2.938985e+03,9.520897e+02
2.941878e+03,9.554789e+02
2.944770e+03,9.542120e+02
2.947663e+03,9.740748e+02
2.950556e+03,9.853306e+02
2.953448e+03,9.564163e+02
2.956341e+03,9.711757e+02
2.959234e+03,9.655096e+02
2.962127e+03,9.358350e+02
2.965019e+03,9.394483e+02
2.967912e+03,9.555822e+02
2.970805e+03,9.236985e+02
2.973698e+03,9.288438e+02
2.976590e+03,9.413359e+02
2.979483e+03,9.195190e+02
2.982375e+03,9.258709e+02
2.985268e+03,9.142696e+02
2.988161e+03,9.230758e+02
2.991053e+03,9.164550e+02
2.993946e+03,9.011044e+02
2.996839e+03,9.045379e+02
2.999732e+03,8.966585e+02
3.002624e+03,8.982717e+02
3.005517e+03,8.778766e+02
3.008410e+03,8.993985e+02
3.011302e+03,9.246876e+02
3.014195e+03,9.002944e+02
3.017088e+03,9.002407e+02
3.019981e+03,8.817627e+02
3.022873e+03,8.999057e+02
3.025766e+03,8.924872e+02
3.028659e+03,8.604128e+02
3.031552e+03,8.738491e+02
3.034444e+03,8.568500e+02
3.037337e+03,8.824467e+02
3.040229e+03,8.878237e+02
3.043122e+03,8.890687e+02
3.046015e+03,8.886346e+02
3.048907e+03,8.564562e+02
3.051800e+03,8.747731e+02
3.054693e+03,8.803708e+02
3.057586e+03,8.874537e+02
3.060478e+03,9.025898e+02
3.063371e+03,8.881619e+02
3.066264e+03,8.432108e+02
3.069156e+03,8.894724e+02
3.072049e+03,8.581478e+02
3.074942e+03,8.690715e+02
3.077835e+03,8.561943e+02
3.080727e+03,8.527884e+02
3.083620e+03,8.679606e+02
3.086513e+03,8.739966e+02
3.089406e+03,8.926956e+02
3.092298e+03,8.477175e+02
3.095191e+03,8.738760e+02
3.098083e+03,8.776879e+02
3.100976e+03,8.959915e+02
3.103869e+03,8.521489e+02
3.106761e+03,8.373752e+02
3.109654e+03,8.631566e+02
3.112547e+03,8.465369e+02
3.115440e+03,8.906517e+02
3.118332e+03,8.707853e+02
3.121225e+03,8.764819e+02
3.124118e+03,8.412292e+02
3.127010e+03,8.480764e+02
3.129903e+03,8.413977e+02
3.132796e+03,8.584691e+02
3.135689e+03,8.364913e+02
3.138581e+03,8.966003e+02
3.141474e+03,8.433109e+02
3.144367e+03,8.631904e+02
3.147260e+03,8.405040e+02
3.150152e+03,8.719484e+02
3.153045e+03,8.074542e+02
3.155938e+03,8.866724e+02
3.158830e+03,8.285242e+02
3.161723e+03,8.790559e+02
3.164615e+03,8.791957e+02
3.167508e+03,8.732154e+02
3.170401e+03,8.529774e+02
3.173294e+03,8.473422e+02
3.176186e+03,8.473027e+02
3.179079e+03,8.830023e+02
3.181972e+03,8.677817e+02
3.184865e+03,8.060384e+02
3.187757e+03,8.617346e+02
3.190650e+03,8.462291e+02
3.193543e+03,8.471628e+02
3.196435e+03,8.774448e+02
3.199328e+03,8.950117e+02
3.200292e+03,9.063459e+02