File: RAMAN_data/06022023_r1/black fibre2.CSV
1.995979e+02,5.611044e+03
2.024906e+02,5.602796e+03
2.053833e+02,5.619127e+03
2.082760e+02,5.622722e+03
2.111687e+02,5.630265e+03
2.140614e+02,5.639693e+03
2.169541e+02,5.624979e+03
2.198468e+02,5.636888e+03
2.227395e+02,5.637043e+03
2.256322e+02,5.642863e+03
2.285249e+02,5.634157e+03
2.314176e+02,5.650190e+03
2.343103e+02,5.673888e+03
2.372030e+02,5.676633e+03
2.400957e+02,5.663210e+03
2.429884e+02,5.681021e+03
2.458811e+02,5.664963e+03
2.487738e+02,5.684265e+03
2.516665e+02,5.701117e+03
2.545592e+02,5.689322e+03
2.574519e+02,5.699737e+03
2.603446e+02,5.731036e+03
2.632373e+02,5.735711e+03
2.661300e+02,5.726398e+03
2.690227e+02,5.739762e+03
2.719154e+02,5.754314e+03
2.748081e+02,5.723088e+03
2.777008e+02,5.743718e+03
2.805935e+02,5.748392e+03
2.834862e+02,5.750703e+03
2.863789e+02,5.726444e+03
2.892716e+02,5.755794e+03
2.921643e+02,5.769337e+03
2.950570e+02,5.750835e+03
2.979497e+02,5.742607e+03
3.008424e+02,5.743501e+03
3.037351e+02,5.758809e+03
3.066278e+02,5.765948e+03
3.095205e+02,5.765909e+03
3.124132e+02,5.768113e+03
3.153059e+02,5.763467e+03
3.181986e+02,5.779186e+03
3.210913e+02,5.791614e+03
3.239840e+02,5.786795e+03
3.268767e+02,5.767832e+03
3.297694e+02,5.766009e+03
3.326621e+02,5.787095e+03
3.355548e+02,5.769911e+03
3.384475e+02,5.766715e+03
3.413402e+02,5.775344e+03
3.442329e+02,5.764687e+03
3.471256e+02,5.767844e+03
3.500183e+02,5.785069e+03
3.529110e+02,5.771759e+03
3.558037e+02,5.770611e+03
3.586964e+02,5.781140e+03
3.615891e+02,5.790409e+03
3.644818e+02,5.781059e+03
3.673745e+02,5.766700e+03
3.702672e+02,5.766125e+03
3.731599e+02,5.795261e+03
3.760526e+02,5.819807e+03
3.789453e+02,5.815378e+03
3.818380e+02,5.788823e+03
3.847307e+02,5.762189e+03
3.876234e+02,5.756037e+03
3.905161e+02,5.777612e+03
3.934088e+02,5.786411e+03
3.963015e+02,5.751761e+03
3.991942e+02,5.768936e+03
4.020869e+02,5.774058e+03
4.049796e+02,5.734886e+03
4.078723e+02,5.762180e+03
4.107650e+02,5.754268e+03
4.136577e+02,5.742551e+03
4.165504e+02,5.740260e+03
4.194431e+02,5.734345e+03
4.223358e+02,5.733768e+03
4.252285e+02,5.748567e+03
4.281212e+02,5.748784e+03
4.310139e+02,5.747603e+03
4.339066e+02,5.745894e+03
4.367993e+02,5.725355e+03
4.396920e+02,5.734667e+03
4.425847e+02,5.735789e+03
4.454774e+02,5.724265e+03
4.483701e+02,5.740877e+03
4.512628e+02,5.725830e+03
4.541555e+02,5.742291e+03
4.570482e+02,5.720095e+03
4.599409e+02,5.699050e+03
4.628336e+02,5.697939e+03
4.657263e+02,5.695176e+03
4.686190e+02,5.713338e+03
4.715117e+02,5.683308e+03
4.744044e+02,5.691723e+03
4.772971e+02,5.666840e+03
4.801898e+02,5.663791e+03
4.830825e+02,5.689007e+03
4.859752e+02,5.695946e+03
4.888679e+02,5.694322e+03
4.917606e+02,5.668644e+03
4.946533e+02,5.672572e+03
4.975460e+02,5.659026e+03
5.004387e+02,5.673198e+03
5.033314e+02,5.638798e+03
5.062241e+02,5.661942e+03
5.091168e+02,5.654007e+03
5.120095e+02,5.657487e+03
5.149022e+02,5.661575e+03
5.177949e+02,5.647541e+03
5.206876e+02,5.611659e+03
5.235803e+02,5.631629e+03
5.264730e+02,5.597299e+03
5.293657e+02,5.603268e+03
5.322584e+02,5.585913e+03
5.351511e+02,5.591448e+03
5.380438e+02,5.577161e+03
5.409365e+02,5.575077e+03
5.438292e+02,5.593087e+03
5.467219e+02,5.582543e+03
5.496146e+02,5.549347e+03
5.525073e+02,5.541916e+03
5.554000e+02,5.549829e+03
5.582927e+02,5.550745e+03
5.611854e+02,5.536602e+03
5.640781e+02,5.530584e+03
5.669708e+02,5.524013e+03
5.698635e+02,5.523236e+03
5.727562e+02,5.505055e+03
5.756489e+02,5.514591e+03
5.785416e+02,5.506704e+03
5.814343e+02,5.511588e+03
5.843270e+02,5.473005e+03
5.872197e+02,5.484920e+03
5.901124e+02,5.498753e+03
5.930051e+02,5.465283e+03
5.958978e+02,5.471004e+03
5.987905e+02,5.485909e+03
6.016832e+02,5.466522e+03
6.045759e+02,5.447314e+03
6.074686e+02,5.479539e+03
6.103613e+02,5.445874e+03
6.132540e+02,5.448857e+03
6.161467e+02,5.418213e+03
6.190394e+02,5.402058e+03
6.219321e+02,5.419898e+03
6.248248e+02,5.437210e+03
6.277175e+02,5.417613e+03
6.306102e+02,5.393088e+03
6.335029e+02,5.412429e+03
6.363956e+02,5.387928e+03
6.392883e+02,5.380252e+03
6.421810e+02,5.355669e+03
6.450737e+02,5.350319e+03
6.479664e+02,5.341753e+03
6.508591e+02,5.355590e+03
6.537518e+02,5.332522e+03
6.566445e+02,5.334920e+03
6.595372e+02,5.321312e+03
6.624299e+02,5.310997e+03
6.653226e+02,5.296498e+03
6.682153e+02,5.294654e+03
6.711080e+02,5.295368e+03
6.740007e+02,5.276307e+03
6.768934e+02,5.290447e+03
6.797861e+02,5.267078e+03
6.826788e+02,5.277462e+03
6.855715e+02,5.275275e+03
6.884642e+02,5.231010e+03
6.913569e+02,5.223250e+03
6.942496e+02,5.232804e+03
6.971423e+02,5.225495e+03
7.000350e+02,5.224557e+03
7.029277e+02,5.196589e+03
7.058204e+02,5.192062e+03
7.087131e+02,5.185018e+03
7.116058e+02,5.179704e+03
7.144985e+02,5.165729e+03
7.173912e+02,5.175522e+03
7.202839e+02,5.160795e+03
7.231766e+02,5.159119e+03
7.260693e+02,5.151880e+03
7.289620e+02,5.154097e+03
7.318547e+02,5.124746e+03
7.347474e+02,5.116897e+03
7.376401e+02,5.102799e+03
7.405328e+02,5.106075e+03
7.434255e+02,5.072892e+03
7.463182e+02,5.108756e+03
7.492109e+02,5.099612e+03
7.521036e+02,5.060467e+03
7.549963e+02,5.067259e+03
7.578890e+02,5.041330e+03
7.607817e+02,5.060259e+03
7.636744e+02,5.044747e+03
7.665671e+02,5.035211e+03
7.694598e+02,5.012285e+03
7.723525e+02,4.987180e+03
7.752452e+02,4.981150e+03
7.781379e+02,4.999430e+03
7.810306e+02,4.994368e+03
7.839233e+02,4.990375e+03
7.868160e+02,4.956176e+03
7.897087e+02,4.958228e+03
7.926014e+02,4.962119e+03
7.954941e+02,4.952163e+03
7.983868e+02,4.927842e+03
8.012795e+02,4.918323e+03
8.041722e+02,4.893370e+03
8.070649e+02,4.905859e+03
8.099576e+02,4.907227e+03
8.128503e+02,4.878351e+03
8.157430e+02,4.876662e+03
8.186357e+02,4.843507e+03
8.215284e+02,4.882393e+03
8.244211e+02,4.872200e+03
8.273138e+02,4.867891e+03
8.302065e+02,4.830496e+03
8.330992e+02,4.857576e+03
8.359919e+02,4.827954e+03
8.388846e+02,4.832521e+03
8.417773e+02,4.836761e+03
8.446700e+02,4.804817e+03
8.475627e+02,4.779797e+03
8.504554e+02,4.769891e+03
8.533481e+02,4.785222e+03
8.562408e+02,4.793788e+03
8.591335e+02,4.758088e+03
8.620262e+02,4.740636e+03
8.649189e+02,4.743438e+03
8.678116e+02,4.722480e+03
8.707043e+02,4.744696e+03
8.735970e+02,4.722128e+03
8.764897e+02,4.706806e+03
8.793824e+02,4.688796e+03
8.822751e+02,4.694515e+03
8.851678e+02,4.716382e+03
8.880605e+02,4.681799e+03
8.909532e+02,4.647925e+03
8.938459e+02,4.675090e+03
8.967386e+02,4.658305e+03
8.996313e+02,4.655481e+03
9.025240e+02,4.650373e+03
9.054167e+02,4.615830e+03
9.083094e+02,4.608214e+03
9.112021e+02,4.601399e+03
9.140948e+02,4.594318e+03
9.169875e+02,4.605817e+03
9.198802e+02,4.567509e+03
9.227729e+02,4.544565e+03
9.256656e+02,4.553540e+03
9.285583e+02,4.546911e+03
9.314510e+02,4.545658e+03
9.343438e+02,4.542017e+03
9.372365e+02,4.535406e+03
9.401292e+02,4.510531e+03
9.430219e+02,4.494107e+03
9.459146e+02,4.488778e+03
9.488073e+02,4.487997e+03
9.517000e+02,4.483531e+03
9.545927e+02,4.460310e+03
9.574854e+02,4.441174e+03
9.603781e+02,4.461134e+03
9.632708e+02,4.446053e+03
9.661635e+02,4.406163e+03
9.690562e+02,4.408056e+03
9.719489e+02,4.391026e+03
9.748416e+02,4.417946e+03
9.777343e+02,4.409032e+03
9.806270e+02,4.411486e+03
9.835197e+02,4.364060e+03
9.864124e+02,4.371339e+03
9.893051e+02,4.359856e+03
9.921978e+02,4.361893e+03
9.950905e+02,4.354863e+03
9.979832e+02,4.357057e+03
1.000876e+03,4.333043e+03
1.003769e+03,4.305243e+03
1.006661e+03,4.328023e+03
1.009554e+03,4.308390e+03
1.012447e+03,4.296544e+03
1.015339e+03,4.270055e+03
1.018232e+03,4.274282e+03
1.021125e+03,4.269883e+03
1.024017e+03,4.271135e+03
1.026910e+03,4.256618e+03
1.029803e+03,4.241704e+03
1.032696e+03,4.248073e+03
1.035588e+03,4.248190e+03
1.038481e+03,4.232276e+03
1.041374e+03,4.225746e+03
1.044266e+03,4.202923e+03
1.047159e+03,4.187882e+03
1.050052e+03,4.200436e+03
1.052944e+03,4.197482e+03
1.055837e+03,4.192085e+03
1.058730e+03,4.181132e+03
1.061623e+03,4.152989e+03
1.064515e+03,4.147265e+03
1.067408e+03,4.150095e+03
1.070301e+03,4.160850e+03
1.073193e+03,4.156846e+03
1.076086e+03,4.124213e+03
1.078979e+03,4.117243e+03
1.081871e+03,4.130017e+03
1.084764e+03,4.134391e+03
1.087657e+03,4.143525e+03
1.090550e+03,4.109271e+03
1.093442e+03,4.099640e+03
1.096335e+03,4.099732e+03
1.099228e+03,4.074454e+03
1.102120e+03,4.065871e+03
1.105013e+03,4.047123e+03
1.107906e+03,4.058014e+03
1.110798e+03,4.065765e+03
1.113691e+03,4.040127e+03
1.116584e+03,4.054377e+03
1.119477e+03,4.059960e+03
1.122369e+03,4.049606e+03
1.125262e+03,4.016214e+03
1.128155e+03,4.015720e+03
1.131047e+03,4.006655e+03
1.133940e+03,4.009050e+03
1.136833e+03,3.997523e+03
1.139725e+03,3.966550e+03
1.142618e+03,3.980854e+03
1.145511e+03,3.972546e+03
1.148404e+03,3.983949e+03
1.151296e+03,3.962230e+03
1.154189e+03,3.966225e+03
1.157082e+03,3.945914e+03
1.159974e+03,3.925385e+03
1.162867e+03,3.924985e+03
1.165760e+03,3.895737e+03
1.168652e+03,3.880252e+03
1.171545e+03,3.882772e+03
1.174438e+03,3.862919e+03
1.177331e+03,3.877773e+03
1.180223e+03,3.865927e+03
1.183116e+03,3.873333e+03
1.186009e+03,3.858159e+03
1.188901e+03,3.813356e+03
1.191794e+03,3.824982e+03
1.194687e+03,3.824899e+03
1.197579e+03,3.821351e+03
1.200472e+03,3.793408e+03
1.203365e+03,3.797643e+03
1.206258e+03,3.790218e+03
1.209150e+03,3.799885e+03
1.212043e+03,3.795425e+03
1.214936e+03,3.774572e+03
1.217828e+03,3.749621e+03
1.220721e+03,3.743911e+03
1.223614e+03,3.753863e+03
1.226506e+03,3.743125e+03
1.229399e+03,3.729228e+03
1.232292e+03,3.723543e+03
1.235185e+03,3.703845e+03
1.238077e+03,3.721950e+03
1.240970e+03,3.731020e+03
1.243863e+03,3.693047e+03
1.246755e+03,3.679223e+03
1.249648e+03,3.691662e+03
1.252541e+03,3.669176e+03
1.255433e+03,3.657641e+03
1.258326e+03,3.653312e+03
1.261219e+03,3.658658e+03
1.264112e+03,3.636211e+03
1.267004e+03,3.633918e+03
1.269897e+03,3.643078e+03
1.272790e+03,3.657974e+03
1.275682e+03,3.654455e+03
1.278575e+03,3.648642e+03
1.281468e+03,3.638931e+03
1.284360e+03,3.620705e+03
1.287253e+03,3.626293e+03
1.290146e+03,3.622115e+03
1.293039e+03,3.603988e+03
1.295931e+03,3.594485e+03
1.298824e+03,3.559471e+03
1.301717e+03,3.564629e+03
1.304609e+03,3.569875e+03
1.307502e+03,3.565156e+03
1.310395e+03,3.542153e+03
1.313287e+03,3.539322e+03
1.316180e+03,3.551051e+03
1.319073e+03,3.538501e+03
1.321966e+03,3.518716e+03
1.324858e+03,3.536540e+03
1.327751e+03,3.499672e+03
1.330644e+03,3.502070e+03
1.333536e+03,3.508412e+03
1.336429e+03,3.505580e+03
1.339322e+03,3.520879e+03
1.342214e+03,3.490563e+03
1.345107e+03,3.498503e+03
1.348000e+03,3.491134e+03
1.350893e+03,3.466227e+03
1.353785e+03,3.475497e+03
1.356678e+03,3.446002e+03
1.359571e+03,3.425380e+03
1.362463e+03,3.449023e+03
1.365356e+03,3.433595e+03
1.368249e+03,3.436971e+03
1.371141e+03,3.430171e+03
1.374034e+03,3.424113e+03
1.376927e+03,3.406596e+03
1.379820e+03,3.410279e+03
1.382712e+03,3.397727e+03
1.385605e+03,3.392305e+03
1.388498e+03,3.380905e+03
1.391390e+03,3.350870e+03
1.394283e+03,3.346353e+03
1.397176e+03,3.370017e+03
1.400068e+03,3.345169e+03
1.402961e+03,3.336431e+03
1.405854e+03,3.327915e+03
1.408747e+03,3.325306e+03
1.411639e+03,3.337551e+03
1.414532e+03,3.318759e+03
1.417425e+03,3.298507e+03
1.420317e+03,3.305274e+03
1.423210e+03,3.303785e+03
1.426103e+03,3.283757e+03
1.428995e+03,3.283859e+03
1.431888e+03,3.280914e+03
1.434781e+03,3.260568e+03
1.437674e+03,3.251530e+03
1.440566e+03,3.242594e+03
1.443459e+03,3.247813e+03
1.446352e+03,3.237989e+03
1.449244e+03,3.231488e+03
1.452137e+03,3.227838e+03
1.455030e+03,3.219187e+03
1.457922e+03,3.213777e+03
1.460815e+03,3.211280e+03
1.463708e+03,3.219835e+03
1.466601e+03,3.192398e+03
1.469493e+03,3.172178e+03
1.472386e+03,3.178458e+03
1.475279e+03,3.171065e+03
1.478171e+03,3.161164e+03
1.481064e+03,3.164936e+03
1.483957e+03,3.160110e+03
1.486849e+03,3.143482e+03
1.489742e+03,3.140469e+03
1.492635e+03,3.148460e+03
1.495528e+03,3.136431e+03
1.498420e+03,3.129093e+03
1.501313e+03,3.094746e+03
1.504206e+03,3.120246e+03
1.507098e+03,3.115362e+03
1.509991e+03,3.085688e+03
1.512884e+03,3.102181e+03
1.515776e+03,3.095862e+03
1.518669e+03,3.085214e+03
1.521562e+03,3.087618e+03
1.524455e+03,3.076269e+03
1.527347e+03,3.062519e+03
1.530240e+03,3.058747e+03
1.533133e+03,3.042418e+03
1.536025e+03,3.048293e+03
1.538918e+03,3.039690e+03
1.541811e+03,3.030434e+03
1.544703e+03,3.015526e+03
1.547596e+03,3.029542e+03
1.550489e+03,3.031996e+03
1.553382e+03,3.031948e+03
1.556274e+03,3.026532e+03
1.559167e+03,3.017571e+03
1.562060e+03,3.011264e+03
1.564952e+03,3.004026e+03
1.567845e+03,3.004620e+03
1.570738e+03,3.005692e+03
1.573630e+03,3.004727e+03
1.576523e+03,2.976045e+03
1.579416e+03,3.000913e+03
1.582309e+03,2.980904e+03
1.585201e+03,3.000022e+03
1.588094e+03,2.969809e+03
1.590987e+03,2.943871e+03
1.593879e+03,2.948747e+03
1.596772e+03,2.944039e+03
1.599665e+03,2.928983e+03
1.602557e+03,2.936001e+03
1.605450e+03,2.923998e+03
1.608343e+03,2.908693e+03
1.611236e+03,2.902990e+03
1.614128e+03,2.900383e+03
1.617021e+03,2.900670e+03
1.619914e+03,2.893503e+03
1.622806e+03,2.868920e+03
1.625699e+03,2.884574e+03
1.628592e+03,2.876844e+03
1.631484e+03,2.865129e+03
1.634377e+03,2.845630e+03
1.637270e+03,2.846285e+03
1.640163e+03,2.846896e+03
1.643055e+03,2.842018e+03
1.645948e+03,2.829513e+03
1.648841e+03,2.817259e+03
1.651733e+03,2.819878e+03
1.654626e+03,2.808900e+03
1.657519e+03,2.795626e+03
1.660411e+03,2.800354e+03
1.663304e+03,2.790133e+03
1.666197e+03,2.779169e+03
1.669090e+03,2.771926e+03
1.671982e+03,2.745832e+03
1.674875e+03,2.783386e+03
1.677768e+03,2.742826e+03
1.680660e+03,2.751965e+03
1.683553e+03,2.754407e+03
1.686446e+03,2.736949e+03
1.689339e+03,2.742334e+03
1.692231e+03,2.716243e+03
1.695124e+03,2.724193e+03
1.698017e+03,2.729936e+03
1.700909e+03,2.720347e+03
1.703802e+03,2.722669e+03
1.706695e+03,2.723283e+03
1.709587e+03,2.700922e+03
1.712480e+03,2.690406e+03
1.715373e+03,2.685659e+03
1.718266e+03,2.683052e+03
1.721158e+03,2.671083e+03
1.724051e+03,2.685189e+03
1.726944e+03,2.667357e+03
1.729836e+03,2.660359e+03
1.732729e+03,2.632692e+03
1.735622e+03,2.639039e+03
1.738514e+03,2.655645e+03
1.741407e+03,2.650536e+03
1.744300e+03,2.607458e+03
1.747193e+03,2.613346e+03
1.750085e+03,2.616464e+03
1.752978e+03,2.610159e+03
1.755871e+03,2.615876e+03
1.758763e+03,2.595845e+03
1.761656e+03,2.594903e+03
1.764549e+03,2.597823e+03
1.767441e+03,2.589435e+03
1.770334e+03,2.567649e+03
1.773227e+03,2.582317e+03
1.776120e+03,2.559671e+03
1.779012e+03,2.561242e+03
1.781905e+03,2.565022e+03
1.784798e+03,2.548939e+03
1.787690e+03,2.546938e+03
1.790583e+03,2.525868e+03
1.793476e+03,2.506371e+03
1.796368e+03,2.525161e+03
1.799261e+03,2.521033e+03
1.802154e+03,2.506380e+03
1.805047e+03,2.502622e+03
1.807939e+03,2.497052e+03
1.810832e+03,2.490042e+03
1.813725e+03,2.482486e+03
1.816617e+03,2.463747e+03
1.819510e+03,2.481693e+03
1.822403e+03,2.461839e+03
1.825295e+03,2.461805e+03
1.828188e+03,2.432722e+03
1.831081e+03,2.457375e+03
1.833974e+03,2.458716e+03
1.836866e+03,2.445020e+03
1.839759e+03,2.437484e+03
1.842652e+03,2.442596e+03
1.845544e+03,2.432157e+03
1.848437e+03,2.426421e+03
1.851330e+03,2.424894e+03
1.854222e+03,2.393498e+03
1.857115e+03,2.393825e+03
1.860008e+03,2.386479e+03
1.862901e+03,2.384054e+03
1.865793e+03,2.384444e+03
1.868686e+03,2.360820e+03
1.871579e+03,2.352320e+03
1.874471e+03,2.371368e+03
1.877364e+03,2.356421e+03
1.880257e+03,2.338023e+03
1.883149e+03,2.339781e+03
1.886042e+03,2.340424e+03
1.888935e+03,2.312469e+03
1.891828e+03,2.323021e+03
1.894720e+03,2.299850e+03
1.897613e+03,2.305450e+03
1.900506e+03,2.297382e+03
1.903398e+03,2.309042e+03
1.906291e+03,2.277383e+03
1.909184e+03,2.294072e+03
1.912076e+03,2.276784e+03
1.914969e+03,2.286181e+03
1.917862e+03,2.247709e+03
1.920755e+03,2.272384e+03
1.923647e+03,2.261740e+03
1.926540e+03,2.249148e+03
1.929433e+03,2.228200e+03
1.932325e+03,2.229986e+03
1.935218e+03,2.235969e+03
1.938111e+03,2.226989e+03
1.941003e+03,2.225691e+03
1.943896e+03,2.222863e+03
1.946789e+03,2.206870e+03
1.949682e+03,2.202479e+03
1.952574e+03,2.211653e+03
1.955467e+03,2.181230e+03
1.958360e+03,2.198736e+03
1.961252e+03,2.173336e+03
1.964145e+03,2.181885e+03
1.967038e+03,2.179128e+03
1.969930e+03,2.161201e+03
1.972823e+03,2.169345e+03
1.975716e+03,2.146164e+03
1.978609e+03,2.140294e+03
1.981501e+03,2.136009e+03
1.984394e+03,2.146723e+03
1.987287e+03,2.118842e+03
1.990179e+03,2.105755e+03
1.993072e+03,2.103372e+03
1.995965e+03,2.104611e+03
1.998857e+03,2.108298e+03
2.001750e+03,2.093057e+03
2.004643e+03,2.091247e+03
2.007536e+03,2.070197e+03
2.010428e+03,2.048579e+03
2.013321e+03,2.079545e+03
2.016214e+03,2.083995e+03
2.019106e+03,2.047039e+03
2.021999e+03,2.045108e+03
2.024892e+03,2.033109e+03
2.027784e+03,2.024783e+03
2.030677e+03,2.025276e+03
2.033570e+03,2.048165e+03
2.036463e+03,2.028056e+03
2.039355e+03,1.986868e+03
2.042248e+03,1.994055e+03
2.045141e+03,1.994464e+03
2.048033e+03,1.991075e+03
2.050926e+03,2.001614e+03
2.053819e+03,1.998008e+03
2.056711e+03,1.978867e+03
2.059604e+03,1.985191e+03
2.062497e+03,1.965866e+03
2.065390e+03,1.966820e+03
2.068282e+03,1.958020e+03
2.071175e+03,1.965068e+03
2.074068e+03,1.956469e+03
2.076960e+03,1.942412e+03
2.079853e+03,1.952564e+03
2.082746e+03,1.921266e+03
2.085638e+03,1.926434e+03
2.088531e+03,1.904898e+03
2.091424e+03,1.900699e+03
2.094316e+03,1.906376e+03
2.097209e+03,1.916618e+03
2.100102e+03,1.894251e+03
2.102995e+03,1.879905e+03
2.105887e+03,1.892155e+03
2.108780e+03,1.886834e+03
2.111673e+03,1.863816e+03
2.114565e+03,1.860068e+03
2.117458e+03,1.854343e+03
2.120351e+03,1.854321e+03
2.123244e+03,1.859049e+03
2.126136e+03,1.843055e+03
2.129029e+03,1.848930e+03
2.131922e+03,1.835255e+03
2.134814e+03,1.837973e+03
2.137707e+03,1.808009e+03
2.140600e+03,1.824584e+03
2.143492e+03,1.792738e+03
2.146385e+03,1.800053e+03
2.149278e+03,1.781145e+03
2.152170e+03,1.785226e+03
2.155063e+03,1.776154e+03
2.157956e+03,1.777692e+03
2.160849e+03,1.764289e+03
2.163741e+03,1.783136e+03
2.166634e+03,1.762752e+03
2.169527e+03,1.870342e+03
2.172419e+03,1.771288e+03
2.175312e+03,1.752563e+03
2.178205e+03,1.734359e+03
2.181098e+03,1.728036e+03
2.183990e+03,1.738862e+03
2.186883e+03,1.733357e+03
2.189776e+03,1.714812e+03
2.192668e+03,1.706977e+03
2.195561e+03,1.710871e+03
2.198454e+03,1.696130e+03
2.201346e+03,1.698409e+03
2.204239e+03,1.696267e+03
2.207132e+03,1.688873e+03
2.210024e+03,1.673590e+03
2.212917e+03,1.656271e+03
2.215810e+03,1.677571e+03
2.218703e+03,1.666385e+03
2.221595e+03,1.645292e+03
2.224488e+03,1.625180e+03
2.227381e+03,1.645462e+03
2.230273e+03,1.645390e+03
2.233166e+03,1.622165e+03
2.236059e+03,1.631125e+03
2.238952e+03,1.608013e+03
2.241844e+03,1.612073e+03
2.244737e+03,1.582485e+03
2.247630e+03,1.604956e+03
2.250522e+03,1.598833e+03
2.253415e+03,1.610196e+03
2.256308e+03,1.580794e+03
2.259200e+03,1.578849e+03
2.262093e+03,1.580092e+03
2.264986e+03,1.573551e+03
2.267879e+03,1.563423e+03
2.270771e+03,1.578398e+03
2.273664e+03,1.562794e+03
2.276557e+03,1.562413e+03
2.279449e+03,1.542988e+03
2.282342e+03,1.549249e+03
2.285235e+03,1.532576e+03
2.288127e+03,1.523279e+03
2.291020e+03,1.516177e+03
2.293913e+03,1.515533e+03
2.296805e+03,1.510210e+03
2.299698e+03,1.515956e+03
2.302591e+03,1.505255e+03
2.305484e+03,1.486398e+03
2.308376e+03,1.496563e+03
2.311269e+03,1.503695e+03
2.314162e+03,1.507452e+03
2.317054e+03,1.472376e+03
2.319947e+03,1.471663e+03
2.322840e+03,1.478170e+03
2.325733e+03,1.461793e+03
2.328625e+03,1.471774e+03
2.331518e+03,1.460635e+03
2.334411e+03,1.453603e+03
2.337303e+03,1.448517e+03
2.340196e+03,1.443833e+03
2.343089e+03,1.444858e+03
2.345981e+03,1.449679e+03
2.348874e+03,1.433274e+03
2.351767e+03,1.419093e+03
2.354659e+03,1.415533e+03
2.357552e+03,1.417177e+03
2.360445e+03,1.413270e+03
2.363338e+03,1.400886e+03
2.366230e+03,1.395067e+03
2.369123e+03,1.419366e+03
2.372016e+03,1.400245e+03
2.374908e+03,1.372823e+03
2.377801e+03,1.389521e+03
2.380694e+03,1.379499e+03
2.383587e+03,1.393526e+03
2.386479e+03,1.361995e+03
2.389372e+03,1.366144e+03
2.392265e+03,1.357582e+03
2.395157e+03,1.355230e+03
2.398050e+03,1.354823e+03
2.400943e+03,1.339855e+03
2.403835e+03,1.329934e+03
2.406728e+03,1.339682e+03
2.409621e+03,1.335538e+03
2.412513e+03,1.326709e+03
2.415406e+03,1.335035e+03
2.418299e+03,1.322011e+03
2.421192e+03,1.305694e+03
2.424084e+03,1.314274e+03
2.426977e+03,1.309427e+03
2.429870e+03,1.308111e+03
2.432762e+03,1.305085e+03
2.435655e+03,1.307725e+03
2.438548e+03,1.284891e+03
2.441441e+03,1.297077e+03
2.444333e+03,1.287623e+03
2.447226e+03,1.286977e+03
2.450119e+03,1.278383e+03
2.453011e+03,1.275151e+03
2.455904e+03,1.258852e+03
2.458797e+03,1.271337e+03
2.461689e+03,1.257464e+03
2.464582e+03,1.266734e+03
2.467475e+03,1.249607e+03
2.470367e+03,1.250402e+03
2.473260e+03,1.250148e+03
2.476153e+03,1.239767e+03
2.479046e+03,1.249193e+03
2.481938e+03,1.233576e+03
2.484831e+03,1.231512e+03
2.487724e+03,1.228795e+03
2.490616e+03,1.205016e+03
2.493509e+03,1.227109e+03
2.496402e+03,1.233941e+03
2.499295e+03,1.211100e+03
2.502187e+03,1.201168e+03
2.505080e+03,1.215043e+03
2.507973e+03,1.219891e+03
2.510865e+03,1.197549e+03
2.513758e+03,1.199518e+03
2.516651e+03,1.192391e+03
2.519543e+03,1.198553e+03
2.522436e+03,1.173299e+03
2.525329e+03,1.178347e+03
2.528221e+03,1.181922e+03
2.531114e+03,1.172064e+03
2.534007e+03,1.184121e+03
2.536900e+03,1.165910e+03
2.539792e+03,1.175021e+03
2.542685e+03,1.161051e+03
2.545578e+03,1.165342e+03
2.548470e+03,1.167909e+03
2.551363e+03,1.153623e+03
2.554256e+03,1.145481e+03
2.557149e+03,1.298469e+03
2.560041e+03,1.152781e+03
2.562934e+03,1.147857e+03
2.565827e+03,1.139764e+03
2.568719e+03,1.134849e+03
2.571612e+03,1.137172e+03
2.574505e+03,1.126712e+03
2.577397e+03,1.131135e+03
2.580290e+03,1.122460e+03
2.583183e+03,1.111702e+03
2.586075e+03,1.112512e+03
2.588968e+03,1.132886e+03
2.591861e+03,1.111804e+03
2.594754e+03,1.088401e+03
2.597646e+03,1.086922e+03
2.600539e+03,1.086378e+03
2.603432e+03,1.080336e+03
2.606324e+03,1.072171e+03
2.609217e+03,1.081799e+03
2.612110e+03,1.080497e+03
2.615003e+03,1.058385e+03
2.617895e+03,1.072401e+03
2.620788e+03,1.080472e+03
2.623681e+03,1.070835e+03
2.626573e+03,1.075714e+03
2.629466e+03,1.065086e+03
2.632359e+03,1.068076e+03
2.635251e+03,1.036851e+03
2.638144e+03,1.054102e+03
2.641037e+03,1.049017e+03
2.643929e+03,1.058301e+03
2.646822e+03,1.032004e+03
2.649715e+03,1.034277e+03
2.652608e+03,1.039727e+03
2.655500e+03,1.035941e+03
2.658393e+03,1.024953e+03
2.661286e+03,1.023106e+03
2.664178e+03,1.017489e+03
2.667071e+03,1.038481e+03
2.669964e+03,1.040323e+03
2.672857e+03,1.020428e+03
2.675749e+03,1.016003e+03
2.678642e+03,1.017489e+03
2.681535e+03,1.008661e+03
2.684427e+03,1.013741e+03
2.687320e+03,9.957688e+02
2.690213e+03,1.021924e+03
2.693105e+03,1.002902e+03
2.695998e+03,9.938807e+02
2.698891e+03,1.005040e+03
2.701783e+03,9.857393e+02
2.704676e+03,9.751010e+02
2.707569e+03,9.941161e+02
2.710462e+03,9.887394e+02
2.713354e+03,9.953502e+02
2.716247e+03,9.907977e+02
2.719140e+03,9.796951e+02
2.722032e+03,9.765599e+02
2.724925e+03,9.692991e+02
2.727818e+03,9.803450e+02
2.730711e+03,9.473500e+02
2.733603e+03,9.908358e+02
2.736496e+03,9.426880e+02
2.739389e+03,9.640283e+02
2.742281e+03,9.630238e+02
2.745174e+03,9.629106e+02
2.748067e+03,9.325634e+02
2.750959e+03,9.538488e+02
2.753852e+03,9.418922e+02
2.756745e+03,9.743829e+02
2.759637e+03,9.473749e+02
2.762530e+03,9.428724e+02
2.765423e+03,9.351761e+02
2.768316e+03,9.518622e+02
2.771208e+03,9.254527e+02
2.774101e+03,9.429862e+02
2.776994e+03,9.371329e+02
2.779886e+03,9.217067e+02
2.782779e+03,9.162549e+02
2.785672e+03,9.329932e+02
2.788565e+03,9.156270e+02
2.791457e+03,9.225993e+02
2.794350e+03,9.357503e+02
2.797243e+03,9.198469e+02
2.800135e+03,9.171702e+02
2.803028e+03,9.168013e+02
2.805921e+03,9.252728e+02
2.808813e+03,9.021095e+02
2.811706e+03,9.080754e+02
2.814599e+03,9.300765e+02
2.817491e+03,9.042952e+02
2.820384e+03,8.941254e+02
2.823277e+03,9.075528e+02
2.826170e+03,9.098162e+02
2.829062e+03,9.051384e+02
2.831955e+03,8.993148e+02
2.834848e+03,8.954095e+02
2.837740e+03,8.909969e+02
2.840633e+03,8.900748e+02
2.843526e+03,9.006230e+02
2.846419e+03,8.863076e+02
2.849311e+03,8.876912e+02
2.852204e+03,8.973438e+02
2.855097e+03,8.926494e+02
2.857990e+03,8.928856e+02
2.860882e+03,9.084679e+02
2.863775e+03,9.023617e+02
2.866667e+03,8.940383e+02
2.869560e+03,9.202121e+02
2.872453e+03,9.074033e+02
2.875345e+03,9.060154e+02
2.878238e+03,8.970852e+02
2.881131e+03,8.750711e+02
2.884024e+03,8.965009e+02
2.886916e+03,9.066352e+02
2.889809e+03,9.135327e+02
2.892702e+03,8.910391e+02
2.895594e+03,8.824128e+02
2.898487e+03,9.153238e+02
2.901380e+03,8.996071e+02
2.904273e+03,8.771631e+02
2.907165e+03,8.938313e+02
2.910058e+03,8.746660e+02
2.912951e+03,8.852119e+02
2.915844e+03,8.597843e+02
2.918736e+03,8.562353e+02
2.921629e+03,8.715668e+02
2.924521e+03,8.467695e+02
2.927414e+03,8.726876e+02
2.930307e+03,8.723779e+02
2.933199e+03,8.554409e+02
2.936092e+03,8.650251e+02
2.938985e+03,8.425671e+02
2.941878e+03,8.382247e+02
2.944770e+03,8.463370e+02
2.947663e+03,8.467418e+02
2.950556e+03,8.445618e+02
2.953448e+03,8.502704e+02
2.956341e+03,8.598781e+02
2.959234e+03,8.442709e+02
2.962127e+03,8.251243e+02
2.965019e+03,8.376402e+02
2.967912e+03,8.247942e+02
2.970805e+03,8.507408e+02
2.973698e+03,8.039970e+02
2.976590e+03,8.379836e+02
2.979483e+03,7.946263e+02
2.982375e+03,8.260488e+02
2.985268e+03,8.120207e+02
2.988161e+03,8.096921e+02
2.991053e+03,8.138712e+02
2.993946e+03,7.934708e+02
2.996839e+03,8.338145e+02
2.999732e+03,7.800426e+02
3.002624e+03,7.781611e+02
3.005517e+03,7.684993e+02
3.008410e+03,8.072692e+02
3.011302e+03,8.096644e+02
3.014195e+03,8.273546e+02
3.017088e+03,7.972780e+02
3.019981e+03,7.918939e+02
3.022873e+03,7.902814e+02
3.025766e+03,7.688715e+02
3.028659e+03,7.878710e+02
3.031552e+03,7.671890e+02
3.034444e+03,7.679078e+02
3.037337e+03,8.223375e+02
3.040229e+03,7.460404e+02
3.043122e+03,7.936289e+02
3.046015e+03,7.614162e+02
3.048907e+03,7.574254e+02
3.051800e+03,7.883818e+02
3.054693e+03,7.587382e+02
3.057586e+03,8.060182e+02
3.060478e+03,7.530392e+02
3.063371e+03,7.846709e+02
3.066264e+03,7.812340e+02
3.069156e+03,7.752895e+02
3.072049e+03,8.164558e+02
3.074942e+03,7.463074e+02
3.077835e+03,7.860182e+02
3.080727e+03,7.590518e+02
3.083620e+03,7.861579e+02
3.086513e+03,7.897525e+02
3.089406e+03,7.794091e+02
3.092298e+03,7.748828e+02
3.095191e+03,7.664691e+02
3.098083e+03,7.815813e+02
3.100976e+03,8.029566e+02
3.103869e+03,7.753901e+02
3.106761e+03,7.377926e+02
3.109654e+03,8.034147e+02
3.112547e+03,7.346884e+02
3.115440e+03,7.554686e+02
3.118332e+03,7.725623e+02
3.121225e+03,7.817794e+02
3.124118e+03,7.822261e+02
3.127010e+03,7.637567e+02
3.129903e+03,7.716458e+02
3.132796e+03,7.818860e+02
3.135689e+03,7.390314e+02
3.138581e+03,7.803328e+02
3.141474e+03,7.896061e+02
3.144367e+03,7.456154e+02
3.147260e+03,7.721502e+02
3.150152e+03,7.651667e+02
3.153045e+03,7.851914e+02
3.155938e+03,7.555801e+02
3.158830e+03,7.938948e+02
3.161723e+03,7.535229e+02
3.164615e+03,7.691407e+02
3.167508e+03,7.486674e+02
3.170401e+03,7.524130e+02
3.173294e+03,7.823489e+02
3.176186e+03,7.877559e+02
3.179079e+03,7.630120e+02
3.181972e+03,7.687716e+02
3.184865e+03,7.795668e+02
3.187757e+03,7.905825e+02
3.190650e+03,7.860419e+02
3.193543e+03,7.638804e+02
3.196435e+03,7.708967e+02
3.199328e+03,8.461454e+02
3.200292e+03,8.504001e+02