File: RAMAN_data/06022023_r1/black fibre7.CSV
1.995979e+02,5.459469e+03
2.024906e+02,5.464170e+03
2.053833e+02,5.477771e+03
2.082760e+02,5.484724e+03
2.111687e+02,5.488539e+03
2.140614e+02,5.510802e+03
2.169541e+02,5.499132e+03
2.198468e+02,5.536159e+03
2.227395e+02,5.538917e+03
2.256322e+02,5.522056e+03
2.285249e+02,5.518448e+03
2.314176e+02,5.536921e+03
2.343103e+02,5.566413e+03
2.372030e+02,5.576687e+03
2.400957e+02,5.549609e+03
2.429884e+02,5.556746e+03
2.458811e+02,5.577500e+03
2.487738e+02,5.582875e+03
2.516665e+02,5.595638e+03
2.545592e+02,5.594896e+03
2.574519e+02,5.582425e+03
2.603446e+02,5.617831e+03
2.632373e+02,5.633657e+03
2.661300e+02,5.622509e+03
2.690227e+02,5.634167e+03
2.719154e+02,5.643200e+03
2.748081e+02,5.648568e+03
2.777008e+02,5.665434e+03
2.805935e+02,5.665267e+03
2.834862e+02,5.686808e+03
2.863789e+02,5.677898e+03
2.892716e+02,5.657639e+03
2.921643e+02,5.689415e+03
2.950570e+02,5.664100e+03
2.979497e+02,5.671347e+03
3.008424e+02,5.673924e+03
3.037351e+02,5.692290e+03
3.066278e+02,5.685721e+03
3.095205e+02,5.684621e+03
3.124132e+02,5.693861e+03
3.153059e+02,5.696887e+03
3.181986e+02,5.691599e+03
3.210913e+02,5.711537e+03
3.239840e+02,5.689917e+03
3.268767e+02,5.718194e+03
3.297694e+02,5.710835e+03
3.326621e+02,5.727808e+03
3.355548e+02,5.715890e+03
3.384475e+02,5.698968e+03
3.413402e+02,5.710549e+03
3.442329e+02,5.725865e+03
3.471256e+02,5.740265e+03
3.500183e+02,5.713812e+03
3.529110e+02,5.699698e+03
3.558037e+02,5.731060e+03
3.586964e+02,5.734418e+03
3.615891e+02,5.734536e+03
3.644818e+02,5.737387e+03
3.673745e+02,5.706813e+03
3.702672e+02,5.737144e+03
3.731599e+02,5.736658e+03
3.760526e+02,5.765032e+03
3.789453e+02,5.748479e+03
3.818380e+02,5.751634e+03
3.847307e+02,5.759752e+03
3.876234e+02,5.741963e+03
3.905161e+02,5.741850e+03
3.934088e+02,5.739847e+03
3.963015e+02,5.732000e+03
3.991942e+02,5.725185e+03
4.020869e+02,5.755396e+03
4.049796e+02,5.729460e+03
4.078723e+02,5.738104e+03
4.107650e+02,5.747024e+03
4.136577e+02,5.724588e+03
4.165504e+02,5.716342e+03
4.194431e+02,5.739746e+03
4.223358e+02,5.713536e+03
4.252285e+02,5.727917e+03
4.281212e+02,5.708335e+03
4.310139e+02,5.740019e+03
4.339066e+02,5.709771e+03
4.367993e+02,5.695183e+03
4.396920e+02,5.723354e+03
4.425847e+02,5.687570e+03
4.454774e+02,5.688370e+03
4.483701e+02,5.704398e+03
4.512628e+02,5.684067e+03
4.541555e+02,5.691876e+03
4.570482e+02,5.705655e+03
4.599409e+02,5.691295e+03
4.628336e+02,5.668264e+03
4.657263e+02,5.685775e+03
4.686190e+02,5.669614e+03
4.715117e+02,5.677744e+03
4.744044e+02,5.680435e+03
4.772971e+02,5.649256e+03
4.801898e+02,5.643503e+03
4.830825e+02,5.656066e+03
4.859752e+02,5.668088e+03
4.888679e+02,5.641449e+03
4.917606e+02,5.634413e+03
4.946533e+02,5.626383e+03
4.975460e+02,5.625923e+03
5.004387e+02,5.638449e+03
5.033314e+02,5.630278e+03
5.062241e+02,5.613281e+03
5.091168e+02,5.624085e+03
5.120095e+02,5.608199e+03
5.149022e+02,5.625084e+03
5.177949e+02,5.636191e+03
5.206876e+02,5.574306e+03
5.235803e+02,5.593497e+03
5.264730e+02,5.601128e+03
5.293657e+02,5.588815e+03
5.322584e+02,5.571048e+03
5.351511e+02,5.564560e+03
5.380438e+02,5.544389e+03
5.409365e+02,5.559057e+03
5.438292e+02,5.546275e+03
5.467219e+02,5.576312e+03
5.496146e+02,5.552893e+03
5.525073e+02,5.523913e+03
5.554000e+02,5.521299e+03
5.582927e+02,5.535282e+03
5.611854e+02,5.524268e+03
5.640781e+02,5.493005e+03
5.669708e+02,5.502404e+03
5.698635e+02,5.488778e+03
5.727562e+02,5.493144e+03
5.756489e+02,5.508646e+03
5.785416e+02,5.501204e+03
5.814343e+02,5.492200e+03
5.843270e+02,5.455356e+03
5.872197e+02,5.477328e+03
5.901124e+02,5.463640e+03
5.930051e+02,5.467381e+03
5.958978e+02,5.462059e+03
5.987905e+02,5.453600e+03
6.016832e+02,5.440732e+03
6.045759e+02,5.451336e+03
6.074686e+02,5.452335e+03
6.103613e+02,5.428422e+03
6.132540e+02,5.408035e+03
6.161467e+02,5.409065e+03
6.190394e+02,5.418798e+03
6.219321e+02,5.420187e+03
6.248248e+02,5.427658e+03
6.277175e+02,5.402748e+03
6.306102e+02,5.405042e+03
6.335029e+02,5.400947e+03
6.363956e+02,5.381308e+03
6.392883e+02,5.357373e+03
6.421810e+02,5.351619e+03
6.450737e+02,5.353270e+03
6.479664e+02,5.357589e+03
6.508591e+02,5.369524e+03
6.537518e+02,5.351882e+03
6.566445e+02,5.353542e+03
6.595372e+02,5.324732e+03
6.624299e+02,5.301945e+03
6.653226e+02,5.328008e+03
6.682153e+02,5.300354e+03
6.711080e+02,5.309853e+03
6.740007e+02,5.295132e+03
6.768934e+02,5.302968e+03
6.797861e+02,5.292124e+03
6.826788e+02,5.262602e+03
6.855715e+02,5.274731e+03
6.884642e+02,5.246822e+03
6.913569e+02,5.246040e+03
6.942496e+02,5.254234e+03
6.971423e+02,5.252240e+03
7.000350e+02,5.232797e+03
7.029277e+02,5.230600e+03
7.058204e+02,5.202608e+03
7.087131e+02,5.188337e+03
7.116058e+02,5.208312e+03
7.144985e+02,5.188346e+03
7.173912e+02,5.168291e+03
7.202839e+02,5.179299e+03
7.231766e+02,5.172812e+03
7.260693e+02,5.159305e+03
7.289620e+02,5.133583e+03
7.318547e+02,5.114980e+03
7.347474e+02,5.125553e+03
7.376401e+02,5.108872e+03
7.405328e+02,5.121501e+03
7.434255e+02,5.099115e+03
7.463182e+02,5.127325e+03
7.492109e+02,5.090248e+03
7.521036e+02,5.064648e+03
7.549963e+02,5.081009e+03
7.578890e+02,5.045197e+03
7.607817e+02,5.042495e+03
7.636744e+02,5.029662e+03
7.665671e+02,5.025886e+03
7.694598e+02,4.999159e+03
7.723525e+02,5.008806e+03
7.752452e+02,5.013058e+03
7.781379e+02,5.008032e+03
7.810306e+02,4.983423e+03
7.839233e+02,4.985527e+03
7.868160e+02,4.961280e+03
7.897087e+02,4.978833e+03
7.926014e+02,4.986331e+03
7.954941e+02,4.947573e+03
7.983868e+02,4.922483e+03
8.012795e+02,4.938053e+03
8.041722e+02,4.914756e+03
8.070649e+02,4.935198e+03
8.099576e+02,4.918048e+03
8.128503e+02,4.892521e+03
8.157430e+02,4.900199e+03
8.186357e+02,4.892204e+03
8.215284e+02,4.902956e+03
8.244211e+02,4.880242e+03
8.273138e+02,4.866705e+03
8.302065e+02,4.873941e+03
8.330992e+02,4.874713e+03
8.359919e+02,4.850610e+03
8.388846e+02,4.860826e+03
8.417773e+02,4.845573e+03
8.446700e+02,4.820705e+03
8.475627e+02,4.843078e+03
8.504554e+02,4.823341e+03
8.533481e+02,4.814877e+03
8.562408e+02,4.795728e+03
8.591335e+02,4.786586e+03
8.620262e+02,4.771618e+03
8.649189e+02,4.753990e+03
8.678116e+02,4.787817e+03
8.707043e+02,4.774659e+03
8.735970e+02,4.748352e+03
8.764897e+02,4.740651e+03
8.793824e+02,4.729909e+03
8.822751e+02,4.745533e+03
8.851678e+02,4.757479e+03
8.880605e+02,4.749126e+03
8.909532e+02,4.701013e+03
8.938459e+02,4.704290e+03
8.967386e+02,4.690886e+03
8.996313e+02,4.692565e+03
9.025240e+02,4.684399e+03
9.054167e+02,4.671410e+03
9.083094e+02,4.668146e+03
9.112021e+02,4.649959e+03
9.140948e+02,4.644574e+03
9.169875e+02,4.633273e+03
9.198802e+02,4.614169e+03
9.227729e+02,4.602686e+03
9.256656e+02,4.592483e+03
9.285583e+02,4.590782e+03
9.314510e+02,4.606224e+03
9.343438e+02,4.590242e+03
9.372365e+02,4.569773e+03
9.401292e+02,4.563111e+03
9.430219e+02,4.562131e+03
9.459146e+02,4.573373e+03
9.488073e+02,4.542650e+03
9.517000e+02,4.542888e+03
9.545927e+02,4.548286e+03
9.574854e+02,4.522890e+03
9.603781e+02,4.527056e+03
9.632708e+02,4.510752e+03
9.661635e+02,4.506935e+03
9.690562e+02,4.508183e+03
9.719489e+02,4.489925e+03
9.748416e+02,4.474445e+03
9.777343e+02,4.466593e+03
9.806270e+02,4.465733e+03
9.835197e+02,4.464264e+03
9.864124e+02,4.458244e+03
9.893051e+02,4.442914e+03
9.921978e+02,4.443866e+03
9.950905e+02,4.442633e+03
9.979832e+02,4.426497e+03
1.000876e+03,4.415628e+03
1.003769e+03,4.408793e+03
1.006661e+03,4.418544e+03
1.009554e+03,4.398006e+03
1.012447e+03,4.376238e+03
1.015339e+03,4.376936e+03
1.018232e+03,4.368842e+03
1.021125e+03,4.346889e+03
1.024017e+03,4.353087e+03
1.026910e+03,4.354099e+03
1.029803e+03,4.354476e+03
1.032696e+03,4.350864e+03
1.035588e+03,4.350967e+03
1.038481e+03,4.350304e+03
1.041374e+03,4.326705e+03
1.044266e+03,4.315976e+03
1.047159e+03,4.310975e+03
1.050052e+03,4.307086e+03
1.052944e+03,4.326352e+03
1.055837e+03,4.288943e+03
1.058730e+03,4.304704e+03
1.061623e+03,4.287125e+03
1.064515e+03,4.292347e+03
1.067408e+03,4.302752e+03
1.070301e+03,4.291531e+03
1.073193e+03,4.294254e+03
1.076086e+03,4.276187e+03
1.078979e+03,4.256189e+03
1.081871e+03,4.297746e+03
1.084764e+03,4.299265e+03
1.087657e+03,4.287797e+03
1.090550e+03,4.278749e+03
1.093442e+03,4.277954e+03
1.096335e+03,4.272448e+03
1.099228e+03,4.249298e+03
1.102120e+03,4.251315e+03
1.105013e+03,4.210416e+03
1.107906e+03,4.235742e+03
1.110798e+03,4.223762e+03
1.113691e+03,4.227739e+03
1.116584e+03,4.241899e+03
1.119477e+03,4.228110e+03
1.122369e+03,4.221123e+03
1.125262e+03,4.185166e+03
1.128155e+03,4.179819e+03
1.131047e+03,4.184968e+03
1.133940e+03,4.171792e+03
1.136833e+03,4.160955e+03
1.139725e+03,4.152170e+03
1.142618e+03,4.142763e+03
1.145511e+03,4.166111e+03
1.148404e+03,4.167866e+03
1.151296e+03,4.146557e+03
1.154189e+03,4.144904e+03
1.157082e+03,4.123132e+03
1.159974e+03,4.131329e+03
1.162867e+03,4.122605e+03
1.165760e+03,4.107662e+03
1.168652e+03,4.093031e+03
1.171545e+03,4.091571e+03
1.174438e+03,4.085108e+03
1.177331e+03,4.078317e+03
1.180223e+03,4.073479e+03
1.183116e+03,4.064613e+03
1.186009e+03,4.050382e+03
1.188901e+03,4.046004e+03
1.191794e+03,4.042416e+03
1.194687e+03,4.053599e+03
1.197579e+03,4.035254e+03
1.200472e+03,4.028232e+03
1.203365e+03,4.017175e+03
1.206258e+03,4.003440e+03
1.209150e+03,4.025347e+03
1.212043e+03,4.012669e+03
1.214936e+03,4.012419e+03
1.217828e+03,3.983611e+03
1.220721e+03,3.977175e+03
1.223614e+03,3.987884e+03
1.226506e+03,3.985439e+03
1.229399e+03,3.972369e+03
1.232292e+03,3.984952e+03
1.235185e+03,3.962574e+03
1.238077e+03,3.963173e+03
1.240970e+03,3.969087e+03
1.243863e+03,3.970970e+03
1.246755e+03,3.951827e+03
1.249648e+03,3.938970e+03
1.252541e+03,3.942889e+03
1.255433e+03,3.935937e+03
1.258326e+03,3.937501e+03
1.261219e+03,3.936579e+03
1.264112e+03,3.927725e+03
1.267004e+03,3.924605e+03
1.269897e+03,3.915141e+03
1.272790e+03,3.943757e+03
1.275682e+03,3.933985e+03
1.278575e+03,3.919840e+03
1.281468e+03,3.911118e+03
1.284360e+03,3.928594e+03
1.287253e+03,3.922311e+03
1.290146e+03,3.932803e+03
1.293039e+03,3.905216e+03
1.295931e+03,3.902060e+03
1.298824e+03,3.889639e+03
1.301717e+03,3.897350e+03
1.304609e+03,3.900695e+03
1.307502e+03,3.876420e+03
1.310395e+03,3.883995e+03
1.313287e+03,3.881651e+03
1.316180e+03,3.888976e+03
1.319073e+03,3.908431e+03
1.321966e+03,3.892617e+03
1.324858e+03,3.892694e+03
1.327751e+03,3.875921e+03
1.330644e+03,3.870660e+03
1.333536e+03,3.876332e+03
1.336429e+03,3.875228e+03
1.339322e+03,3.863003e+03
1.342214e+03,3.860931e+03
1.345107e+03,3.851120e+03
1.348000e+03,3.833113e+03
1.350893e+03,3.821764e+03
1.353785e+03,3.815230e+03
1.356678e+03,3.814784e+03
1.359571e+03,3.807236e+03
1.362463e+03,3.802323e+03
1.365356e+03,3.824368e+03
1.368249e+03,3.814542e+03
1.371141e+03,3.805590e+03
1.374034e+03,3.802031e+03
1.376927e+03,3.794130e+03
1.379820e+03,3.808865e+03
1.382712e+03,3.771460e+03
1.385605e+03,3.781896e+03
1.388498e+03,3.758206e+03
1.391390e+03,3.779383e+03
1.394283e+03,3.732275e+03
1.397176e+03,3.758218e+03
1.400068e+03,3.735247e+03
1.402961e+03,3.747597e+03
1.405854e+03,3.729017e+03
1.408747e+03,3.739800e+03
1.411639e+03,3.732576e+03
1.414532e+03,3.728957e+03
1.417425e+03,3.723674e+03
1.420317e+03,3.705588e+03
1.423210e+03,3.700318e+03
1.426103e+03,3.706666e+03
1.428995e+03,3.697116e+03
1.431888e+03,3.688595e+03
1.434781e+03,3.682512e+03
1.437674e+03,3.690702e+03
1.440566e+03,3.669077e+03
1.443459e+03,3.671589e+03
1.446352e+03,3.683422e+03
1.449244e+03,3.646712e+03
1.452137e+03,3.666516e+03
1.455030e+03,3.661871e+03
1.457922e+03,3.658817e+03
1.460815e+03,3.669862e+03
1.463708e+03,3.656025e+03
1.466601e+03,3.621084e+03
1.469493e+03,3.631826e+03
1.472386e+03,3.633839e+03
1.475279e+03,3.647526e+03
1.478171e+03,3.640009e+03
1.481064e+03,3.617031e+03
1.483957e+03,3.601564e+03
1.486849e+03,3.603254e+03
1.489742e+03,3.596209e+03
1.492635e+03,3.605654e+03
1.495528e+03,3.598597e+03
1.498420e+03,3.578899e+03
1.501313e+03,3.590996e+03
1.504206e+03,3.591241e+03
1.507098e+03,3.581349e+03
1.509991e+03,3.564483e+03
1.512884e+03,3.556365e+03
1.515776e+03,3.545837e+03
1.518669e+03,3.548938e+03
1.521562e+03,3.561753e+03
1.524455e+03,3.555724e+03
1.527347e+03,3.542490e+03
1.530240e+03,3.533997e+03
1.533133e+03,3.536201e+03
1.536025e+03,3.513518e+03
1.538918e+03,3.526049e+03
1.541811e+03,3.524466e+03
1.544703e+03,3.518166e+03
1.547596e+03,3.503264e+03
1.550489e+03,3.523190e+03
1.553382e+03,3.511773e+03
1.556274e+03,3.492538e+03
1.559167e+03,3.484753e+03
1.562060e+03,3.495227e+03
1.564952e+03,3.481861e+03
1.567845e+03,3.489618e+03
1.570738e+03,3.478181e+03
1.573630e+03,3.480552e+03
1.576523e+03,3.464534e+03
1.579416e+03,3.470666e+03
1.582309e+03,3.460780e+03
1.585201e+03,3.442508e+03
1.588094e+03,3.436147e+03
1.590987e+03,3.424936e+03
1.593879e+03,3.438488e+03
1.596772e+03,3.413007e+03
1.599665e+03,3.431876e+03
1.602557e+03,3.407762e+03
1.605450e+03,3.404306e+03
1.608343e+03,3.423108e+03
1.611236e+03,3.430266e+03
1.614128e+03,3.422490e+03
1.617021e+03,3.411227e+03
1.619914e+03,3.367910e+03
1.622806e+03,3.362965e+03
1.625699e+03,3.355975e+03
1.628592e+03,3.342770e+03
1.631484e+03,3.348338e+03
1.634377e+03,3.359798e+03
1.637270e+03,3.313576e+03
1.640163e+03,3.310469e+03
1.643055e+03,3.316156e+03
1.645948e+03,3.326287e+03
1.648841e+03,3.305591e+03
1.651733e+03,3.289057e+03
1.654626e+03,3.298005e+03
1.657519e+03,3.300544e+03
1.660411e+03,3.284596e+03
1.663304e+03,3.271644e+03
1.666197e+03,3.276919e+03
1.669090e+03,3.246770e+03
1.671982e+03,3.276185e+03
1.674875e+03,3.250736e+03
1.677768e+03,3.259162e+03
1.680660e+03,3.240544e+03
1.683553e+03,3.232632e+03
1.686446e+03,3.217536e+03
1.689339e+03,3.242401e+03
1.692231e+03,3.226634e+03
1.695124e+03,3.202536e+03
1.698017e+03,3.215796e+03
1.700909e+03,3.193012e+03
1.703802e+03,3.180950e+03
1.706695e+03,3.191074e+03
1.709587e+03,3.185593e+03
1.712480e+03,3.182684e+03
1.715373e+03,3.162058e+03
1.718266e+03,3.166936e+03
1.721158e+03,3.160044e+03
1.724051e+03,3.161290e+03
1.726944e+03,3.142831e+03
1.729836e+03,3.149425e+03
1.732729e+03,3.136152e+03
1.735622e+03,3.142072e+03
1.738514e+03,3.123629e+03
1.741407e+03,3.108644e+03
1.744300e+03,3.097159e+03
1.747193e+03,3.097903e+03
1.750085e+03,3.104578e+03
1.752978e+03,3.091767e+03
1.755871e+03,3.115263e+03
1.758763e+03,3.067064e+03
1.761656e+03,3.063687e+03
1.764549e+03,3.060040e+03
1.767441e+03,3.051914e+03
1.770334e+03,3.041271e+03
1.773227e+03,3.039116e+03
1.776120e+03,3.018402e+03
1.779012e+03,3.032639e+03
1.781905e+03,3.011532e+03
1.784798e+03,3.002561e+03
1.787690e+03,3.020982e+03
1.790583e+03,3.006158e+03
1.793476e+03,2.974810e+03
1.796368e+03,2.977329e+03
1.799261e+03,2.985292e+03
1.802154e+03,2.978655e+03
1.805047e+03,2.971129e+03
1.807939e+03,2.951997e+03
1.810832e+03,2.949034e+03
1.813725e+03,2.949415e+03
1.816617e+03,2.933390e+03
1.819510e+03,2.923162e+03
1.822403e+03,2.906466e+03
1.825295e+03,2.911125e+03
1.828188e+03,2.905046e+03
1.831081e+03,2.919589e+03
1.833974e+03,2.886301e+03
1.836866e+03,2.878941e+03
1.839759e+03,2.853495e+03
1.842652e+03,2.872156e+03
1.845544e+03,2.847218e+03
1.848437e+03,2.853273e+03
1.851330e+03,2.840932e+03
1.854222e+03,2.838170e+03
1.857115e+03,2.832114e+03
1.860008e+03,2.819635e+03
1.862901e+03,2.829777e+03
1.865793e+03,2.822325e+03
1.868686e+03,2.808835e+03
1.871579e+03,2.788548e+03
1.874471e+03,2.811086e+03
1.877364e+03,2.795341e+03
1.880257e+03,2.770347e+03
1.883149e+03,2.757131e+03
1.886042e+03,2.744419e+03
1.888935e+03,2.748989e+03
1.891828e+03,2.734146e+03
1.894720e+03,2.742089e+03
1.897613e+03,2.721988e+03
1.900506e+03,2.738222e+03
1.903398e+03,2.716647e+03
1.906291e+03,2.739364e+03
1.909184e+03,2.694648e+03
1.912076e+03,2.701626e+03
1.914969e+03,2.702987e+03
1.917862e+03,2.666328e+03
1.920755e+03,2.652906e+03
1.923647e+03,2.672719e+03
1.926540e+03,2.683336e+03
1.929433e+03,2.664110e+03
1.932325e+03,2.640923e+03
1.935218e+03,2.638647e+03
1.938111e+03,2.629357e+03
1.941003e+03,2.612820e+03
1.943896e+03,2.626875e+03
1.946789e+03,2.603667e+03
1.949682e+03,2.580968e+03
1.952574e+03,2.621137e+03
1.955467e+03,2.590338e+03
1.958360e+03,2.602665e+03
1.961252e+03,2.581723e+03
1.964145e+03,2.559617e+03
1.967038e+03,2.577403e+03
1.969930e+03,2.562422e+03
1.972823e+03,2.542659e+03
1.975716e+03,2.546411e+03
1.978609e+03,2.529585e+03
1.981501e+03,2.538225e+03
1.984394e+03,2.546305e+03
1.987287e+03,2.514934e+03
1.990179e+03,2.510454e+03
1.993072e+03,2.512124e+03
1.995965e+03,2.505082e+03
1.998857e+03,2.480658e+03
2.001750e+03,2.485638e+03
2.004643e+03,2.462391e+03
2.007536e+03,2.477708e+03
2.010428e+03,2.468828e+03
2.013321e+03,2.446628e+03
2.016214e+03,2.468595e+03
2.019106e+03,2.454062e+03
2.021999e+03,2.438356e+03
2.024892e+03,2.426650e+03
2.027784e+03,2.432850e+03
2.030677e+03,2.414816e+03
2.033570e+03,2.411002e+03
2.036463e+03,2.432860e+03
2.039355e+03,2.379120e+03
2.042248e+03,2.366059e+03
2.045141e+03,2.357820e+03
2.048033e+03,2.373836e+03
2.050926e+03,2.396318e+03
2.053819e+03,2.368295e+03
2.056711e+03,2.332364e+03
2.059604e+03,2.348101e+03
2.062497e+03,2.344718e+03
2.065390e+03,2.338017e+03
2.068282e+03,2.327166e+03
2.071175e+03,2.303011e+03
2.074068e+03,2.305259e+03
2.076960e+03,2.305424e+03
2.079853e+03,2.311302e+03
2.082746e+03,2.293238e+03
2.085638e+03,2.258524e+03
2.088531e+03,2.267637e+03
2.091424e+03,2.270796e+03
2.094316e+03,2.247976e+03
2.097209e+03,2.249499e+03
2.100102e+03,2.239960e+03
2.102995e+03,2.244771e+03
2.105887e+03,2.233028e+03
2.108780e+03,2.249170e+03
2.111673e+03,2.242207e+03
2.114565e+03,2.215652e+03
2.117458e+03,2.181976e+03
2.120351e+03,2.199747e+03
2.123244e+03,2.201284e+03
2.126136e+03,2.194479e+03
2.129029e+03,2.170419e+03
2.131922e+03,2.170748e+03
2.134814e+03,2.164552e+03
2.137707e+03,2.129984e+03
2.140600e+03,2.161254e+03
2.143492e+03,2.132383e+03
2.146385e+03,2.138670e+03
2.149278e+03,2.142718e+03
2.152170e+03,2.133633e+03
2.155063e+03,2.129184e+03
2.157956e+03,2.118699e+03
2.160849e+03,2.095919e+03
2.163741e+03,2.105599e+03
2.166634e+03,2.102811e+03
2.169527e+03,2.098678e+03
2.172419e+03,2.096998e+03
2.175312e+03,2.076288e+03
2.178205e+03,2.067834e+03
2.181098e+03,2.068499e+03
2.183990e+03,2.053032e+03
2.186883e+03,2.062365e+03
2.189776e+03,2.040876e+03
2.192668e+03,2.039681e+03
2.195561e+03,2.032214e+03
2.198454e+03,2.026427e+03
2.201346e+03,2.021687e+03
2.204239e+03,2.033840e+03
2.207132e+03,2.010804e+03
2.210024e+03,1.996210e+03
2.212917e+03,1.992602e+03
2.215810e+03,2.000486e+03
2.218703e+03,1.993150e+03
2.221595e+03,1.989107e+03
2.224488e+03,1.979379e+03
2.227381e+03,1.957020e+03
2.230273e+03,1.991130e+03
2.233166e+03,1.955527e+03
2.236059e+03,1.950080e+03
2.238952e+03,1.953226e+03
2.241844e+03,1.939102e+03
2.244737e+03,1.933679e+03
2.247630e+03,1.925296e+03
2.250522e+03,1.937578e+03
2.253415e+03,1.930987e+03
2.256308e+03,1.914423e+03
2.259200e+03,1.888653e+03
2.262093e+03,1.874166e+03
2.264986e+03,1.888417e+03
2.267879e+03,1.882777e+03
2.270771e+03,1.877415e+03
2.273664e+03,1.867550e+03
2.276557e+03,1.868831e+03
2.279449e+03,1.864300e+03
2.282342e+03,1.843791e+03
2.285235e+03,1.859297e+03
2.288127e+03,1.841264e+03
2.291020e+03,1.836007e+03
2.293913e+03,1.838901e+03
2.296805e+03,1.818332e+03
2.299698e+03,1.815586e+03
2.302591e+03,1.818507e+03
2.305484e+03,1.792972e+03
2.308376e+03,1.797989e+03
2.311269e+03,1.790697e+03
2.314162e+03,1.806461e+03
2.317054e+03,1.799457e+03
2.319947e+03,1.784883e+03
2.322840e+03,1.774956e+03
2.325733e+03,1.791501e+03
2.328625e+03,1.777094e+03
2.331518e+03,1.750807e+03
2.334411e+03,1.756930e+03
2.337303e+03,1.735063e+03
2.340196e+03,1.724102e+03
2.343089e+03,1.755977e+03
2.345981e+03,1.733404e+03
2.348874e+03,1.739320e+03
2.351767e+03,1.723756e+03
2.354659e+03,1.732502e+03
2.357552e+03,1.720646e+03
2.360445e+03,1.721242e+03
2.363338e+03,1.710585e+03
2.366230e+03,1.697878e+03
2.369123e+03,1.703058e+03
2.372016e+03,1.689139e+03
2.374908e+03,1.689624e+03
2.377801e+03,1.662151e+03
2.380694e+03,1.674085e+03
2.383587e+03,1.684456e+03
2.386479e+03,1.667315e+03
2.389372e+03,1.666751e+03
2.392265e+03,1.659998e+03
2.395157e+03,1.652049e+03
2.398050e+03,1.651417e+03
2.400943e+03,1.647717e+03
2.403835e+03,1.636442e+03
2.406728e+03,1.647968e+03
2.409621e+03,1.632999e+03
2.412513e+03,1.623803e+03
2.415406e+03,1.626202e+03
2.418299e+03,1.626156e+03
2.421192e+03,1.624931e+03
2.424084e+03,1.617943e+03
2.426977e+03,1.609634e+03
2.429870e+03,1.597837e+03
2.432762e+03,1.592178e+03
2.435655e+03,1.579994e+03
2.438548e+03,1.601770e+03
2.441441e+03,1.579112e+03
2.444333e+03,1.575437e+03
2.447226e+03,1.562801e+03
2.450119e+03,1.573536e+03
2.453011e+03,1.577268e+03
2.455904e+03,1.559531e+03
2.458797e+03,1.545008e+03
2.461689e+03,1.549172e+03
2.464582e+03,1.518251e+03
2.467475e+03,1.537578e+03
2.470367e+03,1.541641e+03
2.473260e+03,1.547189e+03
2.476153e+03,1.537153e+03
2.479046e+03,1.527865e+03
2.481938e+03,1.526969e+03
2.484831e+03,1.533537e+03
2.487724e+03,1.514469e+03
2.490616e+03,1.513623e+03
2.493509e+03,1.505644e+03
2.496402e+03,1.515563e+03
2.499295e+03,1.502128e+03
2.502187e+03,1.488123e+03
2.505080e+03,1.480357e+03
2.507973e+03,1.496271e+03
2.510865e+03,1.503421e+03
2.513758e+03,1.480860e+03
2.516651e+03,1.479286e+03
2.519543e+03,1.463484e+03
2.522436e+03,1.471027e+03
2.525329e+03,1.459766e+03
2.528221e+03,1.462040e+03
2.531114e+03,1.462473e+03
2.534007e+03,1.449247e+03
2.536900e+03,1.438359e+03
2.539792e+03,1.447926e+03
2.542685e+03,1.442486e+03
2.545578e+03,1.449109e+03
2.548470e+03,1.438848e+03
2.551363e+03,1.442746e+03
2.554256e+03,1.440725e+03
2.557149e+03,1.438868e+03
2.560041e+03,1.420105e+03
2.562934e+03,1.425255e+03
2.565827e+03,1.420181e+03
2.568719e+03,1.415503e+03
2.571612e+03,1.404794e+03
2.574505e+03,1.421813e+03
2.577397e+03,1.395638e+03
2.580290e+03,1.401754e+03
2.583183e+03,1.399495e+03
2.586075e+03,1.384369e+03
2.588968e+03,1.388251e+03
2.591861e+03,1.390635e+03
2.594754e+03,1.390637e+03
2.597646e+03,1.369527e+03
2.600539e+03,1.351928e+03
2.603432e+03,1.370341e+03
2.606324e+03,1.373921e+03
2.609217e+03,1.378357e+03
2.612110e+03,1.364441e+03
2.615003e+03,1.344453e+03
2.617895e+03,1.365790e+03
2.620788e+03,1.338663e+03
2.623681e+03,1.341398e+03
2.626573e+03,1.329423e+03
2.629466e+03,1.348297e+03
2.632359e+03,1.350130e+03
2.635251e+03,1.325617e+03
2.638144e+03,1.347524e+03
2.641037e+03,1.319215e+03
2.643929e+03,1.325890e+03
2.646822e+03,1.320994e+03
2.649715e+03,1.313739e+03
2.652608e+03,1.327673e+03
2.655500e+03,1.320083e+03
2.658393e+03,1.301353e+03
2.661286e+03,1.279914e+03
2.664178e+03,1.278162e+03
2.667071e+03,1.300844e+03
2.669964e+03,1.298669e+03
2.672857e+03,1.288297e+03
2.675749e+03,1.264732e+03
2.678642e+03,1.292970e+03
2.681535e+03,1.303221e+03
2.684427e+03,1.282638e+03
2.687320e+03,1.302779e+03
2.690213e+03,1.258763e+03
2.693105e+03,1.278262e+03
2.695998e+03,1.282982e+03
2.698891e+03,1.250577e+03
2.701783e+03,1.251107e+03
2.704676e+03,1.224701e+03
2.707569e+03,1.275718e+03
2.710462e+03,1.262220e+03
2.713354e+03,1.228969e+03
2.716247e+03,1.248402e+03
2.719140e+03,1.263022e+03
2.722032e+03,1.227865e+03
2.724925e+03,1.229627e+03
2.727818e+03,1.230185e+03
2.730711e+03,1.229778e+03
2.733603e+03,1.228645e+03
2.736496e+03,1.211961e+03
2.739389e+03,1.227205e+03
2.742281e+03,1.241289e+03
2.745174e+03,1.226033e+03
2.748067e+03,1.216137e+03
2.750959e+03,1.194728e+03
2.753852e+03,1.181088e+03
2.756745e+03,1.198289e+03
2.759637e+03,1.198594e+03
2.762530e+03,1.217341e+03
2.765423e+03,1.193404e+03
2.768316e+03,1.184689e+03
2.771208e+03,1.194690e+03
2.774101e+03,1.180669e+03
2.776994e+03,1.197762e+03
2.779886e+03,1.169468e+03
2.782779e+03,1.192355e+03
2.785672e+03,1.172327e+03
2.788565e+03,1.167292e+03
2.791457e+03,1.195297e+03
2.794350e+03,1.151119e+03
2.797243e+03,1.160088e+03
2.800135e+03,1.162977e+03
2.803028e+03,1.156076e+03
2.805921e+03,1.164803e+03
2.808813e+03,1.152092e+03
2.811706e+03,1.166601e+03
2.814599e+03,1.157506e+03
2.817491e+03,1.150775e+03
2.820384e+03,1.145069e+03
2.823277e+03,1.156489e+03
2.826170e+03,1.128492e+03
2.829062e+03,1.159140e+03
2.831955e+03,1.158471e+03
2.834848e+03,1.155864e+03
2.837740e+03,1.150018e+03
2.840633e+03,1.127484e+03
2.843526e+03,1.135892e+03
2.846419e+03,1.114803e+03
2.849311e+03,1.154796e+03
2.852204e+03,1.158677e+03
2.855097e+03,1.124392e+03
2.857990e+03,1.138163e+03
2.860882e+03,1.141712e+03
2.863775e+03,1.139565e+03
2.866667e+03,1.142410e+03
2.869560e+03,1.131845e+03
2.872453e+03,1.141160e+03
2.875345e+03,1.135852e+03
2.878238e+03,1.144486e+03
2.881131e+03,1.119189e+03
2.884024e+03,1.144766e+03
2.886916e+03,1.142144e+03
2.889809e+03,1.136259e+03
2.892702e+03,1.146718e+03
2.895594e+03,1.146185e+03
2.898487e+03,1.138994e+03
2.901380e+03,1.127657e+03
2.904273e+03,1.121001e+03
2.907165e+03,1.103921e+03
2.910058e+03,1.113433e+03
2.912951e+03,1.115142e+03
2.915844e+03,1.104008e+03
2.918736e+03,1.113329e+03
2.921629e+03,1.112469e+03
2.924521e+03,1.107082e+03
2.927414e+03,1.103440e+03
2.930307e+03,1.078402e+03
2.933199e+03,1.080912e+03
2.936092e+03,1.067031e+03
2.938985e+03,1.078116e+03
2.941878e+03,1.059672e+03
2.944770e+03,1.091799e+03
2.947663e+03,1.062354e+03
2.950556e+03,1.095427e+03
2.953448e+03,1.084233e+03
2.956341e+03,1.109854e+03
2.959234e+03,1.101818e+03
2.962127e+03,1.061507e+03
2.965019e+03,1.053928e+03
2.967912e+03,1.050122e+03
2.970805e+03,1.063310e+03
2.973698e+03,1.022655e+03
2.976590e+03,1.041437e+03
2.979483e+03,1.041375e+03
2.982375e+03,1.027638e+03
2.985268e+03,1.044779e+03
2.988161e+03,1.024386e+03
2.991053e+03,1.048489e+03
2.993946e+03,9.868149e+02
2.996839e+03,1.046464e+03
2.999732e+03,1.025289e+03
3.002624e+03,9.924990e+02
3.005517e+03,1.021977e+03
3.008410e+03,9.948387e+02
3.011302e+03,9.934208e+02
3.014195e+03,1.016713e+03
3.017088e+03,1.005635e+03
3.019981e+03,1.020219e+03
3.022873e+03,9.941522e+02
3.025766e+03,9.967727e+02
3.028659e+03,1.003071e+03
3.031552e+03,1.006018e+03
3.034444e+03,9.809112e+02
3.037337e+03,1.013036e+03
3.040229e+03,1.004759e+03
3.043122e+03,1.006392e+03
3.046015e+03,1.001364e+03
3.048907e+03,9.342948e+02
3.051800e+03,9.769312e+02
3.054693e+03,9.725557e+02
3.057586e+03,1.024833e+03
3.060478e+03,9.802643e+02
3.063371e+03,9.984938e+02
3.066264e+03,9.616813e+02
3.069156e+03,1.011750e+03
3.072049e+03,9.760816e+02
3.074942e+03,9.911393e+02
3.077835e+03,9.937787e+02
3.080727e+03,9.592052e+02
3.083620e+03,9.857894e+02
3.086513e+03,1.007383e+03
3.089406e+03,9.805963e+02
3.092298e+03,9.673616e+02
3.095191e+03,9.768336e+02
3.098083e+03,9.616989e+02
3.100976e+03,9.795242e+02
3.103869e+03,9.492103e+02
3.106761e+03,9.512119e+02
3.109654e+03,9.880026e+02
3.112547e+03,9.500628e+02
3.115440e+03,9.573122e+02
3.118332e+03,1.006219e+03
3.121225e+03,9.780620e+02
3.124118e+03,9.465586e+02
3.127010e+03,9.532619e+02
3.129903e+03,9.690077e+02
3.132796e+03,9.684075e+02
3.135689e+03,9.627244e+02
3.138581e+03,9.695554e+02
3.141474e+03,9.903633e+02
3.144367e+03,9.623922e+02
3.147260e+03,9.490807e+02
3.150152e+03,9.593998e+02
3.153045e+03,9.484100e+02
3.155938e+03,9.382303e+02
3.158830e+03,9.537442e+02
3.161723e+03,1.003955e+03
3.164615e+03,9.879869e+02
3.167508e+03,9.683009e+02
3.170401e+03,9.629864e+02
3.173294e+03,9.787305e+02
3.176186e+03,9.776498e+02
3.179079e+03,9.638387e+02
3.181972e+03,9.856802e+02
3.184865e+03,9.314650e+02
3.187757e+03,9.731812e+02
3.190650e+03,9.472064e+02
3.193543e+03,9.323232e+02
3.196435e+03,9.954382e+02
3.199328e+03,1.022079e+03
3.200292e+03,1.032841e+03