File: RAMAN_data/06022023_r1/black fibre3.CSV
1.995979e+02,4.675490e+03
2.024906e+02,4.687472e+03
2.053833e+02,4.686022e+03
2.082760e+02,4.698696e+03
2.111687e+02,4.695388e+03
2.140614e+02,4.708528e+03
2.169541e+02,4.703797e+03
2.198468e+02,4.722612e+03
2.227395e+02,4.731131e+03
2.256322e+02,4.718370e+03
2.285249e+02,4.711986e+03
2.314176e+02,4.706651e+03
2.343103e+02,4.741466e+03
2.372030e+02,4.768205e+03
2.400957e+02,4.768661e+03
2.429884e+02,4.743167e+03
2.458811e+02,4.758452e+03
2.487738e+02,4.759265e+03
2.516665e+02,4.769675e+03
2.545592e+02,4.784512e+03
2.574519e+02,4.765242e+03
2.603446e+02,4.790200e+03
2.632373e+02,4.787905e+03
2.661300e+02,4.789118e+03
2.690227e+02,4.795740e+03
2.719154e+02,4.788503e+03
2.748081e+02,4.809087e+03
2.777008e+02,4.828583e+03
2.805935e+02,4.817605e+03
2.834862e+02,4.844483e+03
2.863789e+02,4.829562e+03
2.892716e+02,4.821236e+03
2.921643e+02,4.815140e+03
2.950570e+02,4.819293e+03
2.979497e+02,4.835210e+03
3.008424e+02,4.849169e+03
3.037351e+02,4.843228e+03
3.066278e+02,4.812784e+03
3.095205e+02,4.815900e+03
3.124132e+02,4.848201e+03
3.153059e+02,4.844676e+03
3.181986e+02,4.848674e+03
3.210913e+02,4.839907e+03
3.239840e+02,4.858901e+03
3.268767e+02,4.859805e+03
3.297694e+02,4.870989e+03
3.326621e+02,4.856088e+03
3.355548e+02,4.827852e+03
3.384475e+02,4.848185e+03
3.413402e+02,4.868173e+03
3.442329e+02,4.879318e+03
3.471256e+02,4.872081e+03
3.500183e+02,4.840224e+03
3.529110e+02,4.853616e+03
3.558037e+02,4.857068e+03
3.586964e+02,4.865221e+03
3.615891e+02,4.876058e+03
3.644818e+02,4.875417e+03
3.673745e+02,4.862078e+03
3.702672e+02,4.884637e+03
3.731599e+02,4.914757e+03
3.760526e+02,4.889335e+03
3.789453e+02,4.895822e+03
3.818380e+02,4.883861e+03
3.847307e+02,4.843463e+03
3.876234e+02,4.853072e+03
3.905161e+02,4.860717e+03
3.934088e+02,4.853417e+03
3.963015e+02,4.846311e+03
3.991942e+02,4.874752e+03
4.020869e+02,4.842791e+03
4.049796e+02,4.847086e+03
4.078723e+02,4.857035e+03
4.107650e+02,4.835624e+03
4.136577e+02,4.840796e+03
4.165504e+02,4.853891e+03
4.194431e+02,4.841633e+03
4.223358e+02,4.844268e+03
4.252285e+02,4.841654e+03
4.281212e+02,4.827239e+03
4.310139e+02,4.827260e+03
4.339066e+02,4.846198e+03
4.367993e+02,4.818671e+03
4.396920e+02,4.830081e+03
4.425847e+02,4.834313e+03
4.454774e+02,4.803773e+03
4.483701e+02,4.811600e+03
4.512628e+02,4.825376e+03
4.541555e+02,4.856634e+03
4.570482e+02,4.819814e+03
4.599409e+02,4.776849e+03
4.628336e+02,4.813817e+03
4.657263e+02,4.804199e+03
4.686190e+02,4.793078e+03
4.715117e+02,4.797495e+03
4.744044e+02,4.787862e+03
4.772971e+02,4.789652e+03
4.801898e+02,4.773050e+03
4.830825e+02,4.792735e+03
4.859752e+02,4.784519e+03
4.888679e+02,4.780062e+03
4.917606e+02,4.775538e+03
4.946533e+02,4.754539e+03
4.975460e+02,4.761032e+03
5.004387e+02,4.752833e+03
5.033314e+02,4.747123e+03
5.062241e+02,4.746072e+03
5.091168e+02,4.756655e+03
5.120095e+02,4.757933e+03
5.149022e+02,4.761715e+03
5.177949e+02,4.743380e+03
5.206876e+02,4.733528e+03
5.235803e+02,4.720542e+03
5.264730e+02,4.762333e+03
5.293657e+02,4.738230e+03
5.322584e+02,4.717282e+03
5.351511e+02,4.703255e+03
5.380438e+02,4.693115e+03
5.409365e+02,4.694393e+03
5.438292e+02,4.690468e+03
5.467219e+02,4.709258e+03
5.496146e+02,4.702787e+03
5.525073e+02,4.682184e+03
5.554000e+02,4.699230e+03
5.582927e+02,4.691138e+03
5.611854e+02,4.682728e+03
5.640781e+02,4.693542e+03
5.669708e+02,4.668189e+03
5.698635e+02,4.629266e+03
5.727562e+02,4.627120e+03
5.756489e+02,4.656209e+03
5.785416e+02,4.641390e+03
5.814343e+02,4.649486e+03
5.843270e+02,4.635862e+03
5.872197e+02,4.645676e+03
5.901124e+02,4.634525e+03
5.930051e+02,4.628056e+03
5.958978e+02,4.635338e+03
5.987905e+02,4.613667e+03
6.016832e+02,4.595719e+03
6.045759e+02,4.610977e+03
6.074686e+02,4.609378e+03
6.103613e+02,4.591049e+03
6.132540e+02,4.597712e+03
6.161467e+02,4.585182e+03
6.190394e+02,4.574846e+03
6.219321e+02,4.577475e+03
6.248248e+02,4.566037e+03
6.277175e+02,4.565091e+03
6.306102e+02,4.557438e+03
6.335029e+02,4.543810e+03
6.363956e+02,4.533117e+03
6.392883e+02,4.520092e+03
6.421810e+02,4.508670e+03
6.450737e+02,4.530326e+03
6.479664e+02,4.528745e+03
6.508591e+02,4.522713e+03
6.537518e+02,4.500591e+03
6.566445e+02,4.510049e+03
6.595372e+02,4.495936e+03
6.624299e+02,4.490696e+03
6.653226e+02,4.468070e+03
6.682153e+02,4.483197e+03
6.711080e+02,4.473119e+03
6.740007e+02,4.474531e+03
6.768934e+02,4.457403e+03
6.797861e+02,4.462407e+03
6.826788e+02,4.445987e+03
6.855715e+02,4.431281e+03
6.884642e+02,4.438375e+03
6.913569e+02,4.439275e+03
6.942496e+02,4.420979e+03
6.971423e+02,4.403419e+03
7.000350e+02,4.411578e+03
7.029277e+02,4.406609e+03
7.058204e+02,4.388503e+03
7.087131e+02,4.380862e+03
7.116058e+02,4.373011e+03
7.144985e+02,4.357022e+03
7.173912e+02,4.386607e+03
7.202839e+02,4.354934e+03
7.231766e+02,4.343843e+03
7.260693e+02,4.347783e+03
7.289620e+02,4.336006e+03
7.318547e+02,4.347247e+03
7.347474e+02,4.328413e+03
7.376401e+02,4.308479e+03
7.405328e+02,4.319002e+03
7.434255e+02,4.291690e+03
7.463182e+02,4.308080e+03
7.492109e+02,4.298727e+03
7.521036e+02,4.262473e+03
7.549963e+02,4.274968e+03
7.578890e+02,4.277599e+03
7.607817e+02,4.274527e+03
7.636744e+02,4.268038e+03
7.665671e+02,4.271596e+03
7.694598e+02,4.241935e+03
7.723525e+02,4.241094e+03
7.752452e+02,4.256280e+03
7.781379e+02,4.244071e+03
7.810306e+02,4.216577e+03
7.839233e+02,4.214820e+03
7.868160e+02,4.221028e+03
7.897087e+02,4.193770e+03
7.926014e+02,4.198989e+03
7.954941e+02,4.204575e+03
7.983868e+02,4.185519e+03
8.012795e+02,4.174455e+03
8.041722e+02,4.175728e+03
8.070649e+02,4.154245e+03
8.099576e+02,4.139978e+03
8.128503e+02,4.140175e+03
8.157430e+02,4.152559e+03
8.186357e+02,4.127972e+03
8.215284e+02,4.136918e+03
8.244211e+02,4.128196e+03
8.273138e+02,4.119631e+03
8.302065e+02,4.091332e+03
8.330992e+02,4.091333e+03
8.359919e+02,4.098913e+03
8.388846e+02,4.112307e+03
8.417773e+02,4.101110e+03
8.446700e+02,4.099470e+03
8.475627e+02,4.079258e+03
8.504554e+02,4.053606e+03
8.533481e+02,4.055891e+03
8.562408e+02,4.043082e+03
8.591335e+02,4.049503e+03
8.620262e+02,4.013769e+03
8.649189e+02,4.019351e+03
8.678116e+02,4.029162e+03
8.707043e+02,4.018736e+03
8.735970e+02,4.000621e+03
8.764897e+02,4.001375e+03
8.793824e+02,3.985260e+03
8.822751e+02,3.992938e+03
8.851678e+02,4.001208e+03
8.880605e+02,3.971380e+03
8.909532e+02,3.981320e+03
8.938459e+02,3.966442e+03
8.967386e+02,3.972110e+03
8.996313e+02,3.949726e+03
9.025240e+02,3.950884e+03
9.054167e+02,3.935424e+03
9.083094e+02,3.915060e+03
9.112021e+02,3.920705e+03
9.140948e+02,3.900200e+03
9.169875e+02,3.897969e+03
9.198802e+02,3.872467e+03
9.227729e+02,3.867985e+03
9.256656e+02,3.866723e+03
9.285583e+02,3.873184e+03
9.314510e+02,3.874164e+03
9.343438e+02,3.862632e+03
9.372365e+02,3.847488e+03
9.401292e+02,3.841099e+03
9.430219e+02,3.837918e+03
9.459146e+02,3.808063e+03
9.488073e+02,3.808861e+03
9.517000e+02,3.808756e+03
9.545927e+02,3.798669e+03
9.574854e+02,3.803059e+03
9.603781e+02,3.796618e+03
9.632708e+02,3.792687e+03
9.661635e+02,3.768383e+03
9.690562e+02,3.776492e+03
9.719489e+02,3.771282e+03
9.748416e+02,3.743642e+03
9.777343e+02,3.765878e+03
9.806270e+02,3.755371e+03
9.835197e+02,3.730105e+03
9.864124e+02,3.717098e+03
9.893051e+02,3.729297e+03
9.921978e+02,3.712634e+03
9.950905e+02,3.727988e+03
9.979832e+02,3.711684e+03
1.000876e+03,3.702583e+03
1.003769e+03,3.679067e+03
1.006661e+03,3.676137e+03
1.009554e+03,3.689805e+03
1.012447e+03,3.689707e+03
1.015339e+03,3.653382e+03
1.018232e+03,3.633290e+03
1.021125e+03,3.631441e+03
1.024017e+03,3.658778e+03
1.026910e+03,3.640898e+03
1.029803e+03,3.638434e+03
1.032696e+03,3.634010e+03
1.035588e+03,3.631748e+03
1.038481e+03,3.626384e+03
1.041374e+03,3.619313e+03
1.044266e+03,3.596606e+03
1.047159e+03,3.577942e+03
1.050052e+03,3.597519e+03
1.052944e+03,3.610039e+03
1.055837e+03,3.592264e+03
1.058730e+03,3.573093e+03
1.061623e+03,3.556455e+03
1.064515e+03,3.541551e+03
1.067408e+03,3.557080e+03
1.070301e+03,3.555680e+03
1.073193e+03,3.559659e+03
1.076086e+03,3.539213e+03
1.078979e+03,3.530048e+03
1.081871e+03,3.541945e+03
1.084764e+03,3.544326e+03
1.087657e+03,3.554772e+03
1.090550e+03,3.556027e+03
1.093442e+03,3.545154e+03
1.096335e+03,3.539815e+03
1.099228e+03,3.515554e+03
1.102120e+03,3.500458e+03
1.105013e+03,3.497366e+03
1.107906e+03,3.489127e+03
1.110798e+03,3.475446e+03
1.113691e+03,3.481018e+03
1.116584e+03,3.501043e+03
1.119477e+03,3.497048e+03
1.122369e+03,3.463145e+03
1.125262e+03,3.466400e+03
1.128155e+03,3.455628e+03
1.131047e+03,3.446244e+03
1.133940e+03,3.439959e+03
1.136833e+03,3.416529e+03
1.139725e+03,3.398572e+03
1.142618e+03,3.408448e+03
1.145511e+03,3.403121e+03
1.148404e+03,3.410197e+03
1.151296e+03,3.402199e+03
1.154189e+03,3.393031e+03
1.157082e+03,3.358334e+03
1.159974e+03,3.376063e+03
1.162867e+03,3.364839e+03
1.165760e+03,3.351896e+03
1.168652e+03,3.341398e+03
1.171545e+03,3.334626e+03
1.174438e+03,3.327737e+03
1.177331e+03,3.335306e+03
1.180223e+03,3.318735e+03
1.183116e+03,3.310664e+03
1.186009e+03,3.307177e+03
1.188901e+03,3.293787e+03
1.191794e+03,3.279457e+03
1.194687e+03,3.282549e+03
1.197579e+03,3.304670e+03
1.200472e+03,3.280207e+03
1.203365e+03,3.264427e+03
1.206258e+03,3.251679e+03
1.209150e+03,3.258068e+03
1.212043e+03,3.256642e+03
1.214936e+03,3.250020e+03
1.217828e+03,3.254104e+03
1.220721e+03,3.243473e+03
1.223614e+03,3.229227e+03
1.226506e+03,3.230316e+03
1.229399e+03,3.217420e+03
1.232292e+03,3.211922e+03
1.235185e+03,3.196516e+03
1.238077e+03,3.206190e+03
1.240970e+03,3.204784e+03
1.243863e+03,3.191778e+03
1.246755e+03,3.179006e+03
1.249648e+03,3.174102e+03
1.252541e+03,3.175847e+03
1.255433e+03,3.171106e+03
1.258326e+03,3.165863e+03
1.261219e+03,3.164463e+03
1.264112e+03,3.149035e+03
1.267004e+03,3.137812e+03
1.269897e+03,3.147856e+03
1.272790e+03,3.158221e+03
1.275682e+03,3.138614e+03
1.278575e+03,3.146108e+03
1.281468e+03,3.137008e+03
1.284360e+03,3.146351e+03
1.287253e+03,3.122429e+03
1.290146e+03,3.130076e+03
1.293039e+03,3.110653e+03
1.295931e+03,3.099278e+03
1.298824e+03,3.082186e+03
1.301717e+03,3.099673e+03
1.304609e+03,3.092488e+03
1.307502e+03,3.071637e+03
1.310395e+03,3.061734e+03
1.313287e+03,3.068114e+03
1.316180e+03,3.066692e+03
1.319073e+03,3.065716e+03
1.321966e+03,3.072682e+03
1.324858e+03,3.055644e+03
1.327751e+03,3.044774e+03
1.330644e+03,3.060876e+03
1.333536e+03,3.051481e+03
1.336429e+03,3.055798e+03
1.339322e+03,3.046120e+03
1.342214e+03,3.033619e+03
1.345107e+03,3.038363e+03
1.348000e+03,3.026526e+03
1.350893e+03,3.018366e+03
1.353785e+03,3.019941e+03
1.356678e+03,3.012718e+03
1.359571e+03,3.004556e+03
1.362463e+03,2.983901e+03
1.365356e+03,2.995290e+03
1.368249e+03,2.995743e+03
1.371141e+03,2.976459e+03
1.374034e+03,2.984309e+03
1.376927e+03,2.978443e+03
1.379820e+03,2.982641e+03
1.382712e+03,2.943003e+03
1.385605e+03,2.958421e+03
1.388498e+03,2.938332e+03
1.391390e+03,2.925691e+03
1.394283e+03,2.906612e+03
1.397176e+03,2.921252e+03
1.400068e+03,2.923019e+03
1.402961e+03,2.914716e+03
1.405854e+03,2.907573e+03
1.408747e+03,2.909532e+03
1.411639e+03,2.904547e+03
1.414532e+03,2.905292e+03
1.417425e+03,2.890768e+03
1.420317e+03,2.887989e+03
1.423210e+03,2.860339e+03
1.426103e+03,2.860284e+03
1.428995e+03,2.871175e+03
1.431888e+03,2.848277e+03
1.434781e+03,2.851905e+03
1.437674e+03,2.845591e+03
1.440566e+03,2.841084e+03
1.443459e+03,2.840302e+03
1.446352e+03,2.815198e+03
1.449244e+03,2.824202e+03
1.452137e+03,2.808666e+03
1.455030e+03,2.800350e+03
1.457922e+03,2.802791e+03
1.460815e+03,2.791842e+03
1.463708e+03,2.799035e+03
1.466601e+03,2.794531e+03
1.469493e+03,2.778592e+03
1.472386e+03,2.791111e+03
1.475279e+03,2.781212e+03
1.478171e+03,2.789887e+03
1.481064e+03,2.762914e+03
1.483957e+03,2.756184e+03
1.486849e+03,2.759431e+03
1.489742e+03,2.749505e+03
1.492635e+03,2.748220e+03
1.495528e+03,2.727103e+03
1.498420e+03,2.738608e+03
1.501313e+03,2.739104e+03
1.504206e+03,2.719637e+03
1.507098e+03,2.711744e+03
1.509991e+03,2.720795e+03
1.512884e+03,2.696474e+03
1.515776e+03,2.707385e+03
1.518669e+03,2.712748e+03
1.521562e+03,2.686031e+03
1.524455e+03,2.692097e+03
1.527347e+03,2.676519e+03
1.530240e+03,2.676328e+03
1.533133e+03,2.672075e+03
1.536025e+03,2.683711e+03
1.538918e+03,2.655066e+03
1.541811e+03,2.654419e+03
1.544703e+03,2.659079e+03
1.547596e+03,2.653079e+03
1.550489e+03,2.653148e+03
1.553382e+03,2.648386e+03
1.556274e+03,2.651632e+03
1.559167e+03,2.649863e+03
1.562060e+03,2.635780e+03
1.564952e+03,2.617521e+03
1.567845e+03,2.641941e+03
1.570738e+03,2.637668e+03
1.573630e+03,2.628691e+03
1.576523e+03,2.612800e+03
1.579416e+03,2.600513e+03
1.582309e+03,2.619743e+03
1.585201e+03,2.610795e+03
1.588094e+03,2.600418e+03
1.590987e+03,2.579772e+03
1.593879e+03,2.568496e+03
1.596772e+03,2.600293e+03
1.599665e+03,2.572059e+03
1.602557e+03,2.559717e+03
1.605450e+03,2.566692e+03
1.608343e+03,2.562413e+03
1.611236e+03,2.555150e+03
1.614128e+03,2.558915e+03
1.617021e+03,2.548939e+03
1.619914e+03,2.548932e+03
1.622806e+03,2.520349e+03
1.625699e+03,2.535219e+03
1.628592e+03,2.550228e+03
1.631484e+03,2.510746e+03
1.634377e+03,2.507127e+03
1.637270e+03,2.494799e+03
1.640163e+03,2.495867e+03
1.643055e+03,2.486262e+03
1.645948e+03,2.485211e+03
1.648841e+03,2.470827e+03
1.651733e+03,2.470150e+03
1.654626e+03,2.477434e+03
1.657519e+03,2.459662e+03
1.660411e+03,2.464070e+03
1.663304e+03,2.452493e+03
1.666197e+03,2.446664e+03
1.669090e+03,2.449479e+03
1.671982e+03,2.421496e+03
1.674875e+03,2.429765e+03
1.677768e+03,2.438195e+03
1.680660e+03,2.428937e+03
1.683553e+03,2.421864e+03
1.686446e+03,2.410724e+03
1.689339e+03,2.401212e+03
1.692231e+03,2.411073e+03
1.695124e+03,2.394749e+03
1.698017e+03,2.389576e+03
1.700909e+03,2.390118e+03
1.703802e+03,2.368555e+03
1.706695e+03,2.375384e+03
1.709587e+03,2.380476e+03
1.712480e+03,2.359146e+03
1.715373e+03,2.341366e+03
1.718266e+03,2.361773e+03
1.721158e+03,2.342715e+03
1.724051e+03,2.341816e+03
1.726944e+03,2.331626e+03
1.729836e+03,2.347015e+03
1.732729e+03,2.327786e+03
1.735622e+03,2.348952e+03
1.738514e+03,2.312681e+03
1.741407e+03,2.312566e+03
1.744300e+03,2.311648e+03
1.747193e+03,2.296699e+03
1.750085e+03,2.310603e+03
1.752978e+03,2.280120e+03
1.755871e+03,2.285428e+03
1.758763e+03,2.290588e+03
1.761656e+03,2.276251e+03
1.764549e+03,2.272890e+03
1.767441e+03,2.263362e+03
1.770334e+03,2.257979e+03
1.773227e+03,2.257719e+03
1.776120e+03,2.256001e+03
1.779012e+03,2.224214e+03
1.781905e+03,2.261373e+03
1.784798e+03,2.266109e+03
1.787690e+03,2.226808e+03
1.790583e+03,2.210319e+03
1.793476e+03,2.214914e+03
1.796368e+03,2.207999e+03
1.799261e+03,2.222113e+03
1.802154e+03,2.207266e+03
1.805047e+03,2.183236e+03
1.807939e+03,2.180898e+03
1.810832e+03,2.196029e+03
1.813725e+03,2.193910e+03
1.816617e+03,2.176695e+03
1.819510e+03,2.175902e+03
1.822403e+03,2.167745e+03
1.825295e+03,2.162610e+03
1.828188e+03,2.163423e+03
1.831081e+03,2.161837e+03
1.833974e+03,2.144200e+03
1.836866e+03,2.165638e+03
1.839759e+03,2.134886e+03
1.842652e+03,2.138734e+03
1.845544e+03,2.132952e+03
1.848437e+03,2.133260e+03
1.851330e+03,2.115523e+03
1.854222e+03,2.110875e+03
1.857115e+03,2.098443e+03
1.860008e+03,2.109714e+03
1.862901e+03,2.083097e+03
1.865793e+03,2.100408e+03
1.868686e+03,2.084876e+03
1.871579e+03,2.064292e+03
1.874471e+03,2.080160e+03
1.877364e+03,2.077040e+03
1.880257e+03,2.074107e+03
1.883149e+03,2.061527e+03
1.886042e+03,2.051930e+03
1.888935e+03,2.043660e+03
1.891828e+03,2.036026e+03
1.894720e+03,2.044297e+03
1.897613e+03,2.026530e+03
1.900506e+03,2.022324e+03
1.903398e+03,2.041688e+03
1.906291e+03,2.017037e+03
1.909184e+03,2.012230e+03
1.912076e+03,2.020215e+03
1.914969e+03,2.007617e+03
1.917862e+03,1.991752e+03
1.920755e+03,1.988705e+03
1.923647e+03,1.983616e+03
1.926540e+03,1.983276e+03
1.929433e+03,1.981790e+03
1.932325e+03,1.956107e+03
1.935218e+03,1.975278e+03
1.938111e+03,1.947435e+03
1.941003e+03,1.964679e+03
1.943896e+03,1.939929e+03
1.946789e+03,1.944721e+03
1.949682e+03,1.931291e+03
1.952574e+03,1.942287e+03
1.955467e+03,1.932503e+03
1.958360e+03,1.912388e+03
1.961252e+03,1.906779e+03
1.964145e+03,1.905650e+03
1.967038e+03,1.908148e+03
1.969930e+03,1.905932e+03
1.972823e+03,1.907274e+03
1.975716e+03,1.888569e+03
1.978609e+03,1.880087e+03
1.981501e+03,1.871348e+03
1.984394e+03,1.863241e+03
1.987287e+03,1.884781e+03
1.990179e+03,1.860579e+03
1.993072e+03,1.844925e+03
1.995965e+03,1.855640e+03
1.998857e+03,1.858487e+03
2.001750e+03,1.830957e+03
2.004643e+03,1.846534e+03
2.007536e+03,1.844803e+03
2.010428e+03,1.824490e+03
2.013321e+03,1.824495e+03
2.016214e+03,1.827540e+03
2.019106e+03,1.809593e+03
2.021999e+03,1.801909e+03
2.024892e+03,1.803219e+03
2.027784e+03,1.789783e+03
2.030677e+03,1.788892e+03
2.033570e+03,1.804204e+03
2.036463e+03,1.805214e+03
2.039355e+03,1.784843e+03
2.042248e+03,1.770717e+03
2.045141e+03,1.782038e+03
2.048033e+03,1.766597e+03
2.050926e+03,1.782775e+03
2.053819e+03,1.752248e+03
2.056711e+03,1.736546e+03
2.059604e+03,1.741386e+03
2.062497e+03,1.748149e+03
2.065390e+03,1.748183e+03
2.068282e+03,1.729461e+03
2.071175e+03,1.721951e+03
2.074068e+03,1.717547e+03
2.076960e+03,1.732276e+03
2.079853e+03,1.700462e+03
2.082746e+03,1.698470e+03
2.085638e+03,1.689673e+03
2.088531e+03,1.704429e+03
2.091424e+03,1.686107e+03
2.094316e+03,1.687188e+03
2.097209e+03,1.669643e+03
2.100102e+03,1.679001e+03
2.102995e+03,1.650585e+03
2.105887e+03,1.652459e+03
2.108780e+03,1.662249e+03
2.111673e+03,1.637689e+03
2.114565e+03,1.646045e+03
2.117458e+03,1.643745e+03
2.120351e+03,1.649956e+03
2.123244e+03,1.638380e+03
2.126136e+03,1.614209e+03
2.129029e+03,1.623296e+03
2.131922e+03,1.614896e+03
2.134814e+03,1.592433e+03
2.137707e+03,1.604619e+03
2.140600e+03,1.602697e+03
2.143492e+03,1.575335e+03
2.146385e+03,1.565927e+03
2.149278e+03,1.604135e+03
2.152170e+03,1.574580e+03
2.155063e+03,1.576938e+03
2.157956e+03,1.554519e+03
2.160849e+03,1.563223e+03
2.163741e+03,1.562780e+03
2.166634e+03,1.528367e+03
2.169527e+03,1.545389e+03
2.172419e+03,1.542576e+03
2.175312e+03,1.535112e+03
2.178205e+03,1.530240e+03
2.181098e+03,1.521098e+03
2.183990e+03,1.528381e+03
2.186883e+03,1.517855e+03
2.189776e+03,1.527525e+03
2.192668e+03,1.499926e+03
2.195561e+03,1.485765e+03
2.198454e+03,1.498715e+03
2.201346e+03,1.483954e+03
2.204239e+03,1.500380e+03
2.207132e+03,1.480743e+03
2.210024e+03,1.469123e+03
2.212917e+03,1.451212e+03
2.215810e+03,1.474845e+03
2.218703e+03,1.448018e+03
2.221595e+03,1.456485e+03
2.224488e+03,1.454779e+03
2.227381e+03,1.440740e+03
2.230273e+03,1.431480e+03
2.233166e+03,1.435080e+03
2.236059e+03,1.439220e+03
2.238952e+03,1.419381e+03
2.241844e+03,1.424912e+03
2.244737e+03,1.418558e+03
2.247630e+03,1.398967e+03
2.250522e+03,1.394791e+03
2.253415e+03,1.398485e+03
2.256308e+03,1.401664e+03
2.259200e+03,1.380791e+03
2.262093e+03,1.373253e+03
2.264986e+03,1.375786e+03
2.267879e+03,1.378678e+03
2.270771e+03,1.380756e+03
2.273664e+03,1.371006e+03
2.276557e+03,1.367173e+03
2.279449e+03,1.363551e+03
2.282342e+03,1.364390e+03
2.285235e+03,1.342950e+03
2.288127e+03,1.340019e+03
2.291020e+03,1.344388e+03
2.293913e+03,1.327987e+03
2.296805e+03,1.322634e+03
2.299698e+03,1.334336e+03
2.302591e+03,1.336850e+03
2.305484e+03,1.320402e+03
2.308376e+03,1.314333e+03
2.311269e+03,1.311942e+03
2.314162e+03,1.317207e+03
2.317054e+03,1.290554e+03
2.319947e+03,1.301438e+03
2.322840e+03,1.291592e+03
2.325733e+03,1.283013e+03
2.328625e+03,1.285634e+03
2.331518e+03,1.283027e+03
2.334411e+03,1.272707e+03
2.337303e+03,1.261756e+03
2.340196e+03,1.243503e+03
2.343089e+03,1.266760e+03
2.345981e+03,1.260477e+03
2.348874e+03,1.251012e+03
2.351767e+03,1.227843e+03
2.354659e+03,1.251171e+03
2.357552e+03,1.242592e+03
2.360445e+03,1.234129e+03
2.363338e+03,1.234208e+03
2.366230e+03,1.225188e+03
2.369123e+03,1.224510e+03
2.372016e+03,1.221030e+03
2.374908e+03,1.229317e+03
2.377801e+03,1.221663e+03
2.380694e+03,1.203421e+03
2.383587e+03,1.193111e+03
2.386479e+03,1.217930e+03
2.389372e+03,1.194031e+03
2.392265e+03,1.189223e+03
2.395157e+03,1.187679e+03
2.398050e+03,1.178034e+03
2.400943e+03,1.180544e+03
2.403835e+03,1.178588e+03
2.406728e+03,1.178413e+03
2.409621e+03,1.173723e+03
2.412513e+03,1.169962e+03
2.415406e+03,1.148116e+03
2.418299e+03,1.165592e+03
2.421192e+03,1.158207e+03
2.424084e+03,1.153818e+03
2.426977e+03,1.137014e+03
2.429870e+03,1.151954e+03
2.432762e+03,1.140750e+03
2.435655e+03,1.152852e+03
2.438548e+03,1.138491e+03
2.441441e+03,1.128352e+03
2.444333e+03,1.118699e+03
2.447226e+03,1.114334e+03
2.450119e+03,1.112144e+03
2.453011e+03,1.130105e+03
2.455904e+03,1.094381e+03
2.458797e+03,1.120830e+03
2.461689e+03,1.096109e+03
2.464582e+03,1.092348e+03
2.467475e+03,1.110482e+03
2.470367e+03,1.091208e+03
2.473260e+03,1.085829e+03
2.476153e+03,1.094638e+03
2.479046e+03,1.091681e+03
2.481938e+03,1.092924e+03
2.484831e+03,1.079093e+03
2.487724e+03,1.093422e+03
2.490616e+03,1.068830e+03
2.493509e+03,1.057288e+03
2.496402e+03,1.059711e+03
2.499295e+03,1.060420e+03
2.502187e+03,1.047646e+03
2.505080e+03,1.069620e+03
2.507973e+03,1.043851e+03
2.510865e+03,1.045407e+03
2.513758e+03,1.053063e+03
2.516651e+03,1.054483e+03
2.519543e+03,1.027716e+03
2.522436e+03,1.039030e+03
2.525329e+03,1.024079e+03
2.528221e+03,1.026338e+03
2.531114e+03,1.028214e+03
2.534007e+03,1.019625e+03
2.536900e+03,1.032197e+03
2.539792e+03,1.014105e+03
2.542685e+03,1.012663e+03
2.545578e+03,1.007583e+03
2.548470e+03,1.021365e+03
2.551363e+03,1.017281e+03
2.554256e+03,1.017201e+03
2.557149e+03,1.006206e+03
2.560041e+03,1.012665e+03
2.562934e+03,1.011046e+03
2.565827e+03,1.013988e+03
2.568719e+03,9.962394e+02
2.571612e+03,9.918245e+02
2.574505e+03,9.904104e+02
2.577397e+03,9.881073e+02
2.580290e+03,9.721279e+02
2.583183e+03,9.669151e+02
2.586075e+03,9.549644e+02
2.588968e+03,9.787474e+02
2.591861e+03,9.680311e+02
2.594754e+03,9.623527e+02
2.597646e+03,9.646241e+02
2.600539e+03,9.738368e+02
2.603432e+03,9.541462e+02
2.606324e+03,9.529926e+02
2.609217e+03,9.495672e+02
2.612110e+03,9.364352e+02
2.615003e+03,9.307841e+02
2.617895e+03,9.567726e+02
2.620788e+03,9.261962e+02
2.623681e+03,9.462258e+02
2.626573e+03,9.464473e+02
2.629466e+03,9.251689e+02
2.632359e+03,9.304081e+02
2.635251e+03,9.201262e+02
2.638144e+03,9.297654e+02
2.641037e+03,9.184103e+02
2.643929e+03,9.134078e+02
2.646822e+03,9.207372e+02
2.649715e+03,9.042164e+02
2.652608e+03,9.223636e+02
2.655500e+03,9.071271e+02
2.658393e+03,9.017005e+02
2.661286e+03,9.087410e+02
2.664178e+03,9.063757e+02
2.667071e+03,8.907250e+02
2.669964e+03,9.006392e+02
2.672857e+03,8.919070e+02
2.675749e+03,8.854413e+02
2.678642e+03,8.818922e+02
2.681535e+03,8.921530e+02
2.684427e+03,8.737568e+02
2.687320e+03,8.817947e+02
2.690213e+03,8.815225e+02
2.693105e+03,8.818111e+02
2.695998e+03,8.703826e+02
2.698891e+03,8.727247e+02
2.701783e+03,8.837677e+02
2.704676e+03,8.647138e+02
2.707569e+03,8.581583e+02
2.710462e+03,8.710585e+02
2.713354e+03,8.625818e+02
2.716247e+03,8.511497e+02
2.719140e+03,8.691213e+02
2.722032e+03,8.738738e+02
2.724925e+03,8.533343e+02
2.727818e+03,8.548407e+02
2.730711e+03,8.419330e+02
2.733603e+03,8.659678e+02
2.736496e+03,8.327627e+02
2.739389e+03,8.375447e+02
2.742281e+03,8.479236e+02
2.745174e+03,8.590157e+02
2.748067e+03,8.414815e+02
2.750959e+03,8.378511e+02
2.753852e+03,8.328288e+02
2.756745e+03,8.236176e+02
2.759637e+03,8.487064e+02
2.762530e+03,8.475998e+02
2.765423e+03,8.205858e+02
2.768316e+03,8.239271e+02
2.771208e+03,7.958600e+02
2.774101e+03,8.372792e+02
2.776994e+03,8.172903e+02
2.779886e+03,8.056078e+02
2.782779e+03,8.222787e+02
2.785672e+03,8.312234e+02
2.788565e+03,7.960884e+02
2.791457e+03,8.174914e+02
2.794350e+03,8.122857e+02
2.797243e+03,8.202116e+02
2.800135e+03,8.118182e+02
2.803028e+03,8.090871e+02
2.805921e+03,8.182982e+02
2.808813e+03,8.003773e+02
2.811706e+03,7.869550e+02
2.814599e+03,7.770577e+02
2.817491e+03,8.099619e+02
2.820384e+03,7.943200e+02
2.823277e+03,8.117354e+02
2.826170e+03,7.858655e+02
2.829062e+03,7.802906e+02
2.831955e+03,7.861522e+02
2.834848e+03,7.872132e+02
2.837740e+03,7.989753e+02
2.840633e+03,7.866082e+02
2.843526e+03,8.012110e+02
2.846419e+03,7.919655e+02
2.849311e+03,7.917457e+02
2.852204e+03,7.787431e+02
2.855097e+03,7.975228e+02
2.857990e+03,7.776132e+02
2.860882e+03,7.974510e+02
2.863775e+03,7.829991e+02
2.866667e+03,8.112966e+02
2.869560e+03,7.977581e+02
2.872453e+03,7.897256e+02
2.875345e+03,8.015194e+02
2.878238e+03,7.959534e+02
2.881131e+03,7.946758e+02
2.884024e+03,8.121746e+02
2.886916e+03,8.101899e+02
2.889809e+03,8.064929e+02
2.892702e+03,8.011844e+02
2.895594e+03,7.848347e+02
2.898487e+03,7.917432e+02
2.901380e+03,8.117977e+02
2.904273e+03,8.036942e+02
2.907165e+03,7.695665e+02
2.910058e+03,7.837219e+02
2.912951e+03,7.706398e+02
2.915844e+03,7.822187e+02
2.918736e+03,7.676205e+02
2.921629e+03,7.509349e+02
2.924521e+03,7.527998e+02
2.927414e+03,7.630348e+02
2.930307e+03,7.312296e+02
2.933199e+03,7.639249e+02
2.936092e+03,7.521887e+02
2.938985e+03,7.568776e+02
2.941878e+03,7.335282e+02
2.944770e+03,7.622005e+02
2.947663e+03,7.492738e+02
2.950556e+03,7.746212e+02
2.953448e+03,7.451390e+02
2.956341e+03,7.705136e+02
2.959234e+03,7.696699e+02
2.962127e+03,7.352556e+02
2.965019e+03,7.324875e+02
2.967912e+03,7.460157e+02
2.970805e+03,7.186121e+02
2.973698e+03,7.099689e+02
2.976590e+03,7.149850e+02
2.979483e+03,7.038858e+02
2.982375e+03,6.925017e+02
2.985268e+03,7.196292e+02
2.988161e+03,6.995937e+02
2.991053e+03,6.959337e+02
2.993946e+03,7.163405e+02
2.996839e+03,7.087828e+02
2.999732e+03,6.835983e+02
3.002624e+03,7.113209e+02
3.005517e+03,6.860214e+02
3.008410e+03,6.836791e+02
3.011302e+03,7.336082e+02
3.014195e+03,7.059348e+02
3.017088e+03,7.183990e+02
3.019981e+03,7.055416e+02
3.022873e+03,6.809318e+02
3.025766e+03,6.990390e+02
3.028659e+03,6.582472e+02
3.031552e+03,6.845643e+02
3.034444e+03,7.016696e+02
3.037337e+03,6.798349e+02
3.040229e+03,6.664070e+02
3.043122e+03,6.775111e+02
3.046015e+03,6.829045e+02
3.048907e+03,6.698083e+02
3.051800e+03,6.645681e+02
3.054693e+03,6.837291e+02
3.057586e+03,6.675166e+02
3.060478e+03,6.961264e+02
3.063371e+03,7.221664e+02
3.066264e+03,6.713362e+02
3.069156e+03,6.754803e+02
3.072049e+03,7.027960e+02
3.074942e+03,6.595399e+02
3.077835e+03,6.773534e+02
3.080727e+03,6.616612e+02
3.083620e+03,6.726970e+02
3.086513e+03,7.065483e+02
3.089406e+03,6.761883e+02
3.092298e+03,7.052308e+02
3.095191e+03,6.764551e+02
3.098083e+03,6.705092e+02
3.100976e+03,7.358237e+02
3.103869e+03,6.766356e+02
3.106761e+03,6.460854e+02
3.109654e+03,6.654573e+02
3.112547e+03,6.626633e+02
3.115440e+03,6.588567e+02
3.118332e+03,6.857897e+02
3.121225e+03,6.635884e+02
3.124118e+03,6.546099e+02
3.127010e+03,6.720720e+02
3.129903e+03,6.688972e+02
3.132796e+03,6.724113e+02
3.135689e+03,6.572371e+02
3.138581e+03,6.844777e+02
3.141474e+03,7.055371e+02
3.144367e+03,6.758963e+02
3.147260e+03,6.285721e+02
3.150152e+03,6.943188e+02
3.153045e+03,6.493090e+02
3.155938e+03,6.643664e+02
3.158830e+03,7.005087e+02
3.161723e+03,6.536903e+02
3.164615e+03,6.450190e+02
3.167508e+03,6.907862e+02
3.170401e+03,6.512698e+02
3.173294e+03,6.734577e+02
3.176186e+03,6.930248e+02
3.179079e+03,6.932940e+02
3.181972e+03,6.765697e+02
3.184865e+03,6.816155e+02
3.187757e+03,6.721615e+02
3.190650e+03,6.606375e+02
3.193543e+03,6.687454e+02
3.196435e+03,6.821658e+02
3.199328e+03,6.961324e+02
3.200292e+03,7.005904e+02