File: RAMAN_data/06022023_r1/black fibre11.CSV
1.995979e+02,7.086858e+03
2.024906e+02,7.128533e+03
2.053833e+02,7.184205e+03
2.082760e+02,7.198943e+03
2.111687e+02,7.207299e+03
2.140614e+02,7.210342e+03
2.169541e+02,7.224979e+03
2.198468e+02,7.224985e+03
2.227395e+02,7.233542e+03
2.256322e+02,7.220058e+03
2.285249e+02,7.241569e+03
2.314176e+02,7.269881e+03
2.343103e+02,7.299431e+03
2.372030e+02,7.318093e+03
2.400957e+02,7.307449e+03
2.429884e+02,7.314111e+03
2.458811e+02,7.371209e+03
2.487738e+02,7.383495e+03
2.516665e+02,7.391265e+03
2.545592e+02,7.415984e+03
2.574519e+02,7.433017e+03
2.603446e+02,7.450100e+03
2.632373e+02,7.481670e+03
2.661300e+02,7.520967e+03
2.690227e+02,7.542206e+03
2.719154e+02,7.540100e+03
2.748081e+02,7.553146e+03
2.777008e+02,7.599063e+03
2.805935e+02,7.614480e+03
2.834862e+02,7.651562e+03
2.863789e+02,7.639917e+03
2.892716e+02,7.629668e+03
2.921643e+02,7.668819e+03
2.950570e+02,7.659927e+03
2.979497e+02,7.683716e+03
3.008424e+02,7.711570e+03
3.037351e+02,7.725886e+03
3.066278e+02,7.711934e+03
3.095205e+02,7.746097e+03
3.124132e+02,7.767563e+03
3.153059e+02,7.779773e+03
3.181986e+02,7.804347e+03
3.210913e+02,7.792703e+03
3.239840e+02,7.829205e+03
3.268767e+02,7.837796e+03
3.297694e+02,7.857253e+03
3.326621e+02,7.863864e+03
3.355548e+02,7.871449e+03
3.384475e+02,7.886718e+03
3.413402e+02,7.874519e+03
3.442329e+02,7.919342e+03
3.471256e+02,7.950031e+03
3.500183e+02,7.920536e+03
3.529110e+02,7.959807e+03
3.558037e+02,7.959039e+03
3.586964e+02,8.000445e+03
3.615891e+02,7.998875e+03
3.644818e+02,7.984234e+03
3.673745e+02,7.991759e+03
3.702672e+02,8.059286e+03
3.731599e+02,8.070943e+03
3.760526e+02,8.061717e+03
3.789453e+02,8.075362e+03
3.818380e+02,8.079709e+03
3.847307e+02,8.087503e+03
3.876234e+02,8.102800e+03
3.905161e+02,8.138075e+03
3.934088e+02,8.120760e+03
3.963015e+02,8.146322e+03
3.991942e+02,8.132977e+03
4.020869e+02,8.175933e+03
4.049796e+02,8.181391e+03
4.078723e+02,8.182142e+03
4.107650e+02,8.164656e+03
4.136577e+02,8.174274e+03
4.165504e+02,8.177746e+03
4.194431e+02,8.187153e+03
4.223358e+02,8.210418e+03
4.252285e+02,8.218605e+03
4.281212e+02,8.235720e+03
4.310139e+02,8.235101e+03
4.339066e+02,8.269394e+03
4.367993e+02,8.273934e+03
4.396920e+02,8.282605e+03
4.425847e+02,8.269620e+03
4.454774e+02,8.271669e+03
4.483701e+02,8.304969e+03
4.512628e+02,8.336331e+03
4.541555e+02,8.346854e+03
4.570482e+02,8.351588e+03
4.599409e+02,8.370146e+03
4.628336e+02,8.391090e+03
4.657263e+02,8.399568e+03
4.686190e+02,8.410957e+03
4.715117e+02,8.367544e+03
4.744044e+02,8.371950e+03
4.772971e+02,8.367571e+03
4.801898e+02,8.349835e+03
4.830825e+02,8.389667e+03
4.859752e+02,8.402708e+03
4.888679e+02,8.400583e+03
4.917606e+02,8.416348e+03
4.946533e+02,8.403969e+03
4.975460e+02,8.444792e+03
5.004387e+02,8.430725e+03
5.033314e+02,8.447290e+03
5.062241e+02,8.437351e+03
5.091168e+02,8.417017e+03
5.120095e+02,8.437715e+03
5.149022e+02,8.473991e+03
5.177949e+02,8.495049e+03
5.206876e+02,8.440834e+03
5.235803e+02,8.445999e+03
5.264730e+02,8.435758e+03
5.293657e+02,8.484741e+03
5.322584e+02,8.484072e+03
5.351511e+02,8.455959e+03
5.380438e+02,8.468021e+03
5.409365e+02,8.493434e+03
5.438292e+02,8.469217e+03
5.467219e+02,8.493416e+03
5.496146e+02,8.495019e+03
5.525073e+02,8.491985e+03
5.554000e+02,8.483253e+03
5.582927e+02,8.502559e+03
5.611854e+02,8.514799e+03
5.640781e+02,8.523290e+03
5.669708e+02,8.515530e+03
5.698635e+02,8.502666e+03
5.727562e+02,8.488577e+03
5.756489e+02,8.529338e+03
5.785416e+02,8.553418e+03
5.814343e+02,8.568792e+03
5.843270e+02,8.522989e+03
5.872197e+02,8.568311e+03
5.901124e+02,8.565107e+03
5.930051e+02,8.615935e+03
5.958978e+02,8.606776e+03
5.987905e+02,8.595949e+03
6.016832e+02,8.594248e+03
6.045759e+02,8.586396e+03
6.074686e+02,8.602008e+03
6.103613e+02,8.562217e+03
6.132540e+02,8.568544e+03
6.161467e+02,8.570825e+03
6.190394e+02,8.562350e+03
6.219321e+02,8.571580e+03
6.248248e+02,8.606644e+03
6.277175e+02,8.581368e+03
6.306102e+02,8.605399e+03
6.335029e+02,8.612967e+03
6.363956e+02,8.592286e+03
6.392883e+02,8.576343e+03
6.421810e+02,8.589534e+03
6.450737e+02,8.566961e+03
6.479664e+02,8.583332e+03
6.508591e+02,8.593821e+03
6.537518e+02,8.580108e+03
6.566445e+02,8.597466e+03
6.595372e+02,8.580459e+03
6.624299e+02,8.594675e+03
6.653226e+02,8.594406e+03
6.682153e+02,8.573563e+03
6.711080e+02,8.618214e+03
6.740007e+02,8.648472e+03
6.768934e+02,8.585353e+03
6.797861e+02,8.567534e+03
6.826788e+02,8.570838e+03
6.855715e+02,8.593721e+03
6.884642e+02,8.569443e+03
6.913569e+02,8.571964e+03
6.942496e+02,8.586893e+03
6.971423e+02,8.580119e+03
7.000350e+02,8.564035e+03
7.029277e+02,8.549774e+03
7.058204e+02,8.582245e+03
7.087131e+02,8.554854e+03
7.116058e+02,8.563616e+03
7.144985e+02,8.576354e+03
7.173912e+02,8.557965e+03
7.202839e+02,8.512483e+03
7.231766e+02,8.522349e+03
7.260693e+02,8.520534e+03
7.289620e+02,8.538372e+03
7.318547e+02,8.551084e+03
7.347474e+02,8.528486e+03
7.376401e+02,8.511003e+03
7.405328e+02,8.539502e+03
7.434255e+02,8.514755e+03
7.463182e+02,8.548517e+03
7.492109e+02,8.521111e+03
7.521036e+02,8.505417e+03
7.549963e+02,8.534591e+03
7.578890e+02,8.534466e+03
7.607817e+02,8.530878e+03
7.636744e+02,8.514819e+03
7.665671e+02,8.518417e+03
7.694598e+02,8.475033e+03
7.723525e+02,8.458741e+03
7.752452e+02,8.530929e+03
7.781379e+02,8.496263e+03
7.810306e+02,8.470903e+03
7.839233e+02,8.483980e+03
7.868160e+02,8.478943e+03
7.897087e+02,8.469619e+03
7.926014e+02,8.496490e+03
7.954941e+02,8.455242e+03
7.983868e+02,8.434757e+03
8.012795e+02,8.472261e+03
8.041722e+02,8.489128e+03
8.070649e+02,8.494663e+03
8.099576e+02,8.456514e+03
8.128503e+02,8.438251e+03
8.157430e+02,8.439618e+03
8.186357e+02,8.415601e+03
8.215284e+02,8.447959e+03
8.244211e+02,8.442127e+03
8.273138e+02,8.394290e+03
8.302065e+02,8.411111e+03
8.330992e+02,8.416402e+03
8.359919e+02,8.418149e+03
8.388846e+02,8.434392e+03
8.417773e+02,8.409134e+03
8.446700e+02,8.399145e+03
8.475627e+02,8.431802e+03
8.504554e+02,8.410168e+03
8.533481e+02,8.433370e+03
8.562408e+02,8.432821e+03
8.591335e+02,8.439150e+03
8.620262e+02,8.404685e+03
8.649189e+02,8.397166e+03
8.678116e+02,8.357026e+03
8.707043e+02,8.382644e+03
8.735970e+02,8.365390e+03
8.764897e+02,8.364111e+03
8.793824e+02,8.358268e+03
8.822751e+02,8.366370e+03
8.851678e+02,8.372800e+03
8.880605e+02,8.372431e+03
8.909532e+02,8.368065e+03
8.938459e+02,8.333987e+03
8.967386e+02,8.324104e+03
8.996313e+02,8.329516e+03
9.025240e+02,8.320761e+03
9.054167e+02,8.323762e+03
9.083094e+02,8.265428e+03
9.112021e+02,8.272480e+03
9.140948e+02,8.267746e+03
9.169875e+02,8.303092e+03
9.198802e+02,8.241045e+03
9.227729e+02,8.249080e+03
9.256656e+02,8.230039e+03
9.285583e+02,8.239669e+03
9.314510e+02,8.256170e+03
9.343438e+02,8.254750e+03
9.372365e+02,8.255773e+03
9.401292e+02,8.270162e+03
9.430219e+02,8.272665e+03
9.459146e+02,8.241217e+03
9.488073e+02,8.243217e+03
9.517000e+02,8.186540e+03
9.545927e+02,8.158163e+03
9.574854e+02,8.166607e+03
9.603781e+02,8.171661e+03
9.632708e+02,8.166991e+03
9.661635e+02,8.155963e+03
9.690562e+02,8.162283e+03
9.719489e+02,8.146446e+03
9.748416e+02,8.132704e+03
9.777343e+02,8.123136e+03
9.806270e+02,8.148544e+03
9.835197e+02,8.118447e+03
9.864124e+02,8.109023e+03
9.893051e+02,8.133163e+03
9.921978e+02,8.119008e+03
9.950905e+02,8.112878e+03
9.979832e+02,8.093634e+03
1.000876e+03,8.074525e+03
1.003769e+03,8.076214e+03
1.006661e+03,8.116917e+03
1.009554e+03,8.136977e+03
1.012447e+03,8.074133e+03
1.015339e+03,8.051539e+03
1.018232e+03,8.045509e+03
1.021125e+03,8.032080e+03
1.024017e+03,8.060881e+03
1.026910e+03,8.060922e+03
1.029803e+03,8.063023e+03
1.032696e+03,8.040644e+03
1.035588e+03,8.048976e+03
1.038481e+03,8.040622e+03
1.041374e+03,8.038288e+03
1.044266e+03,8.021530e+03
1.047159e+03,8.009513e+03
1.050052e+03,8.001850e+03
1.052944e+03,8.021226e+03
1.055837e+03,7.993767e+03
1.058730e+03,8.000942e+03
1.061623e+03,7.992889e+03
1.064515e+03,7.987157e+03
1.067408e+03,7.970104e+03
1.070301e+03,7.972211e+03
1.073193e+03,7.977141e+03
1.076086e+03,7.968278e+03
1.078979e+03,7.941075e+03
1.081871e+03,7.939676e+03
1.084764e+03,7.963601e+03
1.087657e+03,7.979688e+03
1.090550e+03,7.962833e+03
1.093442e+03,7.938153e+03
1.096335e+03,7.927820e+03
1.099228e+03,7.915125e+03
1.102120e+03,7.910917e+03
1.105013e+03,7.873071e+03
1.107906e+03,7.909007e+03
1.110798e+03,7.897807e+03
1.113691e+03,7.901653e+03
1.116584e+03,7.919393e+03
1.119477e+03,7.929146e+03
1.122369e+03,7.894148e+03
1.125262e+03,7.869944e+03
1.128155e+03,7.878713e+03
1.131047e+03,7.893438e+03
1.133940e+03,7.883104e+03
1.136833e+03,7.833494e+03
1.139725e+03,7.819068e+03
1.142618e+03,7.855239e+03
1.145511e+03,7.853861e+03
1.148404e+03,7.851622e+03
1.151296e+03,7.895102e+03
1.154189e+03,7.887603e+03
1.157082e+03,7.855195e+03
1.159974e+03,7.852038e+03
1.162867e+03,7.830472e+03
1.165760e+03,7.835411e+03
1.168652e+03,7.822693e+03
1.171545e+03,7.783255e+03
1.174438e+03,7.759800e+03
1.177331e+03,7.772590e+03
1.180223e+03,7.782696e+03
1.183116e+03,7.772954e+03
1.186009e+03,7.737567e+03
1.188901e+03,7.747132e+03
1.191794e+03,7.728405e+03
1.194687e+03,7.733512e+03
1.197579e+03,7.737058e+03
1.200472e+03,7.721460e+03
1.203365e+03,7.712914e+03
1.206258e+03,7.685256e+03
1.209150e+03,7.715362e+03
1.212043e+03,7.699901e+03
1.214936e+03,7.701075e+03
1.217828e+03,7.668323e+03
1.220721e+03,7.670460e+03
1.223614e+03,7.698101e+03
1.226506e+03,7.695334e+03
1.229399e+03,7.704867e+03
1.232292e+03,7.675692e+03
1.235185e+03,7.682960e+03
1.238077e+03,7.675618e+03
1.240970e+03,7.684347e+03
1.243863e+03,7.690201e+03
1.246755e+03,7.695275e+03
1.249648e+03,7.625456e+03
1.252541e+03,7.619085e+03
1.255433e+03,7.641503e+03
1.258326e+03,7.642082e+03
1.261219e+03,7.632265e+03
1.264112e+03,7.598454e+03
1.267004e+03,7.608370e+03
1.269897e+03,7.644357e+03
1.272790e+03,7.678982e+03
1.275682e+03,7.652448e+03
1.278575e+03,7.667397e+03
1.281468e+03,7.638569e+03
1.284360e+03,7.645014e+03
1.287253e+03,7.641397e+03
1.290146e+03,7.609293e+03
1.293039e+03,7.589161e+03
1.295931e+03,7.580437e+03
1.298824e+03,7.579520e+03
1.301717e+03,7.589600e+03
1.304609e+03,7.588456e+03
1.307502e+03,7.574304e+03
1.310395e+03,7.552660e+03
1.313287e+03,7.567570e+03
1.316180e+03,7.582300e+03
1.319073e+03,7.638813e+03
1.321966e+03,7.582786e+03
1.324858e+03,7.598768e+03
1.327751e+03,7.620310e+03
1.330644e+03,7.586573e+03
1.333536e+03,7.575206e+03
1.336429e+03,7.585117e+03
1.339322e+03,7.566779e+03
1.342214e+03,7.550503e+03
1.345107e+03,7.569015e+03
1.348000e+03,7.611030e+03
1.350893e+03,7.667068e+03
1.353785e+03,7.681576e+03
1.356678e+03,7.669663e+03
1.359571e+03,7.631872e+03
1.362463e+03,7.595193e+03
1.365356e+03,7.586638e+03
1.368249e+03,7.612888e+03
1.371141e+03,7.626527e+03
1.374034e+03,7.626056e+03
1.376927e+03,7.654817e+03
1.379820e+03,7.664813e+03
1.382712e+03,7.623733e+03
1.385605e+03,7.567397e+03
1.388498e+03,7.464983e+03
1.391390e+03,7.449303e+03
1.394283e+03,7.426098e+03
1.397176e+03,7.421188e+03
1.400068e+03,7.390351e+03
1.402961e+03,7.395160e+03
1.405854e+03,7.376644e+03
1.408747e+03,7.347426e+03
1.411639e+03,7.369725e+03
1.414532e+03,7.360657e+03
1.417425e+03,7.355412e+03
1.420317e+03,7.320605e+03
1.423210e+03,7.312890e+03
1.426103e+03,7.323357e+03
1.428995e+03,7.302784e+03
1.431888e+03,7.303123e+03
1.434781e+03,7.284691e+03
1.437674e+03,7.287636e+03
1.440566e+03,7.283534e+03
1.443459e+03,7.307278e+03
1.446352e+03,7.278897e+03
1.449244e+03,7.293440e+03
1.452137e+03,7.288458e+03
1.455030e+03,7.274208e+03
1.457922e+03,7.274096e+03
1.460815e+03,7.273261e+03
1.463708e+03,7.258953e+03
1.466601e+03,7.239636e+03
1.469493e+03,7.244776e+03
1.472386e+03,7.256845e+03
1.475279e+03,7.255838e+03
1.478171e+03,7.244202e+03
1.481064e+03,7.228257e+03
1.483957e+03,7.226857e+03
1.486849e+03,7.206890e+03
1.489742e+03,7.193067e+03
1.492635e+03,7.213318e+03
1.495528e+03,7.191021e+03
1.498420e+03,7.154365e+03
1.501313e+03,7.174457e+03
1.504206e+03,7.149952e+03
1.507098e+03,7.178335e+03
1.509991e+03,7.131645e+03
1.512884e+03,7.146846e+03
1.515776e+03,7.121392e+03
1.518669e+03,7.117320e+03
1.521562e+03,7.099792e+03
1.524455e+03,7.104022e+03
1.527347e+03,7.108072e+03
1.530240e+03,7.071019e+03
1.533133e+03,7.102677e+03
1.536025e+03,7.055274e+03
1.538918e+03,7.115942e+03
1.541811e+03,7.101245e+03
1.544703e+03,7.067635e+03
1.547596e+03,7.090681e+03
1.550489e+03,7.077834e+03
1.553382e+03,7.065950e+03
1.556274e+03,7.067369e+03
1.559167e+03,7.026490e+03
1.562060e+03,7.013386e+03
1.564952e+03,7.030691e+03
1.567845e+03,7.036759e+03
1.570738e+03,7.026331e+03
1.573630e+03,6.994976e+03
1.576523e+03,6.972012e+03
1.579416e+03,6.986515e+03
1.582309e+03,6.996926e+03
1.585201e+03,6.980339e+03
1.588094e+03,6.981813e+03
1.590987e+03,6.961638e+03
1.593879e+03,6.969459e+03
1.596772e+03,6.982509e+03
1.599665e+03,6.972188e+03
1.602557e+03,6.945383e+03
1.605450e+03,6.872823e+03
1.608343e+03,6.891921e+03
1.611236e+03,6.923310e+03
1.614128e+03,6.950524e+03
1.617021e+03,6.920908e+03
1.619914e+03,6.913608e+03
1.622806e+03,6.927653e+03
1.625699e+03,6.898706e+03
1.628592e+03,6.896941e+03
1.631484e+03,6.876482e+03
1.634377e+03,6.880391e+03
1.637270e+03,6.835000e+03
1.640163e+03,6.836044e+03
1.643055e+03,6.833060e+03
1.645948e+03,6.843789e+03
1.648841e+03,6.779474e+03
1.651733e+03,6.795910e+03
1.654626e+03,6.808097e+03
1.657519e+03,6.780813e+03
1.660411e+03,6.767254e+03
1.663304e+03,6.759908e+03
1.666197e+03,6.746135e+03
1.669090e+03,6.711180e+03
1.671982e+03,6.725427e+03
1.674875e+03,6.722162e+03
1.677768e+03,6.713297e+03
1.680660e+03,6.700484e+03
1.683553e+03,6.699064e+03
1.686446e+03,6.705227e+03
1.689339e+03,6.692244e+03
1.692231e+03,6.637081e+03
1.695124e+03,6.679085e+03
1.698017e+03,6.662001e+03
1.700909e+03,6.639555e+03
1.703802e+03,6.659946e+03
1.706695e+03,6.654453e+03
1.709587e+03,6.638501e+03
1.712480e+03,6.635764e+03
1.715373e+03,6.618452e+03
1.718266e+03,6.599377e+03
1.721158e+03,6.590137e+03
1.724051e+03,6.581403e+03
1.726944e+03,6.573772e+03
1.729836e+03,6.595876e+03
1.732729e+03,6.587107e+03
1.735622e+03,6.567725e+03
1.738514e+03,6.524814e+03
1.741407e+03,6.556570e+03
1.744300e+03,6.530696e+03
1.747193e+03,6.532218e+03
1.750085e+03,6.529341e+03
1.752978e+03,6.509648e+03
1.755871e+03,6.451686e+03
1.758763e+03,6.485395e+03
1.761656e+03,6.438736e+03
1.764549e+03,6.476993e+03
1.767441e+03,6.463228e+03
1.770334e+03,6.447671e+03
1.773227e+03,6.455172e+03
1.776120e+03,6.428854e+03
1.779012e+03,6.452944e+03
1.781905e+03,6.433856e+03
1.784798e+03,6.418763e+03
1.787690e+03,6.423679e+03
1.790583e+03,6.361833e+03
1.793476e+03,6.382768e+03
1.796368e+03,6.361057e+03
1.799261e+03,6.357883e+03
1.802154e+03,6.367557e+03
1.805047e+03,6.339340e+03
1.807939e+03,6.327301e+03
1.810832e+03,6.329203e+03
1.813725e+03,6.301290e+03
1.816617e+03,6.340583e+03
1.819510e+03,6.314372e+03
1.822403e+03,6.299105e+03
1.825295e+03,6.294435e+03
1.828188e+03,6.274738e+03
1.831081e+03,6.311367e+03
1.833974e+03,6.263344e+03
1.836866e+03,6.264783e+03
1.839759e+03,6.235135e+03
1.842652e+03,6.229571e+03
1.845544e+03,6.247542e+03
1.848437e+03,6.197902e+03
1.851330e+03,6.166114e+03
1.854222e+03,6.177430e+03
1.857115e+03,6.188576e+03
1.860008e+03,6.175860e+03
1.862901e+03,6.169258e+03
1.865793e+03,6.160313e+03
1.868686e+03,6.114210e+03
1.871579e+03,6.142203e+03
1.874471e+03,6.136380e+03
1.877364e+03,6.133960e+03
1.880257e+03,6.097984e+03
1.883149e+03,6.064124e+03
1.886042e+03,6.102889e+03
1.888935e+03,6.058336e+03
1.891828e+03,6.064900e+03
1.894720e+03,6.049534e+03
1.897613e+03,6.021741e+03
1.900506e+03,6.032915e+03
1.903398e+03,6.029591e+03
1.906291e+03,6.028096e+03
1.909184e+03,6.035329e+03
1.912076e+03,6.016247e+03
1.914969e+03,5.975261e+03
1.917862e+03,5.969917e+03
1.920755e+03,5.957372e+03
1.923647e+03,5.963145e+03
1.926540e+03,5.961788e+03
1.929433e+03,5.926329e+03
1.932325e+03,5.902815e+03
1.935218e+03,5.926926e+03
1.938111e+03,5.918838e+03
1.941003e+03,5.910412e+03
1.943896e+03,5.883257e+03
1.946789e+03,5.852847e+03
1.949682e+03,5.853942e+03
1.952574e+03,5.852708e+03
1.955467e+03,5.876818e+03
1.958360e+03,5.829437e+03
1.961252e+03,5.838701e+03
1.964145e+03,5.829238e+03
1.967038e+03,5.793662e+03
1.969930e+03,5.806547e+03
1.972823e+03,5.802862e+03
1.975716e+03,5.787490e+03
1.978609e+03,5.764448e+03
1.981501e+03,5.768011e+03
1.984394e+03,5.741784e+03
1.987287e+03,5.748149e+03
1.990179e+03,5.743328e+03
1.993072e+03,5.702900e+03
1.995965e+03,5.728489e+03
1.998857e+03,5.697150e+03
2.001750e+03,5.715793e+03
2.004643e+03,5.678938e+03
2.007536e+03,5.670491e+03
2.010428e+03,5.662178e+03
2.013321e+03,5.660070e+03
2.016214e+03,5.670636e+03
2.019106e+03,5.600264e+03
2.021999e+03,5.610373e+03
2.024892e+03,5.627981e+03
2.027784e+03,5.582961e+03
2.030677e+03,5.570638e+03
2.033570e+03,5.600390e+03
2.036463e+03,5.588614e+03
2.039355e+03,5.537607e+03
2.042248e+03,5.529392e+03
2.045141e+03,5.545390e+03
2.048033e+03,5.529276e+03
2.050926e+03,5.549874e+03
2.053819e+03,5.480641e+03
2.056711e+03,5.479106e+03
2.059604e+03,5.492979e+03
2.062497e+03,5.500512e+03
2.065390e+03,5.493181e+03
2.068282e+03,5.451516e+03
2.071175e+03,5.433907e+03
2.074068e+03,5.414664e+03
2.076960e+03,5.418656e+03
2.079853e+03,5.414675e+03
2.082746e+03,5.396300e+03
2.085638e+03,5.367079e+03
2.088531e+03,5.418187e+03
2.091424e+03,5.383236e+03
2.094316e+03,5.359631e+03
2.097209e+03,5.367009e+03
2.100102e+03,5.374868e+03
2.102995e+03,5.326758e+03
2.105887e+03,5.306708e+03
2.108780e+03,5.351170e+03
2.111673e+03,5.288986e+03
2.114565e+03,5.267282e+03
2.117458e+03,5.245844e+03
2.120351e+03,5.294164e+03
2.123244e+03,5.306701e+03
2.126136e+03,5.241269e+03
2.129029e+03,5.222423e+03
2.131922e+03,5.253959e+03
2.134814e+03,5.207763e+03
2.137707e+03,5.238286e+03
2.140600e+03,5.209320e+03
2.143492e+03,5.183602e+03
2.146385e+03,5.158791e+03
2.149278e+03,5.146402e+03
2.152170e+03,5.187378e+03
2.155063e+03,5.142694e+03
2.157956e+03,5.106583e+03
2.160849e+03,5.100472e+03
2.163741e+03,5.127547e+03
2.166634e+03,5.066654e+03
2.169527e+03,5.086724e+03
2.172419e+03,5.083033e+03
2.175312e+03,5.085443e+03
2.178205e+03,5.075285e+03
2.181098e+03,5.052092e+03
2.183990e+03,5.045276e+03
2.186883e+03,5.021585e+03
2.189776e+03,5.014220e+03
2.192668e+03,5.048890e+03
2.195561e+03,4.984999e+03
2.198454e+03,4.979326e+03
2.201346e+03,4.979774e+03
2.204239e+03,4.982139e+03
2.207132e+03,4.963966e+03
2.210024e+03,4.918789e+03
2.212917e+03,4.915683e+03
2.215810e+03,4.950299e+03
2.218703e+03,4.944692e+03
2.221595e+03,4.902016e+03
2.224488e+03,4.894827e+03
2.227381e+03,4.870722e+03
2.230273e+03,4.944186e+03
2.233166e+03,4.882448e+03
2.236059e+03,4.853768e+03
2.238952e+03,4.849604e+03
2.241844e+03,4.828781e+03
2.244737e+03,4.820537e+03
2.247630e+03,4.827313e+03
2.250522e+03,4.836588e+03
2.253415e+03,4.807284e+03
2.256308e+03,4.774352e+03
2.259200e+03,4.781287e+03
2.262093e+03,4.776817e+03
2.264986e+03,4.768859e+03
2.267879e+03,4.758046e+03
2.270771e+03,4.727213e+03
2.273664e+03,4.710348e+03
2.276557e+03,4.704922e+03
2.279449e+03,4.682732e+03
2.282342e+03,4.731529e+03
2.285235e+03,4.698593e+03
2.288127e+03,4.677161e+03
2.291020e+03,4.655966e+03
2.293913e+03,4.644819e+03
2.296805e+03,4.652729e+03
2.299698e+03,4.676401e+03
2.302591e+03,4.662120e+03
2.305484e+03,4.599053e+03
2.308376e+03,4.590030e+03
2.311269e+03,4.607351e+03
2.314162e+03,4.613659e+03
2.317054e+03,4.595334e+03
2.319947e+03,4.579349e+03
2.322840e+03,4.568188e+03
2.325733e+03,4.596761e+03
2.328625e+03,4.560099e+03
2.331518e+03,4.569285e+03
2.334411e+03,4.502697e+03
2.337303e+03,4.534665e+03
2.340196e+03,4.500357e+03
2.343089e+03,4.536053e+03
2.345981e+03,4.522219e+03
2.348874e+03,4.502442e+03
2.351767e+03,4.457787e+03
2.354659e+03,4.480929e+03
2.357552e+03,4.475360e+03
2.360445e+03,4.457249e+03
2.363338e+03,4.459007e+03
2.366230e+03,4.431330e+03
2.369123e+03,4.415413e+03
2.372016e+03,4.416288e+03
2.374908e+03,4.417266e+03
2.377801e+03,4.413887e+03
2.380694e+03,4.381081e+03
2.383587e+03,4.361020e+03
2.386479e+03,4.387792e+03
2.389372e+03,4.357609e+03
2.392265e+03,4.355876e+03
2.395157e+03,4.378772e+03
2.398050e+03,4.343155e+03
2.400943e+03,4.309196e+03
2.403835e+03,4.323866e+03
2.406728e+03,4.350350e+03
2.409621e+03,4.334669e+03
2.412513e+03,4.296677e+03
2.415406e+03,4.271755e+03
2.418299e+03,4.260216e+03
2.421192e+03,4.272330e+03
2.424084e+03,4.284763e+03
2.426977e+03,4.270112e+03
2.429870e+03,4.276309e+03
2.432762e+03,4.251924e+03
2.435655e+03,4.235008e+03
2.438548e+03,4.235291e+03
2.441441e+03,4.208682e+03
2.444333e+03,4.212712e+03
2.447226e+03,4.204578e+03
2.450119e+03,4.211685e+03
2.453011e+03,4.240044e+03
2.455904e+03,4.187799e+03
2.458797e+03,4.179979e+03
2.461689e+03,4.155252e+03
2.464582e+03,4.146954e+03
2.467475e+03,4.144710e+03
2.470367e+03,4.138908e+03
2.473260e+03,4.115697e+03
2.476153e+03,4.133874e+03
2.479046e+03,4.139345e+03
2.481938e+03,4.104733e+03
2.484831e+03,4.093935e+03
2.487724e+03,4.107572e+03
2.490616e+03,4.079543e+03
2.493509e+03,4.060431e+03
2.496402e+03,4.110602e+03
2.499295e+03,4.087897e+03
2.502187e+03,4.052651e+03
2.505080e+03,4.074862e+03
2.507973e+03,4.034740e+03
2.510865e+03,4.043653e+03
2.513758e+03,4.046984e+03
2.516651e+03,4.020491e+03
2.519543e+03,4.010968e+03
2.522436e+03,4.020543e+03
2.525329e+03,4.002719e+03
2.528221e+03,4.000441e+03
2.531114e+03,4.002814e+03
2.534007e+03,3.991181e+03
2.536900e+03,3.968463e+03
2.539792e+03,3.987331e+03
2.542685e+03,3.961034e+03
2.545578e+03,3.981516e+03
2.548470e+03,3.971426e+03
2.551363e+03,3.968290e+03
2.554256e+03,3.936694e+03
2.557149e+03,3.931293e+03
2.560041e+03,3.894371e+03
2.562934e+03,3.923015e+03
2.565827e+03,3.905771e+03
2.568719e+03,3.919066e+03
2.571612e+03,3.880427e+03
2.574505e+03,3.907690e+03
2.577397e+03,3.887695e+03
2.580290e+03,3.886128e+03
2.583183e+03,3.875871e+03
2.586075e+03,3.887362e+03
2.588968e+03,3.858137e+03
2.591861e+03,3.863380e+03
2.594754e+03,3.849690e+03
2.597646e+03,3.851148e+03
2.600539e+03,3.817345e+03
2.603432e+03,3.830790e+03
2.606324e+03,3.804525e+03
2.609217e+03,3.819129e+03
2.612110e+03,3.790413e+03
2.615003e+03,3.803835e+03
2.617895e+03,3.803433e+03
2.620788e+03,3.799332e+03
2.623681e+03,3.781108e+03
2.626573e+03,3.814109e+03
2.629466e+03,3.732638e+03
2.632359e+03,3.770392e+03
2.635251e+03,3.774040e+03
2.638144e+03,3.746835e+03
2.641037e+03,3.713579e+03
2.643929e+03,3.747746e+03
2.646822e+03,3.721147e+03
2.649715e+03,3.726857e+03
2.652608e+03,3.717700e+03
2.655500e+03,3.702795e+03
2.658393e+03,3.703458e+03
2.661286e+03,3.724009e+03
2.664178e+03,3.700896e+03
2.667071e+03,3.705659e+03
2.669964e+03,3.707968e+03
2.672857e+03,3.685767e+03
2.675749e+03,3.644697e+03
2.678642e+03,3.675320e+03
2.681535e+03,3.687012e+03
2.684427e+03,3.661508e+03
2.687320e+03,3.645812e+03
2.690213e+03,3.626131e+03
2.693105e+03,3.626288e+03
2.695998e+03,3.660840e+03
2.698891e+03,3.627895e+03
2.701783e+03,3.640727e+03
2.704676e+03,3.628553e+03
2.707569e+03,3.609356e+03
2.710462e+03,3.576791e+03
2.713354e+03,3.583448e+03
2.716247e+03,3.587804e+03
2.719140e+03,3.564906e+03
2.722032e+03,3.578845e+03
2.724925e+03,3.576360e+03
2.727818e+03,3.562368e+03
2.730711e+03,3.540927e+03
2.733603e+03,3.566776e+03
2.736496e+03,3.560918e+03
2.739389e+03,3.566043e+03
2.742281e+03,3.518984e+03
2.745174e+03,3.530793e+03
2.748067e+03,3.561453e+03
2.750959e+03,3.536542e+03
2.753852e+03,3.522209e+03
2.756745e+03,3.480858e+03
2.759637e+03,3.508538e+03
2.762530e+03,3.519578e+03
2.765423e+03,3.488119e+03
2.768316e+03,3.534661e+03
2.771208e+03,3.460012e+03
2.774101e+03,3.477523e+03
2.776994e+03,3.485391e+03
2.779886e+03,3.479762e+03
2.782779e+03,3.455786e+03
2.785672e+03,3.448057e+03
2.788565e+03,3.458660e+03
2.791457e+03,3.451311e+03
2.794350e+03,3.437894e+03
2.797243e+03,3.442464e+03
2.800135e+03,3.427167e+03
2.803028e+03,3.407396e+03
2.805921e+03,3.396887e+03
2.808813e+03,3.405656e+03
2.811706e+03,3.418510e+03
2.814599e+03,3.451289e+03
2.817491e+03,3.422841e+03
2.820384e+03,3.371137e+03
2.823277e+03,3.377338e+03
2.826170e+03,3.359028e+03
2.829062e+03,3.400529e+03
2.831955e+03,3.406497e+03
2.834848e+03,3.393048e+03
2.837740e+03,3.381443e+03
2.840633e+03,3.352683e+03
2.843526e+03,3.346373e+03
2.846419e+03,3.319422e+03
2.849311e+03,3.333385e+03
2.852204e+03,3.310234e+03
2.855097e+03,3.345304e+03
2.857990e+03,3.375591e+03
2.860882e+03,3.300118e+03
2.863775e+03,3.337977e+03
2.866667e+03,3.335844e+03
2.869560e+03,3.332912e+03
2.872453e+03,3.317704e+03
2.875345e+03,3.308217e+03
2.878238e+03,3.320495e+03
2.881131e+03,3.295836e+03
2.884024e+03,3.305020e+03
2.886916e+03,3.298249e+03
2.889809e+03,3.320371e+03
2.892702e+03,3.306594e+03
2.895594e+03,3.296169e+03
2.898487e+03,3.317904e+03
2.901380e+03,3.270968e+03
2.904273e+03,3.282066e+03
2.907165e+03,3.271155e+03
2.910058e+03,3.287812e+03
2.912951e+03,3.261391e+03
2.915844e+03,3.246837e+03
2.918736e+03,3.293240e+03
2.921629e+03,3.235509e+03
2.924521e+03,3.260501e+03
2.927414e+03,3.255179e+03
2.930307e+03,3.258998e+03
2.933199e+03,3.219893e+03
2.936092e+03,3.250286e+03
2.938985e+03,3.205685e+03
2.941878e+03,3.188849e+03
2.944770e+03,3.224251e+03
2.947663e+03,3.177596e+03
2.950556e+03,3.217164e+03
2.953448e+03,3.194940e+03
2.956341e+03,3.209395e+03
2.959234e+03,3.224001e+03
2.962127e+03,3.165034e+03
2.965019e+03,3.160186e+03
2.967912e+03,3.197662e+03
2.970805e+03,3.126998e+03
2.973698e+03,3.199774e+03
2.976590e+03,3.116553e+03
2.979483e+03,3.149592e+03
2.982375e+03,3.149149e+03
2.985268e+03,3.098189e+03
2.988161e+03,3.139582e+03
2.991053e+03,3.148758e+03
2.993946e+03,3.076324e+03
2.996839e+03,3.089549e+03
2.999732e+03,3.080770e+03
3.002624e+03,3.066950e+03
3.005517e+03,3.085874e+03
3.008410e+03,3.074390e+03
3.011302e+03,3.098677e+03
3.014195e+03,3.054183e+03
3.017088e+03,3.085794e+03
3.019981e+03,3.121275e+03
3.022873e+03,3.088028e+03
3.025766e+03,3.050587e+03
3.028659e+03,3.022594e+03
3.031552e+03,3.055316e+03
3.034444e+03,3.054298e+03
3.037337e+03,2.986232e+03
3.040229e+03,3.016673e+03
3.043122e+03,3.044892e+03
3.046015e+03,3.086342e+03
3.048907e+03,3.016063e+03
3.051800e+03,3.050193e+03
3.054693e+03,3.028854e+03
3.057586e+03,3.009184e+03
3.060478e+03,3.031319e+03
3.063371e+03,2.972915e+03
3.066264e+03,2.984585e+03
3.069156e+03,3.019564e+03
3.072049e+03,3.030980e+03
3.074942e+03,3.002918e+03
3.077835e+03,3.010498e+03
3.080727e+03,2.962527e+03
3.083620e+03,2.946352e+03
3.086513e+03,3.054631e+03
3.089406e+03,2.992872e+03
3.092298e+03,2.999767e+03
3.095191e+03,2.974909e+03
3.098083e+03,2.996536e+03
3.100976e+03,3.028391e+03
3.103869e+03,3.017588e+03
3.106761e+03,2.961569e+03
3.109654e+03,2.932258e+03
3.112547e+03,2.964356e+03
3.115440e+03,2.978599e+03
3.118332e+03,2.982923e+03
3.121225e+03,2.936684e+03
3.124118e+03,2.978879e+03
3.127010e+03,2.957894e+03
3.129903e+03,2.961100e+03
3.132796e+03,2.963125e+03
3.135689e+03,2.961399e+03
3.138581e+03,2.958330e+03
3.141474e+03,2.976632e+03
3.144367e+03,2.944626e+03
3.147260e+03,2.926538e+03
3.150152e+03,2.923908e+03
3.153045e+03,2.941651e+03
3.155938e+03,2.926832e+03
3.158830e+03,2.925722e+03
3.161723e+03,2.907641e+03
3.164615e+03,2.920039e+03
3.167508e+03,2.911909e+03
3.170401e+03,2.878604e+03
3.173294e+03,2.912274e+03
3.176186e+03,2.902866e+03
3.179079e+03,2.904766e+03
3.181972e+03,2.987522e+03
3.184865e+03,2.884957e+03
3.187757e+03,2.908128e+03
3.190650e+03,2.960800e+03
3.193543e+03,2.892760e+03
3.196435e+03,2.973695e+03
3.199328e+03,2.983931e+03
3.200292e+03,3.034130e+03