File: RAMAN_data/06022023_r1/blue fibre2.CSV
1.995979e+02,1.067968e+03
2.024906e+02,1.067581e+03
2.053833e+02,1.074346e+03
2.082760e+02,1.063904e+03
2.111687e+02,1.069174e+03
2.140614e+02,1.071380e+03
2.169541e+02,1.076083e+03
2.198468e+02,1.074448e+03
2.227395e+02,1.076505e+03
2.256322e+02,1.073808e+03
2.285249e+02,1.075669e+03
2.314176e+02,1.078123e+03
2.343103e+02,1.078297e+03
2.372030e+02,1.083683e+03
2.400957e+02,1.078441e+03
2.429884e+02,1.073820e+03
2.458811e+02,1.085928e+03
2.487738e+02,1.077231e+03
2.516665e+02,1.077062e+03
2.545592e+02,1.086513e+03
2.574519e+02,1.079463e+03
2.603446e+02,1.083748e+03
2.632373e+02,1.080086e+03
2.661300e+02,1.082835e+03
2.690227e+02,1.082840e+03
2.719154e+02,1.084704e+03
2.748081e+02,1.089914e+03
2.777008e+02,1.089012e+03
2.805935e+02,1.093645e+03
2.834862e+02,1.086718e+03
2.863789e+02,1.096096e+03
2.892716e+02,1.080109e+03
2.921643e+02,1.089860e+03
2.950570e+02,1.084247e+03
2.979497e+02,1.079078e+03
3.008424e+02,1.090640e+03
3.037351e+02,1.089953e+03
3.066278e+02,1.082115e+03
3.095205e+02,1.082164e+03
3.124132e+02,1.089734e+03
3.153059e+02,1.097961e+03
3.181986e+02,1.086345e+03
3.210913e+02,1.082100e+03
3.239840e+02,1.092782e+03
3.268767e+02,1.096334e+03
3.297694e+02,1.095033e+03
3.326621e+02,1.093126e+03
3.355548e+02,1.092898e+03
3.384475e+02,1.087910e+03
3.413402e+02,1.096079e+03
3.442329e+02,1.097584e+03
3.471256e+02,1.092214e+03
3.500183e+02,1.095168e+03
3.529110e+02,1.084901e+03
3.558037e+02,1.081201e+03
3.586964e+02,1.081423e+03
3.615891e+02,1.085712e+03
3.644818e+02,1.085091e+03
3.673745e+02,1.094046e+03
3.702672e+02,1.094216e+03
3.731599e+02,1.104162e+03
3.760526e+02,1.112974e+03
3.789453e+02,1.113345e+03
3.818380e+02,1.110187e+03
3.847307e+02,1.087543e+03
3.876234e+02,1.082415e+03
3.905161e+02,1.082958e+03
3.934088e+02,1.075172e+03
3.963015e+02,1.069397e+03
3.991942e+02,1.070212e+03
4.020869e+02,1.076652e+03
4.049796e+02,1.064349e+03
4.078723e+02,1.072160e+03
4.107650e+02,1.072250e+03
4.136577e+02,1.072907e+03
4.165504e+02,1.072382e+03
4.194431e+02,1.066122e+03
4.223358e+02,1.073718e+03
4.252285e+02,1.070624e+03
4.281212e+02,1.082096e+03
4.310139e+02,1.088227e+03
4.339066e+02,1.089934e+03
4.367993e+02,1.085061e+03
4.396920e+02,1.073651e+03
4.425847e+02,1.070747e+03
4.454774e+02,1.068163e+03
4.483701e+02,1.074445e+03
4.512628e+02,1.075257e+03
4.541555e+02,1.081661e+03
4.570482e+02,1.063329e+03
4.599409e+02,1.058326e+03
4.628336e+02,1.059280e+03
4.657263e+02,1.054975e+03
4.686190e+02,1.057371e+03
4.715117e+02,1.052474e+03
4.744044e+02,1.044512e+03
4.772971e+02,1.049532e+03
4.801898e+02,1.042261e+03
4.830825e+02,1.041272e+03
4.859752e+02,1.049216e+03
4.888679e+02,1.052594e+03
4.917606e+02,1.051900e+03
4.946533e+02,1.050816e+03
4.975460e+02,1.050843e+03
5.004387e+02,1.040666e+03
5.033314e+02,1.048219e+03
5.062241e+02,1.040678e+03
5.091168e+02,1.042779e+03
5.120095e+02,1.044682e+03
5.149022e+02,1.045021e+03
5.177949e+02,1.042994e+03
5.206876e+02,1.051003e+03
5.235803e+02,1.038784e+03
5.264730e+02,1.025550e+03
5.293657e+02,1.025956e+03
5.322584e+02,1.028125e+03
5.351511e+02,1.028484e+03
5.380438e+02,1.030811e+03
5.409365e+02,1.026612e+03
5.438292e+02,1.015461e+03
5.467219e+02,1.022405e+03
5.496146e+02,1.023115e+03
5.525073e+02,1.023387e+03
5.554000e+02,1.014859e+03
5.582927e+02,1.019758e+03
5.611854e+02,1.017095e+03
5.640781e+02,1.016543e+03
5.669708e+02,1.017264e+03
5.698635e+02,1.004618e+03
5.727562e+02,1.015832e+03
5.756489e+02,1.015699e+03
5.785416e+02,1.014801e+03
5.814343e+02,1.018138e+03
5.843270e+02,1.019906e+03
5.872197e+02,1.012245e+03
5.901124e+02,1.006778e+03
5.930051e+02,1.010139e+03
5.958978e+02,1.002857e+03
5.987905e+02,9.990844e+02
6.016832e+02,1.002306e+03
6.045759e+02,9.969471e+02
6.074686e+02,1.003372e+03
6.103613e+02,1.001358e+03
6.132540e+02,9.914128e+02
6.161467e+02,9.919990e+02
6.190394e+02,9.958916e+02
6.219321e+02,9.906613e+02
6.248248e+02,9.865810e+02
6.277175e+02,9.866945e+02
6.306102e+02,9.845982e+02
6.335029e+02,9.954273e+02
6.363956e+02,9.947089e+02
6.392883e+02,9.819004e+02
6.421810e+02,9.838376e+02
6.450737e+02,9.646445e+02
6.479664e+02,9.667366e+02
6.508591e+02,9.731343e+02
6.537518e+02,9.752633e+02
6.566445e+02,9.689178e+02
6.595372e+02,9.735576e+02
6.624299e+02,9.606920e+02
6.653226e+02,9.744231e+02
6.682153e+02,9.704357e+02
6.711080e+02,9.802442e+02
6.740007e+02,9.665097e+02
6.768934e+02,9.641025e+02
6.797861e+02,9.682969e+02
6.826788e+02,9.711219e+02
6.855715e+02,9.617909e+02
6.884642e+02,9.551584e+02
6.913569e+02,9.619008e+02
6.942496e+02,9.663029e+02
6.971423e+02,9.581739e+02
7.000350e+02,9.538400e+02
7.029277e+02,9.568047e+02
7.058204e+02,9.477031e+02
7.087131e+02,9.477521e+02
7.116058e+02,9.602285e+02
7.144985e+02,9.416430e+02
7.173912e+02,9.410013e+02
7.202839e+02,9.437123e+02
7.231766e+02,9.456752e+02
7.260693e+02,9.494306e+02
7.289620e+02,9.380499e+02
7.318547e+02,9.348964e+02
7.347474e+02,9.422633e+02
7.376401e+02,9.349305e+02
7.405328e+02,9.275697e+02
7.434255e+02,9.247350e+02
7.463182e+02,9.251943e+02
7.492109e+02,9.289192e+02
7.521036e+02,9.232763e+02
7.549963e+02,9.243840e+02
7.578890e+02,9.198594e+02
7.607817e+02,9.143094e+02
7.636744e+02,9.148356e+02
7.665671e+02,9.232413e+02
7.694598e+02,9.016548e+02
7.723525e+02,9.176215e+02
7.752452e+02,9.193279e+02
7.781379e+02,9.153643e+02
7.810306e+02,9.069873e+02
7.839233e+02,9.174189e+02
7.868160e+02,9.089923e+02
7.897087e+02,9.128290e+02
7.926014e+02,9.081650e+02
7.954941e+02,9.040593e+02
7.983868e+02,9.054717e+02
8.012795e+02,8.998691e+02
8.041722e+02,9.018915e+02
8.070649e+02,9.046715e+02
8.099576e+02,9.089373e+02
8.128503e+02,8.918174e+02
8.157430e+02,8.978215e+02
8.186357e+02,8.908795e+02
8.215284e+02,8.885201e+02
8.244211e+02,8.929716e+02
8.273138e+02,8.908503e+02
8.302065e+02,8.790322e+02
8.330992e+02,8.872928e+02
8.359919e+02,8.700245e+02
8.388846e+02,8.859164e+02
8.417773e+02,8.799759e+02
8.446700e+02,8.780832e+02
8.475627e+02,8.714426e+02
8.504554e+02,8.720822e+02
8.533481e+02,8.765984e+02
8.562408e+02,8.782630e+02
8.591335e+02,8.682887e+02
8.620262e+02,8.708544e+02
8.649189e+02,8.750484e+02
8.678116e+02,8.703511e+02
8.707043e+02,8.747496e+02
8.735970e+02,8.751989e+02
8.764897e+02,8.721652e+02
8.793824e+02,8.687042e+02
8.822751e+02,8.645936e+02
8.851678e+02,8.684452e+02
8.880605e+02,8.627802e+02
8.909532e+02,8.593942e+02
8.938459e+02,8.611290e+02
8.967386e+02,8.580947e+02
8.996313e+02,8.477795e+02
9.025240e+02,8.505505e+02
9.054167e+02,8.525128e+02
9.083094e+02,8.453852e+02
9.112021e+02,8.462195e+02
9.140948e+02,8.527364e+02
9.169875e+02,8.464016e+02
9.198802e+02,8.329996e+02
9.227729e+02,8.371453e+02
9.256656e+02,8.358758e+02
9.285583e+02,8.274943e+02
9.314510e+02,8.330587e+02
9.343438e+02,8.420753e+02
9.372365e+02,8.255228e+02
9.401292e+02,8.232111e+02
9.430219e+02,8.279759e+02
9.459146e+02,8.176160e+02
9.488073e+02,8.255136e+02
9.517000e+02,8.193740e+02
9.545927e+02,8.228924e+02
9.574854e+02,8.239632e+02
9.603781e+02,8.237559e+02
9.632708e+02,8.193653e+02
9.661635e+02,8.107579e+02
9.690562e+02,8.224086e+02
9.719489e+02,8.192521e+02
9.748416e+02,8.031561e+02
9.777343e+02,8.063470e+02
9.806270e+02,8.120393e+02
9.835197e+02,8.148662e+02
9.864124e+02,8.082630e+02
9.893051e+02,8.077083e+02
9.921978e+02,8.038268e+02
9.950905e+02,8.155126e+02
9.979832e+02,8.067541e+02
1.000876e+03,8.064776e+02
1.003769e+03,7.995707e+02
1.006661e+03,7.991893e+02
1.009554e+03,7.901785e+02
1.012447e+03,7.932280e+02
1.015339e+03,7.847259e+02
1.018232e+03,7.909949e+02
1.021125e+03,7.897498e+02
1.024017e+03,7.889280e+02
1.026910e+03,7.912316e+02
1.029803e+03,7.868080e+02
1.032696e+03,7.935377e+02
1.035588e+03,7.834149e+02
1.038481e+03,7.903163e+02
1.041374e+03,7.787224e+02
1.044266e+03,7.836974e+02
1.047159e+03,7.784352e+02
1.050052e+03,7.736595e+02
1.052944e+03,7.801982e+02
1.055837e+03,7.890065e+02
1.058730e+03,7.772647e+02
1.061623e+03,7.788978e+02
1.064515e+03,7.799963e+02
1.067408e+03,7.829047e+02
1.070301e+03,7.812567e+02
1.073193e+03,7.726429e+02
1.076086e+03,7.791631e+02
1.078979e+03,7.724963e+02
1.081871e+03,7.745709e+02
1.084764e+03,7.903611e+02
1.087657e+03,7.954012e+02
1.090550e+03,7.998858e+02
1.093442e+03,8.105742e+02
1.096335e+03,7.967574e+02
1.099228e+03,7.841754e+02
1.102120e+03,7.746962e+02
1.105013e+03,7.722362e+02
1.107906e+03,7.707726e+02
1.110798e+03,7.775394e+02
1.113691e+03,7.865010e+02
1.116584e+03,7.921163e+02
1.119477e+03,7.843199e+02
1.122369e+03,7.793688e+02
1.125262e+03,7.687030e+02
1.128155e+03,7.629928e+02
1.131047e+03,7.505494e+02
1.133940e+03,7.458272e+02
1.136833e+03,7.385130e+02
1.139725e+03,7.423333e+02
1.142618e+03,7.475759e+02
1.145511e+03,7.460818e+02
1.148404e+03,7.375314e+02
1.151296e+03,7.460945e+02
1.154189e+03,7.421580e+02
1.157082e+03,7.279047e+02
1.159974e+03,7.333743e+02
1.162867e+03,7.279113e+02
1.165760e+03,7.297197e+02
1.168652e+03,7.178650e+02
1.171545e+03,7.240364e+02
1.174438e+03,7.186404e+02
1.177331e+03,7.205519e+02
1.180223e+03,7.135399e+02
1.183116e+03,7.132679e+02
1.186009e+03,7.086691e+02
1.188901e+03,7.135574e+02
1.191794e+03,7.129238e+02
1.194687e+03,7.076341e+02
1.197579e+03,7.114871e+02
1.200472e+03,7.094354e+02
1.203365e+03,6.974025e+02
1.206258e+03,7.005084e+02
1.209150e+03,7.046984e+02
1.212043e+03,7.082891e+02
1.214936e+03,6.993624e+02
1.217828e+03,6.960055e+02
1.220721e+03,7.025172e+02
1.223614e+03,7.003816e+02
1.226506e+03,7.050453e+02
1.229399e+03,6.964918e+02
1.232292e+03,6.921463e+02
1.235185e+03,6.923278e+02
1.238077e+03,6.916369e+02
1.240970e+03,6.998693e+02
1.243863e+03,6.947039e+02
1.246755e+03,6.896661e+02
1.249648e+03,6.867164e+02
1.252541e+03,6.933703e+02
1.255433e+03,6.924017e+02
1.258326e+03,6.905878e+02
1.261219e+03,6.971735e+02
1.264112e+03,6.857744e+02
1.267004e+03,6.866674e+02
1.269897e+03,6.842994e+02
1.272790e+03,6.875336e+02
1.275682e+03,6.907858e+02
1.278575e+03,6.885989e+02
1.281468e+03,6.764759e+02
1.284360e+03,6.806164e+02
1.287253e+03,6.869820e+02
1.290146e+03,6.850552e+02
1.293039e+03,6.796993e+02
1.295931e+03,6.820605e+02
1.298824e+03,6.835477e+02
1.301717e+03,6.806801e+02
1.304609e+03,6.807814e+02
1.307502e+03,6.712667e+02
1.310395e+03,6.777452e+02
1.313287e+03,6.713013e+02
1.316180e+03,6.748415e+02
1.319073e+03,6.763781e+02
1.321966e+03,6.748409e+02
1.324858e+03,6.755956e+02
1.327751e+03,6.766019e+02
1.330644e+03,6.740877e+02
1.333536e+03,6.808087e+02
1.336429e+03,6.786461e+02
1.339322e+03,6.768640e+02
1.342214e+03,6.663484e+02
1.345107e+03,6.653948e+02
1.348000e+03,6.671548e+02
1.350893e+03,6.613032e+02
1.353785e+03,6.601374e+02
1.356678e+03,6.605712e+02
1.359571e+03,6.588510e+02
1.362463e+03,6.591199e+02
1.365356e+03,6.676679e+02
1.368249e+03,6.653558e+02
1.371141e+03,6.680932e+02
1.374034e+03,6.658122e+02
1.376927e+03,6.649198e+02
1.379820e+03,6.691738e+02
1.382712e+03,6.634275e+02
1.385605e+03,6.595812e+02
1.388498e+03,6.498723e+02
1.391390e+03,6.402736e+02
1.394283e+03,6.455748e+02
1.397176e+03,6.471592e+02
1.400068e+03,6.389466e+02
1.402961e+03,6.440447e+02
1.405854e+03,6.443952e+02
1.408747e+03,6.395345e+02
1.411639e+03,6.340246e+02
1.414532e+03,6.327721e+02
1.417425e+03,6.352996e+02
1.420317e+03,6.378282e+02
1.423210e+03,6.303759e+02
1.426103e+03,6.235536e+02
1.428995e+03,6.318207e+02
1.431888e+03,6.272794e+02
1.434781e+03,6.303466e+02
1.437674e+03,6.250879e+02
1.440566e+03,6.241991e+02
1.443459e+03,6.205413e+02
1.446352e+03,6.189547e+02
1.449244e+03,6.242831e+02
1.452137e+03,6.162626e+02
1.455030e+03,6.204529e+02
1.457922e+03,6.249314e+02
1.460815e+03,6.253270e+02
1.463708e+03,6.231098e+02
1.466601e+03,6.079753e+02
1.469493e+03,6.163830e+02
1.472386e+03,6.145253e+02
1.475279e+03,6.205592e+02
1.478171e+03,6.172316e+02
1.481064e+03,6.100836e+02
1.483957e+03,6.028935e+02
1.486849e+03,6.053734e+02
1.489742e+03,6.044993e+02
1.492635e+03,6.047213e+02
1.495528e+03,6.084741e+02
1.498420e+03,5.988784e+02
1.501313e+03,6.061279e+02
1.504206e+03,6.046698e+02
1.507098e+03,6.013643e+02
1.509991e+03,5.932397e+02
1.512884e+03,5.963113e+02
1.515776e+03,5.916876e+02
1.518669e+03,5.955787e+02
1.521562e+03,5.949227e+02
1.524455e+03,5.928405e+02
1.527347e+03,5.930664e+02
1.530240e+03,5.875054e+02
1.533133e+03,5.877748e+02
1.536025e+03,5.927558e+02
1.538918e+03,5.785508e+02
1.541811e+03,5.836019e+02
1.544703e+03,5.734991e+02
1.547596e+03,5.835185e+02
1.550489e+03,5.856029e+02
1.553382e+03,5.845125e+02
1.556274e+03,5.838592e+02
1.559167e+03,5.851444e+02
1.562060e+03,5.802080e+02
1.564952e+03,5.807366e+02
1.567845e+03,5.837632e+02
1.570738e+03,5.794512e+02
1.573630e+03,5.766822e+02
1.576523e+03,5.707900e+02
1.579416e+03,5.746496e+02
1.582309e+03,5.694949e+02
1.585201e+03,5.738266e+02
1.588094e+03,5.752059e+02
1.590987e+03,5.695671e+02
1.593879e+03,5.679130e+02
1.596772e+03,5.633334e+02
1.599665e+03,5.657263e+02
1.602557e+03,5.668712e+02
1.605450e+03,5.682254e+02
1.608343e+03,5.716155e+02
1.611236e+03,5.586364e+02
1.614128e+03,5.555753e+02
1.617021e+03,5.632984e+02
1.619914e+03,5.681174e+02
1.622806e+03,5.559724e+02
1.625699e+03,5.542202e+02
1.628592e+03,5.582750e+02
1.631484e+03,5.552623e+02
1.634377e+03,5.588427e+02
1.637270e+03,5.524879e+02
1.640163e+03,5.494688e+02
1.643055e+03,5.544773e+02
1.645948e+03,5.517042e+02
1.648841e+03,5.554711e+02
1.651733e+03,5.555341e+02
1.654626e+03,5.562969e+02
1.657519e+03,5.392849e+02
1.660411e+03,5.453552e+02
1.663304e+03,5.449993e+02
1.666197e+03,5.436970e+02
1.669090e+03,5.434284e+02
1.671982e+03,5.408482e+02
1.674875e+03,5.415906e+02
1.677768e+03,5.368405e+02
1.680660e+03,5.371623e+02
1.683553e+03,5.388928e+02
1.686446e+03,5.341154e+02
1.689339e+03,5.308850e+02
1.692231e+03,5.324922e+02
1.695124e+03,5.363835e+02
1.698017e+03,5.333483e+02
1.700909e+03,5.236509e+02
1.703802e+03,5.347617e+02
1.706695e+03,5.349669e+02
1.709587e+03,5.256347e+02
1.712480e+03,5.231104e+02
1.715373e+03,5.262463e+02
1.718266e+03,5.229636e+02
1.721158e+03,5.250882e+02
1.724051e+03,5.273647e+02
1.726944e+03,5.172560e+02
1.729836e+03,5.142862e+02
1.732729e+03,5.183077e+02
1.735622e+03,5.174242e+02
1.738514e+03,5.156848e+02
1.741407e+03,5.182634e+02
1.744300e+03,5.174109e+02
1.747193e+03,5.112212e+02
1.750085e+03,5.067006e+02
1.752978e+03,5.077018e+02
1.755871e+03,5.065027e+02
1.758763e+03,5.100258e+02
1.761656e+03,5.044991e+02
1.764549e+03,5.010328e+02
1.767441e+03,5.026030e+02
1.770334e+03,5.011768e+02
1.773227e+03,5.068056e+02
1.776120e+03,4.906101e+02
1.779012e+03,5.030557e+02
1.781905e+03,5.028872e+02
1.784798e+03,5.045564e+02
1.787690e+03,4.962229e+02
1.790583e+03,4.963770e+02
1.793476e+03,4.886820e+02
1.796368e+03,4.932515e+02
1.799261e+03,4.924726e+02
1.802154e+03,4.919588e+02
1.805047e+03,4.882180e+02
1.807939e+03,4.860309e+02
1.810832e+03,4.931084e+02
1.813725e+03,4.897037e+02
1.816617e+03,4.884067e+02
1.819510e+03,4.805571e+02
1.822403e+03,4.861025e+02
1.825295e+03,4.773813e+02
1.828188e+03,4.874165e+02
1.831081e+03,4.743009e+02
1.833974e+03,4.788695e+02
1.836866e+03,4.693553e+02
1.839759e+03,4.746877e+02
1.842652e+03,4.767200e+02
1.845544e+03,4.750657e+02
1.848437e+03,4.795434e+02
1.851330e+03,4.765322e+02
1.854222e+03,4.671518e+02
1.857115e+03,4.688351e+02
1.860008e+03,4.695332e+02
1.862901e+03,4.685513e+02
1.865793e+03,4.712728e+02
1.868686e+03,4.686217e+02
1.871579e+03,4.594508e+02
1.874471e+03,4.636342e+02
1.877364e+03,4.651214e+02
1.880257e+03,4.594658e+02
1.883149e+03,4.632645e+02
1.886042e+03,4.621257e+02
1.888935e+03,4.569997e+02
1.891828e+03,4.519624e+02
1.894720e+03,4.537050e+02
1.897613e+03,4.531630e+02
1.900506e+03,4.582365e+02
1.903398e+03,4.428695e+02
1.906291e+03,4.592133e+02
1.909184e+03,4.476946e+02
1.912076e+03,4.433387e+02
1.914969e+03,4.479061e+02
1.917862e+03,4.415667e+02
1.920755e+03,4.393746e+02
1.923647e+03,4.459783e+02
1.926540e+03,4.467248e+02
1.929433e+03,4.294096e+02
1.932325e+03,4.306449e+02
1.935218e+03,4.461964e+02
1.938111e+03,4.341566e+02
1.941003e+03,4.393669e+02
1.943896e+03,4.406989e+02
1.946789e+03,4.359447e+02
1.949682e+03,4.413283e+02
1.952574e+03,4.330440e+02
1.955467e+03,4.364296e+02
1.958360e+03,4.273652e+02
1.961252e+03,4.291796e+02
1.964145e+03,4.289352e+02
1.967038e+03,4.338924e+02
1.969930e+03,4.293314e+02
1.972823e+03,4.119446e+02
1.975716e+03,4.266413e+02
1.978609e+03,4.204200e+02
1.981501e+03,4.255309e+02
1.984394e+03,4.239591e+02
1.987287e+03,4.111096e+02
1.990179e+03,4.240450e+02
1.993072e+03,4.241865e+02
1.995965e+03,4.234729e+02
1.998857e+03,4.208708e+02
2.001750e+03,4.097217e+02
2.004643e+03,4.143880e+02
2.007536e+03,4.128986e+02
2.010428e+03,4.136349e+02
2.013321e+03,4.065441e+02
2.016214e+03,4.074965e+02
2.019106e+03,4.073563e+02
2.021999e+03,4.045268e+02
2.024892e+03,4.061081e+02
2.027784e+03,4.030600e+02
2.030677e+03,4.015136e+02
2.033570e+03,3.973588e+02
2.036463e+03,4.037907e+02
2.039355e+03,3.937090e+02
2.042248e+03,3.974765e+02
2.045141e+03,3.963271e+02
2.048033e+03,3.931925e+02
2.050926e+03,3.913549e+02
2.053819e+03,3.821136e+02
2.056711e+03,3.831818e+02
2.059604e+03,3.968927e+02
2.062497e+03,3.917933e+02
2.065390e+03,3.750862e+02
2.068282e+03,3.770871e+02
2.071175e+03,3.774548e+02
2.074068e+03,3.789803e+02
2.076960e+03,3.830734e+02
2.079853e+03,3.877987e+02
2.082746e+03,3.814414e+02
2.085638e+03,3.722760e+02
2.088531e+03,3.824476e+02
2.091424e+03,3.730507e+02
2.094316e+03,3.759934e+02
2.097209e+03,3.795240e+02
2.100102e+03,3.775892e+02
2.102995e+03,3.704631e+02
2.105887e+03,3.686960e+02
2.108780e+03,3.687975e+02
2.111673e+03,3.674668e+02
2.114565e+03,3.706919e+02
2.117458e+03,3.652504e+02
2.120351e+03,3.698030e+02
2.123244e+03,3.718828e+02
2.126136e+03,3.649005e+02
2.129029e+03,3.591678e+02
2.131922e+03,3.609019e+02
2.134814e+03,3.601997e+02
2.137707e+03,3.581961e+02
2.140600e+03,3.586495e+02
2.143492e+03,3.644417e+02
2.146385e+03,3.520102e+02
2.149278e+03,3.504402e+02
2.152170e+03,3.531634e+02
2.155063e+03,3.531262e+02
2.157956e+03,3.472282e+02
2.160849e+03,3.458832e+02
2.163741e+03,3.512378e+02
2.166634e+03,3.535152e+02
2.169527e+03,3.474540e+02
2.172419e+03,3.501587e+02
2.175312e+03,3.464728e+02
2.178205e+03,3.464537e+02
2.181098e+03,3.487607e+02
2.183990e+03,3.456906e+02
2.186883e+03,3.415946e+02
2.189776e+03,3.451776e+02
2.192668e+03,3.310974e+02
2.195561e+03,3.416844e+02
2.198454e+03,3.403707e+02
2.201346e+03,3.403297e+02
2.204239e+03,3.326944e+02
2.207132e+03,3.328100e+02
2.210024e+03,3.338662e+02
2.212917e+03,3.307173e+02
2.215810e+03,3.303297e+02
2.218703e+03,3.386234e+02
2.221595e+03,3.244094e+02
2.224488e+03,3.383662e+02
2.227381e+03,3.254040e+02
2.230273e+03,3.260471e+02
2.233166e+03,3.327168e+02
2.236059e+03,3.321253e+02
2.238952e+03,3.310124e+02
2.241844e+03,3.362831e+02
2.244737e+03,3.319382e+02
2.247630e+03,3.222281e+02
2.250522e+03,3.261096e+02
2.253415e+03,3.215453e+02
2.256308e+03,3.152269e+02
2.259200e+03,3.148637e+02
2.262093e+03,3.134106e+02
2.264986e+03,3.135572e+02
2.267879e+03,3.127280e+02
2.270771e+03,3.172661e+02
2.273664e+03,3.089877e+02
2.276557e+03,3.122165e+02
2.279449e+03,3.117360e+02
2.282342e+03,2.991189e+02
2.285235e+03,3.044637e+02
2.288127e+03,3.055225e+02
2.291020e+03,3.043368e+02
2.293913e+03,3.088105e+02
2.296805e+03,3.007137e+02
2.299698e+03,3.073039e+02
2.302591e+03,2.991142e+02
2.305484e+03,3.022885e+02
2.308376e+03,2.992646e+02
2.311269e+03,2.895248e+02
2.314162e+03,2.988337e+02
2.317054e+03,2.941354e+02
2.319947e+03,2.872846e+02
2.322840e+03,3.000399e+02
2.325733e+03,2.952346e+02
2.328625e+03,2.986933e+02
2.331518e+03,2.903267e+02
2.334411e+03,2.870543e+02
2.337303e+03,2.855968e+02
2.340196e+03,2.813089e+02
2.343089e+03,2.905821e+02
2.345981e+03,2.828871e+02
2.348874e+03,2.893491e+02
2.351767e+03,2.941075e+02
2.354659e+03,2.888106e+02
2.357552e+03,2.892502e+02
2.360445e+03,2.822007e+02
2.363338e+03,2.835161e+02
2.366230e+03,2.809061e+02
2.369123e+03,2.738415e+02
2.372016e+03,2.872333e+02
2.374908e+03,2.814564e+02
2.377801e+03,2.813770e+02
2.380694e+03,2.737007e+02
2.383587e+03,2.793542e+02
2.386479e+03,2.688155e+02
2.389372e+03,2.778187e+02
2.392265e+03,2.726117e+02
2.395157e+03,2.744241e+02
2.398050e+03,2.774759e+02
2.400943e+03,2.741069e+02
2.403835e+03,2.721781e+02
2.406728e+03,2.796159e+02
2.409621e+03,2.652325e+02
2.412513e+03,2.708647e+02
2.415406e+03,2.702880e+02
2.418299e+03,2.669592e+02
2.421192e+03,2.605113e+02
2.424084e+03,2.636498e+02
2.426977e+03,2.706408e+02
2.429870e+03,2.548497e+02
2.432762e+03,2.614644e+02
2.435655e+03,2.595974e+02
2.438548e+03,2.637268e+02
2.441441e+03,2.552031e+02
2.444333e+03,2.572644e+02
2.447226e+03,2.588926e+02
2.450119e+03,2.580393e+02
2.453011e+03,2.651569e+02
2.455904e+03,2.621239e+02
2.458797e+03,2.570880e+02
2.461689e+03,2.567910e+02
2.464582e+03,2.589108e+02
2.467475e+03,2.591786e+02
2.470367e+03,2.570518e+02
2.473260e+03,2.545243e+02
2.476153e+03,2.469549e+02
2.479046e+03,2.571505e+02
2.481938e+03,2.534170e+02
2.484831e+03,2.492901e+02
2.487724e+03,2.494656e+02
2.490616e+03,2.495277e+02
2.493509e+03,2.437297e+02
2.496402e+03,2.537704e+02
2.499295e+03,2.597469e+02
2.502187e+03,2.416041e+02
2.505080e+03,2.505161e+02
2.507973e+03,2.471806e+02
2.510865e+03,2.398417e+02
2.513758e+03,2.442144e+02
2.516651e+03,2.441315e+02
2.519543e+03,2.399234e+02
2.522436e+03,2.408876e+02
2.525329e+03,2.489444e+02
2.528221e+03,2.449297e+02
2.531114e+03,2.430383e+02
2.534007e+03,2.425810e+02
2.536900e+03,2.405163e+02
2.539792e+03,2.383735e+02
2.542685e+03,2.453453e+02
2.545578e+03,2.431684e+02
2.548470e+03,2.482540e+02
2.551363e+03,2.569179e+02
2.554256e+03,2.565990e+02
2.557149e+03,2.397864e+02
2.560041e+03,2.399801e+02
2.562934e+03,2.431601e+02
2.565827e+03,2.399518e+02
2.568719e+03,2.442831e+02
2.571612e+03,2.371112e+02
2.574505e+03,2.504979e+02
2.577397e+03,2.366345e+02
2.580290e+03,2.317699e+02
2.583183e+03,2.289180e+02
2.586075e+03,2.333498e+02
2.588968e+03,2.259912e+02
2.591861e+03,2.314728e+02
2.594754e+03,2.329607e+02
2.597646e+03,2.314263e+02
2.600539e+03,2.237052e+02
2.603432e+03,2.312800e+02
2.606324e+03,2.240656e+02
2.609217e+03,2.291190e+02
2.612110e+03,2.260906e+02
2.615003e+03,2.164271e+02
2.617895e+03,2.233254e+02
2.620788e+03,2.253571e+02
2.623681e+03,2.303251e+02
2.626573e+03,2.191803e+02
2.629466e+03,2.270774e+02
2.632359e+03,2.176353e+02
2.635251e+03,2.154744e+02
2.638144e+03,2.254978e+02
2.641037e+03,2.173320e+02
2.643929e+03,2.157296e+02
2.646822e+03,2.202904e+02
2.649715e+03,2.204662e+02
2.652608e+03,2.237977e+02
2.655500e+03,2.215422e+02
2.658393e+03,2.177334e+02
2.661286e+03,2.163670e+02
2.664178e+03,2.175105e+02
2.667071e+03,2.234469e+02
2.669964e+03,2.158557e+02
2.672857e+03,2.249470e+02
2.675749e+03,2.148706e+02
2.678642e+03,2.133654e+02
2.681535e+03,2.120707e+02
2.684427e+03,2.216414e+02
2.687320e+03,2.153419e+02
2.690213e+03,2.065284e+02
2.693105e+03,2.190406e+02
2.695998e+03,2.195422e+02
2.698891e+03,2.122905e+02
2.701783e+03,2.094665e+02
2.704676e+03,2.093945e+02
2.707569e+03,2.162231e+02
2.710462e+03,2.191930e+02
2.713354e+03,2.206618e+02
2.716247e+03,2.037177e+02
2.719140e+03,2.151343e+02
2.722032e+03,2.015406e+02
2.724925e+03,2.199590e+02
2.727818e+03,2.072785e+02
2.730711e+03,2.153245e+02
2.733603e+03,2.091775e+02
2.736496e+03,2.078770e+02
2.739389e+03,2.045247e+02
2.742281e+03,2.110529e+02
2.745174e+03,2.036327e+02
2.748067e+03,2.074259e+02
2.750959e+03,2.068303e+02
2.753852e+03,2.144858e+02
2.756745e+03,2.024403e+02
2.759637e+03,2.111609e+02
2.762530e+03,2.085924e+02
2.765423e+03,1.912488e+02
2.768316e+03,2.023887e+02
2.771208e+03,2.047813e+02
2.774101e+03,2.044774e+02
2.776994e+03,1.985180e+02
2.779886e+03,1.952057e+02
2.782779e+03,2.024930e+02
2.785672e+03,1.992505e+02
2.788565e+03,1.960953e+02
2.791457e+03,2.178047e+02
2.794350e+03,1.961335e+02
2.797243e+03,2.064700e+02
2.800135e+03,2.133945e+02
2.803028e+03,1.983807e+02
2.805921e+03,2.208465e+02
2.808813e+03,2.111595e+02
2.811706e+03,2.035505e+02
2.814599e+03,2.024996e+02
2.817491e+03,2.001240e+02
2.820384e+03,1.958305e+02
2.823277e+03,2.051386e+02
2.826170e+03,1.977276e+02
2.829062e+03,1.987992e+02
2.831955e+03,2.029656e+02
2.834848e+03,2.032767e+02
2.837740e+03,2.027595e+02
2.840633e+03,2.072414e+02
2.843526e+03,1.974768e+02
2.846419e+03,2.017706e+02
2.849311e+03,2.153965e+02
2.852204e+03,2.044424e+02
2.855097e+03,2.044941e+02
2.857990e+03,2.089281e+02
2.860882e+03,2.095262e+02
2.863775e+03,2.090229e+02
2.866667e+03,2.234065e+02
2.869560e+03,2.139244e+02
2.872453e+03,2.198074e+02
2.875345e+03,2.320374e+02
2.878238e+03,2.278964e+02
2.881131e+03,2.270329e+02
2.884024e+03,2.309609e+02
2.886916e+03,2.456232e+02
2.889809e+03,2.392458e+02
2.892702e+03,2.537802e+02
2.895594e+03,2.423527e+02
2.898487e+03,2.432913e+02
2.901380e+03,2.413807e+02
2.904273e+03,2.388364e+02
2.907165e+03,2.376860e+02
2.910058e+03,2.463823e+02
2.912951e+03,2.247258e+02
2.915844e+03,2.335215e+02
2.918736e+03,2.148525e+02
2.921629e+03,2.224097e+02
2.924521e+03,2.061322e+02
2.927414e+03,2.140663e+02
2.930307e+03,2.195946e+02
2.933199e+03,2.052812e+02
2.936092e+03,2.173181e+02
2.938985e+03,2.144069e+02
2.941878e+03,2.127714e+02
2.944770e+03,2.153650e+02
2.947663e+03,2.131586e+02
2.950556e+03,2.217826e+02
2.953448e+03,2.091646e+02
2.956341e+03,2.375163e+02
2.959234e+03,2.391455e+02
2.962127e+03,2.034514e+02
2.965019e+03,2.139942e+02
2.967912e+03,2.003140e+02
2.970805e+03,2.012016e+02
2.973698e+03,1.934941e+02
2.976590e+03,2.030538e+02
2.979483e+03,1.890825e+02
2.982375e+03,1.941343e+02
2.985268e+03,1.912726e+02
2.988161e+03,1.836847e+02
2.991053e+03,1.852894e+02
2.993946e+03,1.818385e+02
2.996839e+03,2.029728e+02
2.999732e+03,1.731027e+02
3.002624e+03,1.935171e+02
3.005517e+03,1.721960e+02
3.008410e+03,1.845786e+02
3.011302e+03,1.917511e+02
3.014195e+03,1.679294e+02
3.017088e+03,1.839965e+02
3.019981e+03,1.856761e+02
3.022873e+03,1.825123e+02
3.025766e+03,1.803870e+02
3.028659e+03,1.727695e+02
3.031552e+03,1.711180e+02
3.034444e+03,1.905096e+02
3.037337e+03,1.742384e+02
3.040229e+03,1.768809e+02
3.043122e+03,1.858480e+02
3.046015e+03,1.862535e+02
3.048907e+03,1.624825e+02
3.051800e+03,1.823328e+02
3.054693e+03,1.751947e+02
3.057586e+03,1.906120e+02
3.060478e+03,1.797128e+02
3.063371e+03,1.622486e+02
3.066264e+03,1.787625e+02
3.069156e+03,1.979297e+02
3.072049e+03,1.993311e+02
3.074942e+03,1.895851e+02
3.077835e+03,1.806958e+02
3.080727e+03,1.639821e+02
3.083620e+03,1.728355e+02
3.086513e+03,1.943082e+02
3.089406e+03,1.946874e+02
3.092298e+03,1.912415e+02
3.095191e+03,1.781106e+02
3.098083e+03,1.692609e+02
3.100976e+03,2.138261e+02
3.103869e+03,1.676848e+02
3.106761e+03,1.709377e+02
3.109654e+03,2.022547e+02
3.112547e+03,1.964598e+02
3.115440e+03,1.866252e+02
3.118332e+03,1.801959e+02
3.121225e+03,1.786985e+02
3.124118e+03,1.883259e+02
3.127010e+03,1.616319e+02
3.129903e+03,1.694382e+02
3.132796e+03,1.996321e+02
3.135689e+03,1.781036e+02
3.138581e+03,1.997823e+02
3.141474e+03,2.029098e+02
3.144367e+03,1.690734e+02
3.147260e+03,1.892451e+02
3.150152e+03,2.033512e+02
3.153045e+03,1.717498e+02
3.155938e+03,1.837368e+02
3.158830e+03,1.912231e+02
3.161723e+03,1.910922e+02
3.164615e+03,1.706430e+02
3.167508e+03,1.661692e+02
3.170401e+03,1.896379e+02
3.173294e+03,2.073706e+02
3.176186e+03,1.898409e+02
3.179079e+03,2.133410e+02
3.181972e+03,1.609913e+02
3.184865e+03,1.724444e+02
3.187757e+03,2.209690e+02
3.190650e+03,1.554657e+02
3.193543e+03,1.809622e+02
3.196435e+03,2.031305e+02
3.199328e+03,1.905872e+02
3.200292e+03,2.102951e+02