File: RAMAN_data/06022023_r1/blue frag4.CSV
1.995979e+02,4.937341e+03
2.024906e+02,4.956522e+03
2.053833e+02,4.981457e+03
2.082760e+02,4.996253e+03
2.111687e+02,5.005224e+03
2.140614e+02,5.016353e+03
2.169541e+02,5.032200e+03
2.198468e+02,5.052978e+03
2.227395e+02,5.053198e+03
2.256322e+02,5.081231e+03
2.285249e+02,5.103236e+03
2.314176e+02,5.130269e+03
2.343103e+02,5.138831e+03
2.372030e+02,5.167373e+03
2.400957e+02,5.180320e+03
2.429884e+02,5.190400e+03
2.458811e+02,5.217372e+03
2.487738e+02,5.247312e+03
2.516665e+02,5.293653e+03
2.545592e+02,5.280827e+03
2.574519e+02,5.309185e+03
2.603446e+02,5.322329e+03
2.632373e+02,5.382394e+03
2.661300e+02,5.390821e+03
2.690227e+02,5.405024e+03
2.719154e+02,5.422837e+03
2.748081e+02,5.466669e+03
2.777008e+02,5.506344e+03
2.805935e+02,5.559775e+03
2.834862e+02,5.558209e+03
2.863789e+02,5.538349e+03
2.892716e+02,5.523763e+03
2.921643e+02,5.536055e+03
2.950570e+02,5.526674e+03
2.979497e+02,5.542867e+03
3.008424e+02,5.551353e+03
3.037351e+02,5.563027e+03
3.066278e+02,5.564753e+03
3.095205e+02,5.569708e+03
3.124132e+02,5.580043e+03
3.153059e+02,5.603698e+03
3.181986e+02,5.625582e+03
3.210913e+02,5.632667e+03
3.239840e+02,5.635601e+03
3.268767e+02,5.659213e+03
3.297694e+02,5.689558e+03
3.326621e+02,5.693839e+03
3.355548e+02,5.672995e+03
3.384475e+02,5.680782e+03
3.413402e+02,5.744756e+03
3.442329e+02,5.725931e+03
3.471256e+02,5.740607e+03
3.500183e+02,5.746869e+03
3.529110e+02,5.751289e+03
3.558037e+02,5.795282e+03
3.586964e+02,5.762070e+03
3.615891e+02,5.790505e+03
3.644818e+02,5.795767e+03
3.673745e+02,5.802703e+03
3.702672e+02,5.815839e+03
3.731599e+02,5.845149e+03
3.760526e+02,5.866307e+03
3.789453e+02,5.870862e+03
3.818380e+02,5.865990e+03
3.847307e+02,5.875910e+03
3.876234e+02,5.862854e+03
3.905161e+02,5.873565e+03
3.934088e+02,5.897968e+03
3.963015e+02,5.886475e+03
3.991942e+02,5.867850e+03
4.020869e+02,5.901260e+03
4.049796e+02,5.918574e+03
4.078723e+02,5.913826e+03
4.107650e+02,5.905722e+03
4.136577e+02,5.910042e+03
4.165504e+02,5.923143e+03
4.194431e+02,5.937047e+03
4.223358e+02,5.945191e+03
4.252285e+02,5.962369e+03
4.281212e+02,5.934163e+03
4.310139e+02,5.986942e+03
4.339066e+02,5.996379e+03
4.367993e+02,5.977077e+03
4.396920e+02,5.967298e+03
4.425847e+02,5.982131e+03
4.454774e+02,5.977273e+03
4.483701e+02,5.988931e+03
4.512628e+02,5.999049e+03
4.541555e+02,6.010297e+03
4.570482e+02,6.034947e+03
4.599409e+02,6.004903e+03
4.628336e+02,5.997769e+03
4.657263e+02,6.016249e+03
4.686190e+02,6.028089e+03
4.715117e+02,6.024577e+03
4.744044e+02,6.019140e+03
4.772971e+02,6.026558e+03
4.801898e+02,6.007452e+03
4.830825e+02,6.021997e+03
4.859752e+02,6.031134e+03
4.888679e+02,6.028550e+03
4.917606e+02,6.018442e+03
4.946533e+02,6.028688e+03
4.975460e+02,6.048577e+03
5.004387e+02,6.054782e+03
5.033314e+02,6.044196e+03
5.062241e+02,6.052433e+03
5.091168e+02,6.063400e+03
5.120095e+02,6.090594e+03
5.149022e+02,6.073935e+03
5.177949e+02,6.074429e+03
5.206876e+02,6.059620e+03
5.235803e+02,6.054268e+03
5.264730e+02,6.087703e+03
5.293657e+02,6.082151e+03
5.322584e+02,6.088718e+03
5.351511e+02,6.104575e+03
5.380438e+02,6.102708e+03
5.409365e+02,6.103192e+03
5.438292e+02,6.137609e+03
5.467219e+02,6.139709e+03
5.496146e+02,6.151124e+03
5.525073e+02,6.172248e+03
5.554000e+02,6.227655e+03
5.582927e+02,6.253548e+03
5.611854e+02,6.216587e+03
5.640781e+02,6.175198e+03
5.669708e+02,6.117384e+03
5.698635e+02,6.086668e+03
5.727562e+02,6.055011e+03
5.756489e+02,6.054703e+03
5.785416e+02,6.055608e+03
5.814343e+02,6.057561e+03
5.843270e+02,6.056130e+03
5.872197e+02,6.020952e+03
5.901124e+02,6.073378e+03
5.930051e+02,6.062530e+03
5.958978e+02,6.085960e+03
5.987905e+02,6.069407e+03
6.016832e+02,6.084322e+03
6.045759e+02,6.084317e+03
6.074686e+02,6.128078e+03
6.103613e+02,6.178810e+03
6.132540e+02,6.131612e+03
6.161467e+02,6.043953e+03
6.190394e+02,6.027402e+03
6.219321e+02,6.018290e+03
6.248248e+02,6.020580e+03
6.277175e+02,6.020850e+03
6.306102e+02,6.003024e+03
6.335029e+02,6.015723e+03
6.363956e+02,6.005435e+03
6.392883e+02,5.995963e+03
6.421810e+02,5.979645e+03
6.450737e+02,5.973646e+03
6.479664e+02,5.977216e+03
6.508591e+02,5.965200e+03
6.537518e+02,5.964558e+03
6.566445e+02,5.940400e+03
6.595372e+02,5.913425e+03
6.624299e+02,5.941221e+03
6.653226e+02,5.919314e+03
6.682153e+02,5.936399e+03
6.711080e+02,5.923325e+03
6.740007e+02,5.902407e+03
6.768934e+02,5.882688e+03
6.797861e+02,5.881414e+03
6.826788e+02,5.921692e+03
6.855715e+02,5.903591e+03
6.884642e+02,5.865823e+03
6.913569e+02,5.851627e+03
6.942496e+02,5.837600e+03
6.971423e+02,5.846421e+03
7.000350e+02,5.833217e+03
7.029277e+02,5.853102e+03
7.058204e+02,5.800577e+03
7.087131e+02,5.804885e+03
7.116058e+02,5.809957e+03
7.144985e+02,5.791589e+03
7.173912e+02,5.801119e+03
7.202839e+02,5.777609e+03
7.231766e+02,5.759712e+03
7.260693e+02,5.753763e+03
7.289620e+02,5.760466e+03
7.318547e+02,5.756086e+03
7.347474e+02,5.723760e+03
7.376401e+02,5.702017e+03
7.405328e+02,5.709765e+03
7.434255e+02,5.694710e+03
7.463182e+02,5.700693e+03
7.492109e+02,5.701257e+03
7.521036e+02,5.685979e+03
7.549963e+02,5.673361e+03
7.578890e+02,5.681672e+03
7.607817e+02,5.663913e+03
7.636744e+02,5.657752e+03
7.665671e+02,5.652424e+03
7.694598e+02,5.634587e+03
7.723525e+02,5.622077e+03
7.752452e+02,5.640037e+03
7.781379e+02,5.651303e+03
7.810306e+02,5.646306e+03
7.839233e+02,5.639137e+03
7.868160e+02,5.636944e+03
7.897087e+02,5.640941e+03
7.926014e+02,5.604079e+03
7.954941e+02,5.576917e+03
7.983868e+02,5.544350e+03
8.012795e+02,5.530472e+03
8.041722e+02,5.535013e+03
8.070649e+02,5.518456e+03
8.099576e+02,5.507019e+03
8.128503e+02,5.504441e+03
8.157430e+02,5.483474e+03
8.186357e+02,5.495034e+03
8.215284e+02,5.476105e+03
8.244211e+02,5.459599e+03
8.273138e+02,5.448635e+03
8.302065e+02,5.461135e+03
8.330992e+02,5.416733e+03
8.359919e+02,5.440422e+03
8.388846e+02,5.418854e+03
8.417773e+02,5.436239e+03
8.446700e+02,5.398506e+03
8.475627e+02,5.383563e+03
8.504554e+02,5.367299e+03
8.533481e+02,5.360943e+03
8.562408e+02,5.348848e+03
8.591335e+02,5.357705e+03
8.620262e+02,5.341651e+03
8.649189e+02,5.320351e+03
8.678116e+02,5.308993e+03
8.707043e+02,5.299767e+03
8.735970e+02,5.290465e+03
8.764897e+02,5.293166e+03
8.793824e+02,5.273083e+03
8.822751e+02,5.260125e+03
8.851678e+02,5.267323e+03
8.880605e+02,5.259003e+03
8.909532e+02,5.244581e+03
8.938459e+02,5.191543e+03
8.967386e+02,5.220342e+03
8.996313e+02,5.211799e+03
9.025240e+02,5.207394e+03
9.054167e+02,5.163563e+03
9.083094e+02,5.136962e+03
9.112021e+02,5.145148e+03
9.140948e+02,5.145538e+03
9.169875e+02,5.141541e+03
9.198802e+02,5.129261e+03
9.227729e+02,5.090509e+03
9.256656e+02,5.057108e+03
9.285583e+02,5.077584e+03
9.314510e+02,5.067441e+03
9.343438e+02,5.058858e+03
9.372365e+02,5.034648e+03
9.401292e+02,5.012934e+03
9.430219e+02,5.024198e+03
9.459146e+02,5.020942e+03
9.488073e+02,5.027006e+03
9.517000e+02,4.965647e+03
9.545927e+02,4.963955e+03
9.574854e+02,4.955412e+03
9.603781e+02,4.965849e+03
9.632708e+02,4.945292e+03
9.661635e+02,4.929411e+03
9.690562e+02,4.902161e+03
9.719489e+02,4.896612e+03
9.748416e+02,4.892839e+03
9.777343e+02,4.888692e+03
9.806270e+02,4.893172e+03
9.835197e+02,4.862611e+03
9.864124e+02,4.833604e+03
9.893051e+02,4.820106e+03
9.921978e+02,4.821229e+03
9.950905e+02,4.835769e+03
9.979832e+02,4.794300e+03
1.000876e+03,4.774813e+03
1.003769e+03,4.755054e+03
1.006661e+03,4.760743e+03
1.009554e+03,4.761197e+03
1.012447e+03,4.741802e+03
1.015339e+03,4.732737e+03
1.018232e+03,4.706091e+03
1.021125e+03,4.710075e+03
1.024017e+03,4.712771e+03
1.026910e+03,4.677060e+03
1.029803e+03,4.682481e+03
1.032696e+03,4.669049e+03
1.035588e+03,4.673247e+03
1.038481e+03,4.650036e+03
1.041374e+03,4.629281e+03
1.044266e+03,4.645241e+03
1.047159e+03,4.625761e+03
1.050052e+03,4.601169e+03
1.052944e+03,4.599732e+03
1.055837e+03,4.606487e+03
1.058730e+03,4.579980e+03
1.061623e+03,4.563893e+03
1.064515e+03,4.573741e+03
1.067408e+03,4.563798e+03
1.070301e+03,4.566445e+03
1.073193e+03,4.593296e+03
1.076086e+03,4.572501e+03
1.078979e+03,4.555865e+03
1.081871e+03,4.549958e+03
1.084764e+03,4.559534e+03
1.087657e+03,4.558038e+03
1.090550e+03,4.551829e+03
1.093442e+03,4.517410e+03
1.096335e+03,4.488227e+03
1.099228e+03,4.445071e+03
1.102120e+03,4.448594e+03
1.105013e+03,4.451654e+03
1.107906e+03,4.430356e+03
1.110798e+03,4.433744e+03
1.113691e+03,4.398842e+03
1.116584e+03,4.412928e+03
1.119477e+03,4.422596e+03
1.122369e+03,4.403124e+03
1.125262e+03,4.382737e+03
1.128155e+03,4.346450e+03
1.131047e+03,4.360288e+03
1.133940e+03,4.351479e+03
1.136833e+03,4.330879e+03
1.139725e+03,4.290462e+03
1.142618e+03,4.296325e+03
1.145511e+03,4.317694e+03
1.148404e+03,4.293333e+03
1.151296e+03,4.276418e+03
1.154189e+03,4.250167e+03
1.157082e+03,4.227420e+03
1.159974e+03,4.234582e+03
1.162867e+03,4.234827e+03
1.165760e+03,4.211715e+03
1.168652e+03,4.201517e+03
1.171545e+03,4.185750e+03
1.174438e+03,4.167158e+03
1.177331e+03,4.170983e+03
1.180223e+03,4.184100e+03
1.183116e+03,4.174163e+03
1.186009e+03,4.153279e+03
1.188901e+03,4.150420e+03
1.191794e+03,4.143386e+03
1.194687e+03,4.128204e+03
1.197579e+03,4.136710e+03
1.200472e+03,4.130642e+03
1.203365e+03,4.091911e+03
1.206258e+03,4.060002e+03
1.209150e+03,4.069132e+03
1.212043e+03,4.065409e+03
1.214936e+03,4.044960e+03
1.217828e+03,4.047533e+03
1.220721e+03,4.034865e+03
1.223614e+03,4.028325e+03
1.226506e+03,4.035342e+03
1.229399e+03,4.017593e+03
1.232292e+03,3.989982e+03
1.235185e+03,3.991562e+03
1.238077e+03,3.989794e+03
1.240970e+03,3.979297e+03
1.243863e+03,3.970847e+03
1.246755e+03,3.946290e+03
1.249648e+03,3.946941e+03
1.252541e+03,3.934302e+03
1.255433e+03,3.935259e+03
1.258326e+03,3.902161e+03
1.261219e+03,3.910796e+03
1.264112e+03,3.882636e+03
1.267004e+03,3.890059e+03
1.269897e+03,3.881887e+03
1.272790e+03,3.892617e+03
1.275682e+03,3.871191e+03
1.278575e+03,3.860812e+03
1.281468e+03,3.836202e+03
1.284360e+03,3.844202e+03
1.287253e+03,3.846375e+03
1.290146e+03,3.830723e+03
1.293039e+03,3.825450e+03
1.295931e+03,3.794280e+03
1.298824e+03,3.778402e+03
1.301717e+03,3.773853e+03
1.304609e+03,3.785184e+03
1.307502e+03,3.781848e+03
1.310395e+03,3.790064e+03
1.313287e+03,3.774620e+03
1.316180e+03,3.743440e+03
1.319073e+03,3.772577e+03
1.321966e+03,3.739816e+03
1.324858e+03,3.746937e+03
1.327751e+03,3.742373e+03
1.330644e+03,3.745767e+03
1.333536e+03,3.756968e+03
1.336429e+03,3.735481e+03
1.339322e+03,3.701548e+03
1.342214e+03,3.689664e+03
1.345107e+03,3.695297e+03
1.348000e+03,3.691597e+03
1.350893e+03,3.691321e+03
1.353785e+03,3.687290e+03
1.356678e+03,3.672501e+03
1.359571e+03,3.661883e+03
1.362463e+03,3.672831e+03
1.365356e+03,3.668751e+03
1.368249e+03,3.658930e+03
1.371141e+03,3.649754e+03
1.374034e+03,3.619134e+03
1.376927e+03,3.615864e+03
1.379820e+03,3.623487e+03
1.382712e+03,3.617996e+03
1.385605e+03,3.590486e+03
1.388498e+03,3.585708e+03
1.391390e+03,3.568088e+03
1.394283e+03,3.558396e+03
1.397176e+03,3.560493e+03
1.400068e+03,3.550369e+03
1.402961e+03,3.556571e+03
1.405854e+03,3.539258e+03
1.408747e+03,3.522721e+03
1.411639e+03,3.546337e+03
1.414532e+03,3.523198e+03
1.417425e+03,3.522271e+03
1.420317e+03,3.494783e+03
1.423210e+03,3.481859e+03
1.426103e+03,3.480485e+03
1.428995e+03,3.481090e+03
1.431888e+03,3.484269e+03
1.434781e+03,3.469719e+03
1.437674e+03,3.460867e+03
1.440566e+03,3.457011e+03
1.443459e+03,3.468526e+03
1.446352e+03,3.456137e+03
1.449244e+03,3.458101e+03
1.452137e+03,3.470639e+03
1.455030e+03,3.453874e+03
1.457922e+03,3.414125e+03
1.460815e+03,3.447729e+03
1.463708e+03,3.421411e+03
1.466601e+03,3.421172e+03
1.469493e+03,3.385561e+03
1.472386e+03,3.382642e+03
1.475279e+03,3.386385e+03
1.478171e+03,3.398388e+03
1.481064e+03,3.373452e+03
1.483957e+03,3.359355e+03
1.486849e+03,3.365086e+03
1.489742e+03,3.373388e+03
1.492635e+03,3.360353e+03
1.495528e+03,3.329551e+03
1.498420e+03,3.325954e+03
1.501313e+03,3.335872e+03
1.504206e+03,3.336628e+03
1.507098e+03,3.327423e+03
1.509991e+03,3.313357e+03
1.512884e+03,3.311480e+03
1.515776e+03,3.313172e+03
1.518669e+03,3.308412e+03
1.521562e+03,3.308074e+03
1.524455e+03,3.280406e+03
1.527347e+03,3.271558e+03
1.530240e+03,3.256519e+03
1.533133e+03,3.245524e+03
1.536025e+03,3.238413e+03
1.538918e+03,3.249488e+03
1.541811e+03,3.231167e+03
1.544703e+03,3.221517e+03
1.547596e+03,3.217421e+03
1.550489e+03,3.231844e+03
1.553382e+03,3.219578e+03
1.556274e+03,3.222386e+03
1.559167e+03,3.220047e+03
1.562060e+03,3.228550e+03
1.564952e+03,3.231572e+03
1.567845e+03,3.274932e+03
1.570738e+03,3.284984e+03
1.573630e+03,3.284899e+03
1.576523e+03,3.250406e+03
1.579416e+03,3.223152e+03
1.582309e+03,3.238809e+03
1.585201e+03,3.218612e+03
1.588094e+03,3.173325e+03
1.590987e+03,3.150978e+03
1.593879e+03,3.138886e+03
1.596772e+03,3.137878e+03
1.599665e+03,3.130337e+03
1.602557e+03,3.117183e+03
1.605450e+03,3.132647e+03
1.608343e+03,3.120828e+03
1.611236e+03,3.104964e+03
1.614128e+03,3.067021e+03
1.617021e+03,3.081082e+03
1.619914e+03,3.094554e+03
1.622806e+03,3.088281e+03
1.625699e+03,3.072450e+03
1.628592e+03,3.099708e+03
1.631484e+03,3.086980e+03
1.634377e+03,3.048623e+03
1.637270e+03,3.058784e+03
1.640163e+03,3.029853e+03
1.643055e+03,3.008683e+03
1.645948e+03,3.011148e+03
1.648841e+03,2.995302e+03
1.651733e+03,2.990658e+03
1.654626e+03,3.001086e+03
1.657519e+03,2.971575e+03
1.660411e+03,2.972938e+03
1.663304e+03,2.978343e+03
1.666197e+03,2.969691e+03
1.669090e+03,2.961094e+03
1.671982e+03,2.976230e+03
1.674875e+03,2.956978e+03
1.677768e+03,2.953074e+03
1.680660e+03,2.953962e+03
1.683553e+03,2.955239e+03
1.686446e+03,2.945579e+03
1.689339e+03,2.918228e+03
1.692231e+03,2.915672e+03
1.695124e+03,2.909626e+03
1.698017e+03,2.895041e+03
1.700909e+03,2.883359e+03
1.703802e+03,2.887578e+03
1.706695e+03,2.874767e+03
1.709587e+03,2.876828e+03
1.712480e+03,2.849642e+03
1.715373e+03,2.833957e+03
1.718266e+03,2.849844e+03
1.721158e+03,2.837112e+03
1.724051e+03,2.815191e+03
1.726944e+03,2.816871e+03
1.729836e+03,2.820564e+03
1.732729e+03,2.795148e+03
1.735622e+03,2.825395e+03
1.738514e+03,2.785398e+03
1.741407e+03,2.818149e+03
1.744300e+03,2.800950e+03
1.747193e+03,2.777561e+03
1.750085e+03,2.790590e+03
1.752978e+03,2.775748e+03
1.755871e+03,2.726479e+03
1.758763e+03,2.765226e+03
1.761656e+03,2.757357e+03
1.764549e+03,2.731773e+03
1.767441e+03,2.748132e+03
1.770334e+03,2.721444e+03
1.773227e+03,2.730412e+03
1.776120e+03,2.716194e+03
1.779012e+03,2.720411e+03
1.781905e+03,2.710121e+03
1.784798e+03,2.691519e+03
1.787690e+03,2.684306e+03
1.790583e+03,2.671568e+03
1.793476e+03,2.648106e+03
1.796368e+03,2.682733e+03
1.799261e+03,2.672601e+03
1.802154e+03,2.661080e+03
1.805047e+03,2.638447e+03
1.807939e+03,2.658858e+03
1.810832e+03,2.634686e+03
1.813725e+03,2.632313e+03
1.816617e+03,2.620321e+03
1.819510e+03,2.596124e+03
1.822403e+03,2.604741e+03
1.825295e+03,2.594380e+03
1.828188e+03,2.591547e+03
1.831081e+03,2.596555e+03
1.833974e+03,2.574235e+03
1.836866e+03,2.567991e+03
1.839759e+03,2.550907e+03
1.842652e+03,2.558682e+03
1.845544e+03,2.567948e+03
1.848437e+03,2.546915e+03
1.851330e+03,2.539553e+03
1.854222e+03,2.521222e+03
1.857115e+03,2.534195e+03
1.860008e+03,2.541495e+03
1.862901e+03,2.506563e+03
1.865793e+03,2.505349e+03
1.868686e+03,2.500832e+03
1.871579e+03,2.494610e+03
1.874471e+03,2.486483e+03
1.877364e+03,2.489783e+03
1.880257e+03,2.466122e+03
1.883149e+03,2.445813e+03
1.886042e+03,2.474765e+03
1.888935e+03,2.431636e+03
1.891828e+03,2.443122e+03
1.894720e+03,2.420362e+03
1.897613e+03,2.412315e+03
1.900506e+03,2.424012e+03
1.903398e+03,2.406056e+03
1.906291e+03,2.424616e+03
1.909184e+03,2.430602e+03
1.912076e+03,2.380582e+03
1.914969e+03,2.387612e+03
1.917862e+03,2.385974e+03
1.920755e+03,2.373282e+03
1.923647e+03,2.391615e+03
1.926540e+03,2.384956e+03
1.929433e+03,2.362573e+03
1.932325e+03,2.355451e+03
1.935218e+03,2.349552e+03
1.938111e+03,2.355828e+03
1.941003e+03,2.320566e+03
1.943896e+03,2.323299e+03
1.946789e+03,2.337635e+03
1.949682e+03,2.297203e+03
1.952574e+03,2.305876e+03
1.955467e+03,2.299218e+03
1.958360e+03,2.304521e+03
1.961252e+03,2.277593e+03
1.964145e+03,2.277400e+03
1.967038e+03,2.263488e+03
1.969930e+03,2.273025e+03
1.972823e+03,2.259856e+03
1.975716e+03,2.263802e+03
1.978609e+03,2.245161e+03
1.981501e+03,2.245614e+03
1.984394e+03,2.240777e+03
1.987287e+03,2.234271e+03
1.990179e+03,2.226508e+03
1.993072e+03,2.221481e+03
1.995965e+03,2.190796e+03
1.998857e+03,2.214413e+03
2.001750e+03,2.191179e+03
2.004643e+03,2.185634e+03
2.007536e+03,2.181391e+03
2.010428e+03,2.173576e+03
2.013321e+03,2.165220e+03
2.016214e+03,2.151293e+03
2.019106e+03,2.173365e+03
2.021999e+03,2.133566e+03
2.024892e+03,2.126541e+03
2.027784e+03,2.128227e+03
2.030677e+03,2.123425e+03
2.033570e+03,2.127566e+03
2.036463e+03,2.114663e+03
2.039355e+03,2.085776e+03
2.042248e+03,2.100294e+03
2.045141e+03,2.082824e+03
2.048033e+03,2.076674e+03
2.050926e+03,2.072677e+03
2.053819e+03,2.079326e+03
2.056711e+03,2.064932e+03
2.059604e+03,2.058404e+03
2.062497e+03,2.073259e+03
2.065390e+03,2.049421e+03
2.068282e+03,2.028254e+03
2.071175e+03,2.043865e+03
2.074068e+03,2.023309e+03
2.076960e+03,2.033313e+03
2.079853e+03,2.024534e+03
2.082746e+03,2.024260e+03
2.085638e+03,1.997826e+03
2.088531e+03,2.000153e+03
2.091424e+03,2.013642e+03
2.094316e+03,1.975914e+03
2.097209e+03,1.987193e+03
2.100102e+03,1.972462e+03
2.102995e+03,1.950144e+03
2.105887e+03,1.958468e+03
2.108780e+03,1.953257e+03
2.111673e+03,1.934980e+03
2.114565e+03,1.946320e+03
2.117458e+03,1.926356e+03
2.120351e+03,1.936015e+03
2.123244e+03,1.941079e+03
2.126136e+03,1.911013e+03
2.129029e+03,1.898653e+03
2.131922e+03,1.883317e+03
2.134814e+03,1.899786e+03
2.137707e+03,1.899954e+03
2.140600e+03,1.884405e+03
2.143492e+03,1.863467e+03
2.146385e+03,1.851113e+03
2.149278e+03,1.871043e+03
2.152170e+03,1.862000e+03
2.155063e+03,1.867939e+03
2.157956e+03,1.856292e+03
2.160849e+03,1.837101e+03
2.163741e+03,1.844969e+03
2.166634e+03,1.817286e+03
2.169527e+03,1.843980e+03
2.172419e+03,1.817180e+03
2.175312e+03,1.820350e+03
2.178205e+03,1.803240e+03
2.181098e+03,1.776038e+03
2.183990e+03,1.774169e+03
2.186883e+03,1.774473e+03
2.189776e+03,1.791515e+03
2.192668e+03,1.775550e+03
2.195561e+03,1.754796e+03
2.198454e+03,1.763378e+03
2.201346e+03,1.766106e+03
2.204239e+03,1.746189e+03
2.207132e+03,1.744284e+03
2.210024e+03,1.740718e+03
2.212917e+03,1.722300e+03
2.215810e+03,1.740943e+03
2.218703e+03,1.736623e+03
2.221595e+03,1.710595e+03
2.224488e+03,1.709945e+03
2.227381e+03,1.686591e+03
2.230273e+03,1.691734e+03
2.233166e+03,1.704324e+03
2.236059e+03,1.698110e+03
2.238952e+03,1.681867e+03
2.241844e+03,1.684205e+03
2.244737e+03,1.666204e+03
2.247630e+03,1.671297e+03
2.250522e+03,1.656165e+03
2.253415e+03,1.671178e+03
2.256308e+03,1.637317e+03
2.259200e+03,1.619511e+03
2.262093e+03,1.638563e+03
2.264986e+03,1.619150e+03
2.267879e+03,1.613275e+03
2.270771e+03,1.610994e+03
2.273664e+03,1.604031e+03
2.276557e+03,1.597215e+03
2.279449e+03,1.606807e+03
2.282342e+03,1.605221e+03
2.285235e+03,1.582198e+03
2.288127e+03,1.578868e+03
2.291020e+03,1.576212e+03
2.293913e+03,1.570189e+03
2.296805e+03,1.562782e+03
2.299698e+03,1.559640e+03
2.302591e+03,1.563298e+03
2.305484e+03,1.549719e+03
2.308376e+03,1.545110e+03
2.311269e+03,1.534829e+03
2.314162e+03,1.527725e+03
2.317054e+03,1.540450e+03
2.319947e+03,1.521584e+03
2.322840e+03,1.531287e+03
2.325733e+03,1.505604e+03
2.328625e+03,1.506862e+03
2.331518e+03,1.493590e+03
2.334411e+03,1.510520e+03
2.337303e+03,1.476908e+03
2.340196e+03,1.477988e+03
2.343089e+03,1.496606e+03
2.345981e+03,1.491645e+03
2.348874e+03,1.473295e+03
2.351767e+03,1.466184e+03
2.354659e+03,1.469904e+03
2.357552e+03,1.464155e+03
2.360445e+03,1.468802e+03
2.363338e+03,1.446330e+03
2.366230e+03,1.447241e+03
2.369123e+03,1.446157e+03
2.372016e+03,1.429406e+03
2.374908e+03,1.433675e+03
2.377801e+03,1.446853e+03
2.380694e+03,1.414489e+03
2.383587e+03,1.411333e+03
2.386479e+03,1.403056e+03
2.389372e+03,1.419023e+03
2.392265e+03,1.385617e+03
2.395157e+03,1.387506e+03
2.398050e+03,1.394443e+03
2.400943e+03,1.373643e+03
2.403835e+03,1.372330e+03
2.406728e+03,1.367496e+03
2.409621e+03,1.376733e+03
2.412513e+03,1.361047e+03
2.415406e+03,1.350223e+03
2.418299e+03,1.338899e+03
2.421192e+03,1.354398e+03
2.424084e+03,1.347771e+03
2.426977e+03,1.353942e+03
2.429870e+03,1.341304e+03
2.432762e+03,1.342256e+03
2.435655e+03,1.325722e+03
2.438548e+03,1.326838e+03
2.441441e+03,1.317115e+03
2.444333e+03,1.321067e+03
2.447226e+03,1.287703e+03
2.450119e+03,1.298933e+03
2.453011e+03,1.327829e+03
2.455904e+03,1.296272e+03
2.458797e+03,1.303413e+03
2.461689e+03,1.298958e+03
2.464582e+03,1.271975e+03
2.467475e+03,1.279234e+03
2.470367e+03,1.269662e+03
2.473260e+03,1.271482e+03
2.476153e+03,1.254558e+03
2.479046e+03,1.262238e+03
2.481938e+03,1.267905e+03
2.484831e+03,1.246579e+03
2.487724e+03,1.263663e+03
2.490616e+03,1.252768e+03
2.493509e+03,1.245235e+03
2.496402e+03,1.235786e+03
2.499295e+03,1.243920e+03
2.502187e+03,1.231696e+03
2.505080e+03,1.230678e+03
2.507973e+03,1.215111e+03
2.510865e+03,1.202909e+03
2.513758e+03,1.223987e+03
2.516651e+03,1.212017e+03
2.519543e+03,1.205825e+03
2.522436e+03,1.193259e+03
2.525329e+03,1.186802e+03
2.528221e+03,1.197442e+03
2.531114e+03,1.191346e+03
2.534007e+03,1.199008e+03
2.536900e+03,1.191375e+03
2.539792e+03,1.198183e+03
2.542685e+03,1.186961e+03
2.545578e+03,1.184826e+03
2.548470e+03,1.187926e+03
2.551363e+03,1.176037e+03
2.554256e+03,1.172517e+03
2.557149e+03,1.175837e+03
2.560041e+03,1.173986e+03
2.562934e+03,1.159542e+03
2.565827e+03,1.155542e+03
2.568719e+03,1.149543e+03
2.571612e+03,1.143775e+03
2.574505e+03,1.152395e+03
2.577397e+03,1.133851e+03
2.580290e+03,1.147635e+03
2.583183e+03,1.141268e+03
2.586075e+03,1.123002e+03
2.588968e+03,1.134012e+03
2.591861e+03,1.137255e+03
2.594754e+03,1.123563e+03
2.597646e+03,1.129521e+03
2.600539e+03,1.112486e+03
2.603432e+03,1.107609e+03
2.606324e+03,1.085227e+03
2.609217e+03,1.098127e+03
2.612110e+03,1.095793e+03
2.615003e+03,1.092939e+03
2.617895e+03,1.098049e+03
2.620788e+03,1.084508e+03
2.623681e+03,1.076017e+03
2.626573e+03,1.081901e+03
2.629466e+03,1.069973e+03
2.632359e+03,1.066109e+03
2.635251e+03,1.059056e+03
2.638144e+03,1.062993e+03
2.641037e+03,1.055640e+03
2.643929e+03,1.045573e+03
2.646822e+03,1.056691e+03
2.649715e+03,1.055205e+03
2.652608e+03,1.047432e+03
2.655500e+03,1.054837e+03
2.658393e+03,1.056623e+03
2.661286e+03,1.036979e+03
2.664178e+03,1.042493e+03
2.667071e+03,1.049885e+03
2.669964e+03,1.038669e+03
2.672857e+03,1.036813e+03
2.675749e+03,1.021798e+03
2.678642e+03,1.042938e+03
2.681535e+03,1.038640e+03
2.684427e+03,1.013835e+03
2.687320e+03,1.022646e+03
2.690213e+03,1.011268e+03
2.693105e+03,9.857086e+02
2.695998e+03,1.011440e+03
2.698891e+03,9.920150e+02
2.701783e+03,1.006430e+03
2.704676e+03,1.000495e+03
2.707569e+03,1.006865e+03
2.710462e+03,9.991624e+02
2.713354e+03,9.888254e+02
2.716247e+03,1.002129e+03
2.719140e+03,9.881253e+02
2.722032e+03,9.676426e+02
2.724925e+03,9.900437e+02
2.727818e+03,9.745062e+02
2.730711e+03,9.762899e+02
2.733603e+03,9.816414e+02
2.736496e+03,9.727657e+02
2.739389e+03,9.570828e+02
2.742281e+03,9.598308e+02
2.745174e+03,9.373636e+02
2.748067e+03,9.600847e+02
2.750959e+03,9.485866e+02
2.753852e+03,9.473304e+02
2.756745e+03,9.532009e+02
2.759637e+03,9.404983e+02
2.762530e+03,9.578276e+02
2.765423e+03,9.267130e+02
2.768316e+03,9.350837e+02
2.771208e+03,9.349382e+02
2.774101e+03,9.416092e+02
2.776994e+03,9.184656e+02
2.779886e+03,9.358696e+02
2.782779e+03,9.240635e+02
2.785672e+03,9.279221e+02
2.788565e+03,9.162728e+02
2.791457e+03,9.237236e+02
2.794350e+03,9.353412e+02
2.797243e+03,9.064520e+02
2.800135e+03,9.237075e+02
2.803028e+03,9.162780e+02
2.805921e+03,8.962761e+02
2.808813e+03,8.992560e+02
2.811706e+03,9.029004e+02
2.814599e+03,9.210987e+02
2.817491e+03,8.960781e+02
2.820384e+03,8.957375e+02
2.823277e+03,8.877195e+02
2.826170e+03,8.739493e+02
2.829062e+03,9.013555e+02
2.831955e+03,8.883411e+02
2.834848e+03,8.808004e+02
2.837740e+03,8.997141e+02
2.840633e+03,8.831426e+02
2.843526e+03,8.755591e+02
2.846419e+03,8.807268e+02
2.849311e+03,8.877431e+02
2.852204e+03,8.931863e+02
2.855097e+03,8.769112e+02
2.857990e+03,8.716541e+02
2.860882e+03,8.959490e+02
2.863775e+03,8.785780e+02
2.866667e+03,8.999913e+02
2.869560e+03,8.963273e+02
2.872453e+03,8.829423e+02
2.875345e+03,9.001364e+02
2.878238e+03,8.834880e+02
2.881131e+03,8.963596e+02
2.884024e+03,8.785756e+02
2.886916e+03,8.859514e+02
2.889809e+03,9.027331e+02
2.892702e+03,8.898076e+02
2.895594e+03,8.816893e+02
2.898487e+03,8.777374e+02
2.901380e+03,8.959270e+02
2.904273e+03,8.817610e+02
2.907165e+03,8.737807e+02
2.910058e+03,8.578773e+02
2.912951e+03,8.569496e+02
2.915844e+03,8.751293e+02
2.918736e+03,8.432810e+02
2.921629e+03,8.620062e+02
2.924521e+03,8.278144e+02
2.927414e+03,8.453720e+02
2.930307e+03,8.612056e+02
2.933199e+03,8.281989e+02
2.936092e+03,8.490652e+02
2.938985e+03,8.328757e+02
2.941878e+03,8.559811e+02
2.944770e+03,8.352634e+02
2.947663e+03,8.313684e+02
2.950556e+03,8.151982e+02
2.953448e+03,8.087900e+02
2.956341e+03,8.459069e+02
2.959234e+03,8.551332e+02
2.962127e+03,8.190870e+02
2.965019e+03,8.130046e+02
2.967912e+03,7.838441e+02
2.970805e+03,7.847626e+02
2.973698e+03,8.061453e+02
2.976590e+03,7.918030e+02
2.979483e+03,8.216420e+02
2.982375e+03,8.072148e+02
2.985268e+03,7.873552e+02
2.988161e+03,7.917106e+02
2.991053e+03,7.894983e+02
2.993946e+03,7.904727e+02
2.996839e+03,7.983850e+02
2.999732e+03,7.913183e+02
3.002624e+03,7.734506e+02
3.005517e+03,7.765377e+02
3.008410e+03,7.668870e+02
3.011302e+03,7.805173e+02
3.014195e+03,7.983271e+02
3.017088e+03,7.850848e+02
3.019981e+03,7.851278e+02
3.022873e+03,7.722820e+02
3.025766e+03,7.639037e+02
3.028659e+03,7.733126e+02
3.031552e+03,7.559634e+02
3.034444e+03,7.746855e+02
3.037337e+03,7.578262e+02
3.040229e+03,7.475829e+02
3.043122e+03,7.855432e+02
3.046015e+03,7.481319e+02
3.048907e+03,7.677217e+02
3.051800e+03,7.454838e+02
3.054693e+03,7.544124e+02
3.057586e+03,7.876161e+02
3.060478e+03,7.544091e+02
3.063371e+03,7.780309e+02
3.066264e+03,7.619127e+02
3.069156e+03,7.673497e+02
3.072049e+03,7.700707e+02
3.074942e+03,7.315188e+02
3.077835e+03,7.560929e+02
3.080727e+03,7.739177e+02
3.083620e+03,7.584886e+02
3.086513e+03,7.841133e+02
3.089406e+03,7.580307e+02
3.092298e+03,7.351786e+02
3.095191e+03,7.671849e+02
3.098083e+03,7.450903e+02
3.100976e+03,7.523092e+02
3.103869e+03,7.593681e+02
3.106761e+03,7.272037e+02
3.109654e+03,7.449655e+02
3.112547e+03,7.563088e+02
3.115440e+03,7.676251e+02
3.118332e+03,7.374673e+02
3.121225e+03,7.979369e+02
3.124118e+03,7.371988e+02
3.127010e+03,7.636097e+02
3.129903e+03,7.360204e+02
3.132796e+03,7.871293e+02
3.135689e+03,7.510751e+02
3.138581e+03,7.706232e+02
3.141474e+03,7.540639e+02
3.144367e+03,7.362459e+02
3.147260e+03,7.530324e+02
3.150152e+03,7.611389e+02
3.153045e+03,7.446727e+02
3.155938e+03,7.262000e+02
3.158830e+03,7.146683e+02
3.161723e+03,7.825099e+02
3.164615e+03,7.641021e+02
3.167508e+03,7.486589e+02
3.170401e+03,7.280118e+02
3.173294e+03,7.575076e+02
3.176186e+03,7.520120e+02
3.179079e+03,7.897273e+02
3.181972e+03,7.554374e+02
3.184865e+03,7.755178e+02
3.187757e+03,8.067346e+02
3.190650e+03,7.764418e+02
3.193543e+03,7.833961e+02
3.196435e+03,7.618567e+02
3.199328e+03,7.689995e+02
3.200292e+03,7.844591e+02