File: RAMAN_data/06022023_r1/blue fibre1.CSV
1.995979e+02,7.218718e+03
2.024906e+02,7.242918e+03
2.053833e+02,7.319467e+03
2.082760e+02,7.349267e+03
2.111687e+02,7.370780e+03
2.140614e+02,7.377124e+03
2.169541e+02,7.367157e+03
2.198468e+02,7.374728e+03
2.227395e+02,7.371892e+03
2.256322e+02,7.425634e+03
2.285249e+02,7.385882e+03
2.314176e+02,7.426317e+03
2.343103e+02,7.429573e+03
2.372030e+02,7.467081e+03
2.400957e+02,7.482931e+03
2.429884e+02,7.496657e+03
2.458811e+02,7.516959e+03
2.487738e+02,7.525820e+03
2.516665e+02,7.560482e+03
2.545592e+02,7.584398e+03
2.574519e+02,7.590064e+03
2.603446e+02,7.610371e+03
2.632373e+02,7.640528e+03
2.661300e+02,7.658795e+03
2.690227e+02,7.681166e+03
2.719154e+02,7.696116e+03
2.748081e+02,7.716401e+03
2.777008e+02,7.749032e+03
2.805935e+02,7.753791e+03
2.834862e+02,7.772242e+03
2.863789e+02,7.814166e+03
2.892716e+02,7.787256e+03
2.921643e+02,7.817415e+03
2.950570e+02,7.827441e+03
2.979497e+02,7.837732e+03
3.008424e+02,7.857423e+03
3.037351e+02,7.872562e+03
3.066278e+02,7.867385e+03
3.095205e+02,7.883164e+03
3.124132e+02,7.898471e+03
3.153059e+02,7.915136e+03
3.181986e+02,7.915289e+03
3.210913e+02,7.946416e+03
3.239840e+02,7.964432e+03
3.268767e+02,8.004913e+03
3.297694e+02,8.019600e+03
3.326621e+02,8.002929e+03
3.355548e+02,8.032722e+03
3.384475e+02,8.041832e+03
3.413402e+02,8.082645e+03
3.442329e+02,8.095989e+03
3.471256e+02,8.083208e+03
3.500183e+02,8.091511e+03
3.529110e+02,8.108419e+03
3.558037e+02,8.117614e+03
3.586964e+02,8.131222e+03
3.615891e+02,8.160886e+03
3.644818e+02,8.162225e+03
3.673745e+02,8.158957e+03
3.702672e+02,8.200379e+03
3.731599e+02,8.240745e+03
3.760526e+02,8.243165e+03
3.789453e+02,8.260400e+03
3.818380e+02,8.231986e+03
3.847307e+02,8.205141e+03
3.876234e+02,8.216228e+03
3.905161e+02,8.242610e+03
3.934088e+02,8.240891e+03
3.963015e+02,8.232668e+03
3.991942e+02,8.261669e+03
4.020869e+02,8.301832e+03
4.049796e+02,8.294288e+03
4.078723e+02,8.295025e+03
4.107650e+02,8.280486e+03
4.136577e+02,8.277487e+03
4.165504e+02,8.309197e+03
4.194431e+02,8.342590e+03
4.223358e+02,8.301660e+03
4.252285e+02,8.289108e+03
4.281212e+02,8.347825e+03
4.310139e+02,8.357039e+03
4.339066e+02,8.324076e+03
4.367993e+02,8.375616e+03
4.396920e+02,8.364597e+03
4.425847e+02,8.353384e+03
4.454774e+02,8.349770e+03
4.483701e+02,8.392324e+03
4.512628e+02,8.385656e+03
4.541555e+02,8.412633e+03
4.570482e+02,8.394683e+03
4.599409e+02,8.399771e+03
4.628336e+02,8.391314e+03
4.657263e+02,8.411875e+03
4.686190e+02,8.444372e+03
4.715117e+02,8.471127e+03
4.744044e+02,8.502297e+03
4.772971e+02,8.476709e+03
4.801898e+02,8.460407e+03
4.830825e+02,8.474293e+03
4.859752e+02,8.463052e+03
4.888679e+02,8.490065e+03
4.917606e+02,8.473142e+03
4.946533e+02,8.458549e+03
4.975460e+02,8.467144e+03
5.004387e+02,8.481993e+03
5.033314e+02,8.480302e+03
5.062241e+02,8.468603e+03
5.091168e+02,8.434315e+03
5.120095e+02,8.432135e+03
5.149022e+02,8.487018e+03
5.177949e+02,8.490909e+03
5.206876e+02,8.459553e+03
5.235803e+02,8.432717e+03
5.264730e+02,8.451622e+03
5.293657e+02,8.453730e+03
5.322584e+02,8.450807e+03
5.351511e+02,8.437730e+03
5.380438e+02,8.449682e+03
5.409365e+02,8.452821e+03
5.438292e+02,8.488664e+03
5.467219e+02,8.490659e+03
5.496146e+02,8.474448e+03
5.525073e+02,8.436890e+03
5.554000e+02,8.428044e+03
5.582927e+02,8.457171e+03
5.611854e+02,8.484286e+03
5.640781e+02,8.477471e+03
5.669708e+02,8.448061e+03
5.698635e+02,8.449635e+03
5.727562e+02,8.434729e+03
5.756489e+02,8.488663e+03
5.785416e+02,8.495820e+03
5.814343e+02,8.471966e+03
5.843270e+02,8.470002e+03
5.872197e+02,8.463623e+03
5.901124e+02,8.455610e+03
5.930051e+02,8.467917e+03
5.958978e+02,8.471884e+03
5.987905e+02,8.432171e+03
6.016832e+02,8.440151e+03
6.045759e+02,8.450174e+03
6.074686e+02,8.488786e+03
6.103613e+02,8.490726e+03
6.132540e+02,8.467645e+03
6.161467e+02,8.455071e+03
6.190394e+02,8.458240e+03
6.219321e+02,8.466755e+03
6.248248e+02,8.450159e+03
6.277175e+02,8.441504e+03
6.306102e+02,8.403407e+03
6.335029e+02,8.435319e+03
6.363956e+02,8.420858e+03
6.392883e+02,8.393157e+03
6.421810e+02,8.407363e+03
6.450737e+02,8.387394e+03
6.479664e+02,8.388077e+03
6.508591e+02,8.413624e+03
6.537518e+02,8.377852e+03
6.566445e+02,8.396054e+03
6.595372e+02,8.397965e+03
6.624299e+02,8.375785e+03
6.653226e+02,8.372048e+03
6.682153e+02,8.389333e+03
6.711080e+02,8.377709e+03
6.740007e+02,8.362006e+03
6.768934e+02,8.347899e+03
6.797861e+02,8.337729e+03
6.826788e+02,8.358270e+03
6.855715e+02,8.345674e+03
6.884642e+02,8.296122e+03
6.913569e+02,8.288188e+03
6.942496e+02,8.290303e+03
6.971423e+02,8.277765e+03
7.000350e+02,8.275710e+03
7.029277e+02,8.273534e+03
7.058204e+02,8.250439e+03
7.087131e+02,8.241946e+03
7.116058e+02,8.251232e+03
7.144985e+02,8.240431e+03
7.173912e+02,8.249408e+03
7.202839e+02,8.231101e+03
7.231766e+02,8.210331e+03
7.260693e+02,8.217373e+03
7.289620e+02,8.179407e+03
7.318547e+02,8.160421e+03
7.347474e+02,8.157057e+03
7.376401e+02,8.155868e+03
7.405328e+02,8.158100e+03
7.434255e+02,8.124996e+03
7.463182e+02,8.130065e+03
7.492109e+02,8.146656e+03
7.521036e+02,8.126857e+03
7.549963e+02,8.127552e+03
7.578890e+02,8.128685e+03
7.607817e+02,8.126696e+03
7.636744e+02,8.100891e+03
7.665671e+02,8.090418e+03
7.694598e+02,8.086600e+03
7.723525e+02,8.079162e+03
7.752452e+02,8.059560e+03
7.781379e+02,8.082803e+03
7.810306e+02,8.051473e+03
7.839233e+02,8.027774e+03
7.868160e+02,8.030475e+03
7.897087e+02,8.022284e+03
7.926014e+02,8.021177e+03
7.954941e+02,8.042656e+03
7.983868e+02,8.041630e+03
8.012795e+02,8.066161e+03
8.041722e+02,8.036765e+03
8.070649e+02,8.026008e+03
8.099576e+02,7.984604e+03
8.128503e+02,7.955799e+03
8.157430e+02,7.962873e+03
8.186357e+02,7.925583e+03
8.215284e+02,7.926015e+03
8.244211e+02,7.901028e+03
8.273138e+02,7.896576e+03
8.302065e+02,7.903539e+03
8.330992e+02,7.885406e+03
8.359919e+02,7.905261e+03
8.388846e+02,7.893856e+03
8.417773e+02,7.859456e+03
8.446700e+02,7.866359e+03
8.475627e+02,7.869567e+03
8.504554e+02,7.850430e+03
8.533481e+02,7.838961e+03
8.562408e+02,7.837493e+03
8.591335e+02,7.801751e+03
8.620262e+02,7.782983e+03
8.649189e+02,7.777769e+03
8.678116e+02,7.777865e+03
8.707043e+02,7.802375e+03
8.735970e+02,7.782508e+03
8.764897e+02,7.757075e+03
8.793824e+02,7.781984e+03
8.822751e+02,7.754282e+03
8.851678e+02,7.754553e+03
8.880605e+02,7.726212e+03
8.909532e+02,7.712608e+03
8.938459e+02,7.734419e+03
8.967386e+02,7.699555e+03
8.996313e+02,7.695821e+03
9.025240e+02,7.678573e+03
9.054167e+02,7.691490e+03
9.083094e+02,7.657953e+03
9.112021e+02,7.648008e+03
9.140948e+02,7.636108e+03
9.169875e+02,7.646561e+03
9.198802e+02,7.583243e+03
9.227729e+02,7.580018e+03
9.256656e+02,7.588598e+03
9.285583e+02,7.570604e+03
9.314510e+02,7.595115e+03
9.343438e+02,7.555490e+03
9.372365e+02,7.576375e+03
9.401292e+02,7.523938e+03
9.430219e+02,7.534146e+03
9.459146e+02,7.529468e+03
9.488073e+02,7.543410e+03
9.517000e+02,7.525017e+03
9.545927e+02,7.528968e+03
9.574854e+02,7.483532e+03
9.603781e+02,7.492237e+03
9.632708e+02,7.497284e+03
9.661635e+02,7.500851e+03
9.690562e+02,7.480537e+03
9.719489e+02,7.448963e+03
9.748416e+02,7.443881e+03
9.777343e+02,7.457063e+03
9.806270e+02,7.439449e+03
9.835197e+02,7.390950e+03
9.864124e+02,7.404812e+03
9.893051e+02,7.406414e+03
9.921978e+02,7.438832e+03
9.950905e+02,7.432773e+03
9.979832e+02,7.443672e+03
1.000876e+03,7.419884e+03
1.003769e+03,7.356058e+03
1.006661e+03,7.372585e+03
1.009554e+03,7.369451e+03
1.012447e+03,7.363850e+03
1.015339e+03,7.350308e+03
1.018232e+03,7.344224e+03
1.021125e+03,7.351466e+03
1.024017e+03,7.331834e+03
1.026910e+03,7.337935e+03
1.029803e+03,7.336133e+03
1.032696e+03,7.308313e+03
1.035588e+03,7.319670e+03
1.038481e+03,7.335663e+03
1.041374e+03,7.322397e+03
1.044266e+03,7.282527e+03
1.047159e+03,7.298945e+03
1.050052e+03,7.269875e+03
1.052944e+03,7.280436e+03
1.055837e+03,7.278746e+03
1.058730e+03,7.266117e+03
1.061623e+03,7.283154e+03
1.064515e+03,7.235865e+03
1.067408e+03,7.220842e+03
1.070301e+03,7.260266e+03
1.073193e+03,7.227655e+03
1.076086e+03,7.210261e+03
1.078979e+03,7.208164e+03
1.081871e+03,7.223389e+03
1.084764e+03,7.231170e+03
1.087657e+03,7.232710e+03
1.090550e+03,7.231669e+03
1.093442e+03,7.183040e+03
1.096335e+03,7.191311e+03
1.099228e+03,7.193132e+03
1.102120e+03,7.191850e+03
1.105013e+03,7.148950e+03
1.107906e+03,7.167708e+03
1.110798e+03,7.149858e+03
1.113691e+03,7.173045e+03
1.116584e+03,7.162159e+03
1.119477e+03,7.189084e+03
1.122369e+03,7.176565e+03
1.125262e+03,7.146524e+03
1.128155e+03,7.131839e+03
1.131047e+03,7.148547e+03
1.133940e+03,7.145337e+03
1.136833e+03,7.136250e+03
1.139725e+03,7.130550e+03
1.142618e+03,7.140417e+03
1.145511e+03,7.133166e+03
1.148404e+03,7.156025e+03
1.151296e+03,7.182009e+03
1.154189e+03,7.185875e+03
1.157082e+03,7.165768e+03
1.159974e+03,7.180654e+03
1.162867e+03,7.137595e+03
1.165760e+03,7.120213e+03
1.168652e+03,7.093960e+03
1.171545e+03,7.085151e+03
1.174438e+03,7.075142e+03
1.177331e+03,7.124878e+03
1.180223e+03,7.124668e+03
1.183116e+03,7.099891e+03
1.186009e+03,7.064147e+03
1.188901e+03,7.051201e+03
1.191794e+03,7.053818e+03
1.194687e+03,7.048318e+03
1.197579e+03,7.068430e+03
1.200472e+03,7.041949e+03
1.203365e+03,7.016124e+03
1.206258e+03,7.015411e+03
1.209150e+03,7.056827e+03
1.212043e+03,7.057882e+03
1.214936e+03,7.023257e+03
1.217828e+03,7.014081e+03
1.220721e+03,7.023870e+03
1.223614e+03,7.031489e+03
1.226506e+03,7.047497e+03
1.229399e+03,7.018616e+03
1.232292e+03,7.014821e+03
1.235185e+03,6.994366e+03
1.238077e+03,7.037373e+03
1.240970e+03,7.023053e+03
1.243863e+03,7.027424e+03
1.246755e+03,7.041914e+03
1.249648e+03,7.014349e+03
1.252541e+03,7.004298e+03
1.255433e+03,7.013803e+03
1.258326e+03,7.021858e+03
1.261219e+03,7.013994e+03
1.264112e+03,6.998270e+03
1.267004e+03,7.015169e+03
1.269897e+03,7.044815e+03
1.272790e+03,7.095068e+03
1.275682e+03,7.087381e+03
1.278575e+03,7.109095e+03
1.281468e+03,7.097452e+03
1.284360e+03,7.115287e+03
1.287253e+03,7.105649e+03
1.290146e+03,7.088007e+03
1.293039e+03,7.083563e+03
1.295931e+03,7.071902e+03
1.298824e+03,7.069865e+03
1.301717e+03,7.055354e+03
1.304609e+03,7.046721e+03
1.307502e+03,7.035314e+03
1.310395e+03,7.028439e+03
1.313287e+03,7.015950e+03
1.316180e+03,7.085334e+03
1.319073e+03,7.140690e+03
1.321966e+03,7.162900e+03
1.324858e+03,7.183968e+03
1.327751e+03,7.129942e+03
1.330644e+03,7.101342e+03
1.333536e+03,7.124693e+03
1.336429e+03,7.110409e+03
1.339322e+03,7.085798e+03
1.342214e+03,7.076490e+03
1.345107e+03,7.115764e+03
1.348000e+03,7.184185e+03
1.350893e+03,7.225911e+03
1.353785e+03,7.255362e+03
1.356678e+03,7.222339e+03
1.359571e+03,7.169451e+03
1.362463e+03,7.167620e+03
1.365356e+03,7.136980e+03
1.368249e+03,7.182432e+03
1.371141e+03,7.171346e+03
1.374034e+03,7.205573e+03
1.376927e+03,7.272667e+03
1.379820e+03,7.294401e+03
1.382712e+03,7.272568e+03
1.385605e+03,7.205501e+03
1.388498e+03,7.117958e+03
1.391390e+03,7.050618e+03
1.394283e+03,7.061354e+03
1.397176e+03,7.036684e+03
1.400068e+03,7.037180e+03
1.402961e+03,7.008792e+03
1.405854e+03,6.994899e+03
1.408747e+03,7.006834e+03
1.411639e+03,7.017996e+03
1.414532e+03,7.023646e+03
1.417425e+03,7.028210e+03
1.420317e+03,7.018338e+03
1.423210e+03,6.989429e+03
1.426103e+03,6.988466e+03
1.428995e+03,7.027398e+03
1.431888e+03,6.988192e+03
1.434781e+03,6.972934e+03
1.437674e+03,6.981688e+03
1.440566e+03,6.975580e+03
1.443459e+03,6.994479e+03
1.446352e+03,7.015656e+03
1.449244e+03,7.005427e+03
1.452137e+03,6.958655e+03
1.455030e+03,6.989131e+03
1.457922e+03,6.992526e+03
1.460815e+03,7.027137e+03
1.463708e+03,7.018711e+03
1.466601e+03,6.994835e+03
1.469493e+03,7.020154e+03
1.472386e+03,7.027411e+03
1.475279e+03,7.026845e+03
1.478171e+03,7.029384e+03
1.481064e+03,7.006084e+03
1.483957e+03,6.970063e+03
1.486849e+03,6.984775e+03
1.489742e+03,6.997892e+03
1.492635e+03,6.989313e+03
1.495528e+03,6.996046e+03
1.498420e+03,6.958180e+03
1.501313e+03,6.981772e+03
1.504206e+03,7.000989e+03
1.507098e+03,6.997171e+03
1.509991e+03,6.991858e+03
1.512884e+03,6.972954e+03
1.515776e+03,6.934914e+03
1.518669e+03,6.983694e+03
1.521562e+03,6.983501e+03
1.524455e+03,6.974821e+03
1.527347e+03,6.963958e+03
1.530240e+03,6.933750e+03
1.533133e+03,6.953051e+03
1.536025e+03,6.950344e+03
1.538918e+03,6.988784e+03
1.541811e+03,6.985680e+03
1.544703e+03,6.965235e+03
1.547596e+03,6.990682e+03
1.550489e+03,7.038634e+03
1.553382e+03,7.017081e+03
1.556274e+03,6.993868e+03
1.559167e+03,6.960925e+03
1.562060e+03,6.961706e+03
1.564952e+03,6.959563e+03
1.567845e+03,6.961906e+03
1.570738e+03,6.958120e+03
1.573630e+03,6.953665e+03
1.576523e+03,6.929265e+03
1.579416e+03,6.925942e+03
1.582309e+03,6.956130e+03
1.585201e+03,6.938418e+03
1.588094e+03,6.922812e+03
1.590987e+03,6.941069e+03
1.593879e+03,6.969221e+03
1.596772e+03,6.960648e+03
1.599665e+03,6.971913e+03
1.602557e+03,6.945000e+03
1.605450e+03,6.939994e+03
1.608343e+03,6.932525e+03
1.611236e+03,6.925869e+03
1.614128e+03,6.948264e+03
1.617021e+03,6.951835e+03
1.619914e+03,6.935853e+03
1.622806e+03,6.918859e+03
1.625699e+03,6.937161e+03
1.628592e+03,6.903798e+03
1.631484e+03,6.904127e+03
1.634377e+03,6.890635e+03
1.637270e+03,6.887686e+03
1.640163e+03,6.843646e+03
1.643055e+03,6.878251e+03
1.645948e+03,6.889841e+03
1.648841e+03,6.871128e+03
1.651733e+03,6.844280e+03
1.654626e+03,6.854002e+03
1.657519e+03,6.851102e+03
1.660411e+03,6.854541e+03
1.663304e+03,6.866187e+03
1.666197e+03,6.871583e+03
1.669090e+03,6.839383e+03
1.671982e+03,6.828075e+03
1.674875e+03,6.855646e+03
1.677768e+03,6.843948e+03
1.680660e+03,6.827091e+03
1.683553e+03,6.801584e+03
1.686446e+03,6.793874e+03
1.689339e+03,6.829195e+03
1.692231e+03,6.804518e+03
1.695124e+03,6.816626e+03
1.698017e+03,6.802260e+03
1.700909e+03,6.791336e+03
1.703802e+03,6.826397e+03
1.706695e+03,6.795964e+03
1.709587e+03,6.791796e+03
1.712480e+03,6.792323e+03
1.715373e+03,6.745333e+03
1.718266e+03,6.758273e+03
1.721158e+03,6.773485e+03
1.724051e+03,6.773210e+03
1.726944e+03,6.745548e+03
1.729836e+03,6.726173e+03
1.732729e+03,6.744547e+03
1.735622e+03,6.706867e+03
1.738514e+03,6.729198e+03
1.741407e+03,6.735824e+03
1.744300e+03,6.731210e+03
1.747193e+03,6.696006e+03
1.750085e+03,6.684563e+03
1.752978e+03,6.684132e+03
1.755871e+03,6.689597e+03
1.758763e+03,6.701366e+03
1.761656e+03,6.654480e+03
1.764549e+03,6.661379e+03
1.767441e+03,6.652191e+03
1.770334e+03,6.626699e+03
1.773227e+03,6.646071e+03
1.776120e+03,6.633443e+03
1.779012e+03,6.644003e+03
1.781905e+03,6.635716e+03
1.784798e+03,6.628803e+03
1.787690e+03,6.609117e+03
1.790583e+03,6.597113e+03
1.793476e+03,6.550996e+03
1.796368e+03,6.586850e+03
1.799261e+03,6.608717e+03
1.802154e+03,6.593591e+03
1.805047e+03,6.548489e+03
1.807939e+03,6.583308e+03
1.810832e+03,6.567604e+03
1.813725e+03,6.550387e+03
1.816617e+03,6.538329e+03
1.819510e+03,6.540037e+03
1.822403e+03,6.513483e+03
1.825295e+03,6.522157e+03
1.828188e+03,6.503003e+03
1.831081e+03,6.491534e+03
1.833974e+03,6.493720e+03
1.836866e+03,6.489510e+03
1.839759e+03,6.450453e+03
1.842652e+03,6.480732e+03
1.845544e+03,6.447774e+03
1.848437e+03,6.443287e+03
1.851330e+03,6.443916e+03
1.854222e+03,6.419199e+03
1.857115e+03,6.398988e+03
1.860008e+03,6.403861e+03
1.862901e+03,6.419634e+03
1.865793e+03,6.362732e+03
1.868686e+03,6.370815e+03
1.871579e+03,6.365709e+03
1.874471e+03,6.341038e+03
1.877364e+03,6.364114e+03
1.880257e+03,6.359753e+03
1.883149e+03,6.307877e+03
1.886042e+03,6.312016e+03
1.888935e+03,6.309594e+03
1.891828e+03,6.310252e+03
1.894720e+03,6.320154e+03
1.897613e+03,6.276680e+03
1.900506e+03,6.296255e+03
1.903398e+03,6.250633e+03
1.906291e+03,6.248505e+03
1.909184e+03,6.262296e+03
1.912076e+03,6.197627e+03
1.914969e+03,6.219303e+03
1.917862e+03,6.197472e+03
1.920755e+03,6.191413e+03
1.923647e+03,6.185748e+03
1.926540e+03,6.217303e+03
1.929433e+03,6.165509e+03
1.932325e+03,6.114894e+03
1.935218e+03,6.145904e+03
1.938111e+03,6.147194e+03
1.941003e+03,6.129603e+03
1.943896e+03,6.121445e+03
1.946789e+03,6.110785e+03
1.949682e+03,6.094760e+03
1.952574e+03,6.090234e+03
1.955467e+03,6.090294e+03
1.958360e+03,6.065900e+03
1.961252e+03,6.081177e+03
1.964145e+03,6.032370e+03
1.967038e+03,6.073193e+03
1.969930e+03,6.054929e+03
1.972823e+03,6.047091e+03
1.975716e+03,6.035587e+03
1.978609e+03,5.994317e+03
1.981501e+03,6.007258e+03
1.984394e+03,5.976228e+03
1.987287e+03,5.995313e+03
1.990179e+03,5.942771e+03
1.993072e+03,5.947805e+03
1.995965e+03,5.941768e+03
1.998857e+03,5.918687e+03
2.001750e+03,5.917673e+03
2.004643e+03,5.898582e+03
2.007536e+03,5.900765e+03
2.010428e+03,5.882643e+03
2.013321e+03,5.856037e+03
2.016214e+03,5.851022e+03
2.019106e+03,5.800639e+03
2.021999e+03,5.826921e+03
2.024892e+03,5.828763e+03
2.027784e+03,5.813830e+03
2.030677e+03,5.793325e+03
2.033570e+03,5.805126e+03
2.036463e+03,5.801752e+03
2.039355e+03,5.748151e+03
2.042248e+03,5.735084e+03
2.045141e+03,5.736383e+03
2.048033e+03,5.735401e+03
2.050926e+03,5.721734e+03
2.053819e+03,5.711155e+03
2.056711e+03,5.670519e+03
2.059604e+03,5.677526e+03
2.062497e+03,5.644621e+03
2.065390e+03,5.667018e+03
2.068282e+03,5.629789e+03
2.071175e+03,5.603812e+03
2.074068e+03,5.583704e+03
2.076960e+03,5.621274e+03
2.079853e+03,5.606438e+03
2.082746e+03,5.631744e+03
2.085638e+03,5.577154e+03
2.088531e+03,5.585054e+03
2.091424e+03,5.555061e+03
2.094316e+03,5.531783e+03
2.097209e+03,5.579928e+03
2.100102e+03,5.500856e+03
2.102995e+03,5.491045e+03
2.105887e+03,5.507107e+03
2.108780e+03,5.513745e+03
2.111673e+03,5.459755e+03
2.114565e+03,5.425643e+03
2.117458e+03,5.405710e+03
2.120351e+03,5.436248e+03
2.123244e+03,5.424517e+03
2.126136e+03,5.412696e+03
2.129029e+03,5.379800e+03
2.131922e+03,5.417830e+03
2.134814e+03,5.396459e+03
2.137707e+03,5.368657e+03
2.140600e+03,5.360539e+03
2.143492e+03,5.325989e+03
2.146385e+03,5.343217e+03
2.149278e+03,5.295054e+03
2.152170e+03,5.315026e+03
2.155063e+03,5.284646e+03
2.157956e+03,5.265016e+03
2.160849e+03,5.273731e+03
2.163741e+03,5.272669e+03
2.166634e+03,5.237226e+03
2.169527e+03,5.249162e+03
2.172419e+03,5.250530e+03
2.175312e+03,5.236617e+03
2.178205e+03,5.179452e+03
2.181098e+03,5.153068e+03
2.183990e+03,5.177611e+03
2.186883e+03,5.164766e+03
2.189776e+03,5.149729e+03
2.192668e+03,5.123666e+03
2.195561e+03,5.118298e+03
2.198454e+03,5.107961e+03
2.201346e+03,5.122724e+03
2.204239e+03,5.129465e+03
2.207132e+03,5.086365e+03
2.210024e+03,5.037272e+03
2.212917e+03,5.005583e+03
2.215810e+03,5.035110e+03
2.218703e+03,5.055292e+03
2.221595e+03,5.016394e+03
2.224488e+03,4.988018e+03
2.227381e+03,4.995482e+03
2.230273e+03,4.981347e+03
2.233166e+03,4.983071e+03
2.236059e+03,4.932820e+03
2.238952e+03,4.951375e+03
2.241844e+03,4.912501e+03
2.244737e+03,4.867312e+03
2.247630e+03,4.917498e+03
2.250522e+03,4.891667e+03
2.253415e+03,4.926943e+03
2.256308e+03,4.851944e+03
2.259200e+03,4.805720e+03
2.262093e+03,4.836478e+03
2.264986e+03,4.838353e+03
2.267879e+03,4.814546e+03
2.270771e+03,4.786235e+03
2.273664e+03,4.775352e+03
2.276557e+03,4.798042e+03
2.279449e+03,4.768492e+03
2.282342e+03,4.755839e+03
2.285235e+03,4.747578e+03
2.288127e+03,4.708403e+03
2.291020e+03,4.725481e+03
2.293913e+03,4.689572e+03
2.296805e+03,4.732144e+03
2.299698e+03,4.693433e+03
2.302591e+03,4.682177e+03
2.305484e+03,4.641390e+03
2.308376e+03,4.644171e+03
2.311269e+03,4.654378e+03
2.314162e+03,4.665136e+03
2.317054e+03,4.619126e+03
2.319947e+03,4.632608e+03
2.322840e+03,4.605417e+03
2.325733e+03,4.609595e+03
2.328625e+03,4.621565e+03
2.331518e+03,4.581266e+03
2.334411e+03,4.548565e+03
2.337303e+03,4.529084e+03
2.340196e+03,4.540680e+03
2.343089e+03,4.541203e+03
2.345981e+03,4.587438e+03
2.348874e+03,4.544317e+03
2.351767e+03,4.508690e+03
2.354659e+03,4.493960e+03
2.357552e+03,4.519751e+03
2.360445e+03,4.484771e+03
2.363338e+03,4.486365e+03
2.366230e+03,4.446642e+03
2.369123e+03,4.449379e+03
2.372016e+03,4.434011e+03
2.374908e+03,4.461918e+03
2.377801e+03,4.437499e+03
2.380694e+03,4.395487e+03
2.383587e+03,4.390730e+03
2.386479e+03,4.426022e+03
2.389372e+03,4.391492e+03
2.392265e+03,4.366337e+03
2.395157e+03,4.360534e+03
2.398050e+03,4.324898e+03
2.400943e+03,4.325870e+03
2.403835e+03,4.319751e+03
2.406728e+03,4.359455e+03
2.409621e+03,4.315908e+03
2.412513e+03,4.317134e+03
2.415406e+03,4.316919e+03
2.418299e+03,4.296553e+03
2.421192e+03,4.272767e+03
2.424084e+03,4.283118e+03
2.426977e+03,4.266695e+03
2.429870e+03,4.254938e+03
2.432762e+03,4.228842e+03
2.435655e+03,4.235945e+03
2.438548e+03,4.217855e+03
2.441441e+03,4.217122e+03
2.444333e+03,4.215980e+03
2.447226e+03,4.206205e+03
2.450119e+03,4.187414e+03
2.453011e+03,4.208504e+03
2.455904e+03,4.226972e+03
2.458797e+03,4.149957e+03
2.461689e+03,4.153520e+03
2.464582e+03,4.140333e+03
2.467475e+03,4.151779e+03
2.470367e+03,4.124976e+03
2.473260e+03,4.092069e+03
2.476153e+03,4.119747e+03
2.479046e+03,4.120505e+03
2.481938e+03,4.121223e+03
2.484831e+03,4.101939e+03
2.487724e+03,4.094122e+03
2.490616e+03,4.079400e+03
2.493509e+03,4.073232e+03
2.496402e+03,4.056631e+03
2.499295e+03,4.075894e+03
2.502187e+03,4.069406e+03
2.505080e+03,4.049950e+03
2.507973e+03,3.997823e+03
2.510865e+03,4.029109e+03
2.513758e+03,4.017224e+03
2.516651e+03,4.004228e+03
2.519543e+03,3.982738e+03
2.522436e+03,3.973526e+03
2.525329e+03,3.959434e+03
2.528221e+03,3.991527e+03
2.531114e+03,3.982340e+03
2.534007e+03,3.953493e+03
2.536900e+03,3.932398e+03
2.539792e+03,3.922997e+03
2.542685e+03,3.937963e+03
2.545578e+03,3.956582e+03
2.548470e+03,3.919714e+03
2.551363e+03,3.940124e+03
2.554256e+03,3.907059e+03
2.557149e+03,3.871814e+03
2.560041e+03,3.918038e+03
2.562934e+03,3.924552e+03
2.565827e+03,3.899976e+03
2.568719e+03,3.867692e+03
2.571612e+03,3.870929e+03
2.574505e+03,3.860656e+03
2.577397e+03,3.844789e+03
2.580290e+03,3.847593e+03
2.583183e+03,3.844357e+03
2.586075e+03,3.778137e+03
2.588968e+03,3.859180e+03
2.591861e+03,3.828930e+03
2.594754e+03,3.814990e+03
2.597646e+03,3.791328e+03
2.600539e+03,3.800742e+03
2.603432e+03,3.780950e+03
2.606324e+03,3.752603e+03
2.609217e+03,3.808474e+03
2.612110e+03,3.759824e+03
2.615003e+03,3.770206e+03
2.617895e+03,3.718457e+03
2.620788e+03,3.728490e+03
2.623681e+03,3.753289e+03
2.626573e+03,3.730791e+03
2.629466e+03,3.722298e+03
2.632359e+03,3.687814e+03
2.635251e+03,3.722834e+03
2.638144e+03,3.722876e+03
2.641037e+03,3.695684e+03
2.643929e+03,3.690676e+03
2.646822e+03,3.708386e+03
2.649715e+03,3.707610e+03
2.652608e+03,3.680864e+03
2.655500e+03,3.676063e+03
2.658393e+03,3.667857e+03
2.661286e+03,3.640946e+03
2.664178e+03,3.639125e+03
2.667071e+03,3.649863e+03
2.669964e+03,3.641657e+03
2.672857e+03,3.663468e+03
2.675749e+03,3.620443e+03
2.678642e+03,3.624888e+03
2.681535e+03,3.652706e+03
2.684427e+03,3.618061e+03
2.687320e+03,3.604399e+03
2.690213e+03,3.590476e+03
2.693105e+03,3.581473e+03
2.695998e+03,3.580594e+03
2.698891e+03,3.605646e+03
2.701783e+03,3.566643e+03
2.704676e+03,3.560675e+03
2.707569e+03,3.557478e+03
2.710462e+03,3.543606e+03
2.713354e+03,3.584382e+03
2.716247e+03,3.524886e+03
2.719140e+03,3.540055e+03
2.722032e+03,3.527219e+03
2.724925e+03,3.544025e+03
2.727818e+03,3.527645e+03
2.730711e+03,3.516808e+03
2.733603e+03,3.519270e+03
2.736496e+03,3.519765e+03
2.739389e+03,3.519617e+03
2.742281e+03,3.503342e+03
2.745174e+03,3.471951e+03
2.748067e+03,3.512650e+03
2.750959e+03,3.482460e+03
2.753852e+03,3.516562e+03
2.756745e+03,3.485318e+03
2.759637e+03,3.471119e+03
2.762530e+03,3.427591e+03
2.765423e+03,3.441655e+03
2.768316e+03,3.470675e+03
2.771208e+03,3.478139e+03
2.774101e+03,3.448411e+03
2.776994e+03,3.405693e+03
2.779886e+03,3.397866e+03
2.782779e+03,3.401037e+03
2.785672e+03,3.394619e+03
2.788565e+03,3.383262e+03
2.791457e+03,3.394520e+03
2.794350e+03,3.383566e+03
2.797243e+03,3.366065e+03
2.800135e+03,3.391019e+03
2.803028e+03,3.338992e+03
2.805921e+03,3.349968e+03
2.808813e+03,3.355219e+03
2.811706e+03,3.337746e+03
2.814599e+03,3.361826e+03
2.817491e+03,3.345375e+03
2.820384e+03,3.365448e+03
2.823277e+03,3.330294e+03
2.826170e+03,3.349233e+03
2.829062e+03,3.327208e+03
2.831955e+03,3.330226e+03
2.834848e+03,3.290241e+03
2.837740e+03,3.303665e+03
2.840633e+03,3.353854e+03
2.843526e+03,3.310969e+03
2.846419e+03,3.318333e+03
2.849311e+03,3.328519e+03
2.852204e+03,3.295893e+03
2.855097e+03,3.259709e+03
2.857990e+03,3.302266e+03
2.860882e+03,3.274462e+03
2.863775e+03,3.266981e+03
2.866667e+03,3.276553e+03
2.869560e+03,3.320979e+03
2.872453e+03,3.258580e+03
2.875345e+03,3.249326e+03
2.878238e+03,3.266787e+03
2.881131e+03,3.274372e+03
2.884024e+03,3.244871e+03
2.886916e+03,3.276675e+03
2.889809e+03,3.233963e+03
2.892702e+03,3.277173e+03
2.895594e+03,3.244944e+03
2.898487e+03,3.216372e+03
2.901380e+03,3.189497e+03
2.904273e+03,3.262285e+03
2.907165e+03,3.217437e+03
2.910058e+03,3.229523e+03
2.912951e+03,3.168528e+03
2.915844e+03,3.192279e+03
2.918736e+03,3.225321e+03
2.921629e+03,3.190957e+03
2.924521e+03,3.166823e+03
2.927414e+03,3.174490e+03
2.930307e+03,3.197346e+03
2.933199e+03,3.112374e+03
2.936092e+03,3.165211e+03
2.938985e+03,3.169049e+03
2.941878e+03,3.077785e+03
2.944770e+03,3.164590e+03
2.947663e+03,3.164844e+03
2.950556e+03,3.173743e+03
2.953448e+03,3.142050e+03
2.956341e+03,3.128146e+03
2.959234e+03,3.185171e+03
2.962127e+03,3.134337e+03
2.965019e+03,3.114094e+03
2.967912e+03,3.106488e+03
2.970805e+03,3.130165e+03
2.973698e+03,3.092358e+03
2.976590e+03,3.114427e+03
2.979483e+03,3.040341e+03
2.982375e+03,3.047481e+03
2.985268e+03,3.071893e+03
2.988161e+03,3.069771e+03
2.991053e+03,3.056268e+03
2.993946e+03,3.044694e+03
2.996839e+03,3.071748e+03
2.999732e+03,3.029017e+03
3.002624e+03,2.978072e+03
3.005517e+03,3.007104e+03
3.008410e+03,3.011853e+03
3.011302e+03,3.032713e+03
3.014195e+03,3.034058e+03
3.017088e+03,3.003685e+03
3.019981e+03,3.013865e+03
3.022873e+03,3.045874e+03
3.025766e+03,2.990078e+03
3.028659e+03,2.973361e+03
3.031552e+03,3.007414e+03
3.034444e+03,2.977869e+03
3.037337e+03,3.015076e+03
3.040229e+03,2.973290e+03
3.043122e+03,2.998401e+03
3.046015e+03,2.967406e+03
3.048907e+03,2.951370e+03
3.051800e+03,2.975867e+03
3.054693e+03,2.956159e+03
3.057586e+03,2.984985e+03
3.060478e+03,3.012689e+03
3.063371e+03,2.924443e+03
3.066264e+03,2.926434e+03
3.069156e+03,2.960662e+03
3.072049e+03,2.987304e+03
3.074942e+03,2.960181e+03
3.077835e+03,2.879800e+03
3.080727e+03,2.962653e+03
3.083620e+03,2.965707e+03
3.086513e+03,2.932522e+03
3.089406e+03,2.949283e+03
3.092298e+03,2.930553e+03
3.095191e+03,2.914534e+03
3.098083e+03,2.929253e+03
3.100976e+03,2.917888e+03
3.103869e+03,2.961422e+03
3.106761e+03,2.879538e+03
3.109654e+03,2.863579e+03
3.112547e+03,2.924510e+03
3.115440e+03,2.890081e+03
3.118332e+03,2.907206e+03
3.121225e+03,2.963445e+03
3.124118e+03,2.931428e+03
3.127010e+03,2.864725e+03
3.129903e+03,2.844422e+03
3.132796e+03,2.918443e+03
3.135689e+03,2.832834e+03
3.138581e+03,2.920793e+03
3.141474e+03,3.234885e+03
3.144367e+03,2.862338e+03
3.147260e+03,2.871463e+03
3.150152e+03,2.945496e+03
3.153045e+03,2.915147e+03
3.155938e+03,2.873961e+03
3.158830e+03,2.830983e+03
3.161723e+03,2.848694e+03
3.164615e+03,2.834233e+03
3.167508e+03,2.868306e+03
3.170401e+03,2.842700e+03
3.173294e+03,2.882338e+03
3.176186e+03,2.879515e+03
3.179079e+03,2.733089e+03
3.181972e+03,2.842136e+03
3.184865e+03,2.831803e+03
3.187757e+03,2.879688e+03
3.190650e+03,2.789322e+03
3.193543e+03,2.795954e+03
3.196435e+03,2.846778e+03
3.199328e+03,2.890752e+03
3.200292e+03,2.885203e+03