File: RAMAN_data/06022023_r1/blue frag2.CSV
1.995979e+02,2.871514e+03
2.024906e+02,2.874466e+03
2.053833e+02,2.878012e+03
2.082760e+02,2.868780e+03
2.111687e+02,2.865009e+03
2.140614e+02,2.869847e+03
2.169541e+02,2.871301e+03
2.198468e+02,2.867259e+03
2.227395e+02,2.876927e+03
2.256322e+02,2.872732e+03
2.285249e+02,2.889094e+03
2.314176e+02,2.910699e+03
2.343103e+02,2.895383e+03
2.372030e+02,2.883259e+03
2.400957e+02,2.870453e+03
2.429884e+02,2.867227e+03
2.458811e+02,2.879543e+03
2.487738e+02,2.897701e+03
2.516665e+02,2.920137e+03
2.545592e+02,2.947343e+03
2.574519e+02,2.933266e+03
2.603446e+02,2.927420e+03
2.632373e+02,2.921820e+03
2.661300e+02,2.904945e+03
2.690227e+02,2.899517e+03
2.719154e+02,2.894941e+03
2.748081e+02,2.890377e+03
2.777008e+02,2.899169e+03
2.805935e+02,2.906401e+03
2.834862e+02,2.914106e+03
2.863789e+02,2.894920e+03
2.892716e+02,2.908307e+03
2.921643e+02,2.902198e+03
2.950570e+02,2.886351e+03
2.979497e+02,2.889558e+03
3.008424e+02,2.887584e+03
3.037351e+02,2.883819e+03
3.066278e+02,2.881337e+03
3.095205e+02,2.885722e+03
3.124132e+02,2.896553e+03
3.153059e+02,2.884164e+03
3.181986e+02,2.891473e+03
3.210913e+02,2.899854e+03
3.239840e+02,2.873930e+03
3.268767e+02,2.901120e+03
3.297694e+02,2.895114e+03
3.326621e+02,2.888106e+03
3.355548e+02,2.879557e+03
3.384475e+02,2.883704e+03
3.413402e+02,2.890636e+03
3.442329e+02,2.892454e+03
3.471256e+02,2.878398e+03
3.500183e+02,2.884210e+03
3.529110e+02,2.884090e+03
3.558037e+02,2.877474e+03
3.586964e+02,2.870087e+03
3.615891e+02,2.880539e+03
3.644818e+02,2.890001e+03
3.673745e+02,2.883495e+03
3.702672e+02,2.891827e+03
3.731599e+02,2.903816e+03
3.760526e+02,2.896126e+03
3.789453e+02,2.906411e+03
3.818380e+02,2.880376e+03
3.847307e+02,2.887573e+03
3.876234e+02,2.867059e+03
3.905161e+02,2.871812e+03
3.934088e+02,2.866411e+03
3.963015e+02,2.852717e+03
3.991942e+02,2.843490e+03
4.020869e+02,2.858712e+03
4.049796e+02,2.863527e+03
4.078723e+02,2.857825e+03
4.107650e+02,2.846951e+03
4.136577e+02,2.850702e+03
4.165504e+02,2.855636e+03
4.194431e+02,2.852454e+03
4.223358e+02,2.841878e+03
4.252285e+02,2.856605e+03
4.281212e+02,2.834025e+03
4.310139e+02,2.845742e+03
4.339066e+02,2.843931e+03
4.367993e+02,2.849430e+03
4.396920e+02,2.833456e+03
4.425847e+02,2.839362e+03
4.454774e+02,2.844364e+03
4.483701e+02,2.835485e+03
4.512628e+02,2.832788e+03
4.541555e+02,2.827837e+03
4.570482e+02,2.828219e+03
4.599409e+02,2.824353e+03
4.628336e+02,2.807139e+03
4.657263e+02,2.804148e+03
4.686190e+02,2.796636e+03
4.715117e+02,2.805167e+03
4.744044e+02,2.832670e+03
4.772971e+02,2.856053e+03
4.801898e+02,2.890844e+03
4.830825e+02,2.885101e+03
4.859752e+02,2.834460e+03
4.888679e+02,2.819970e+03
4.917606e+02,2.803049e+03
4.946533e+02,2.807249e+03
4.975460e+02,2.805540e+03
5.004387e+02,2.783545e+03
5.033314e+02,2.768794e+03
5.062241e+02,2.791121e+03
5.091168e+02,2.771411e+03
5.120095e+02,2.772083e+03
5.149022e+02,2.780265e+03
5.177949e+02,2.769865e+03
5.206876e+02,2.761736e+03
5.235803e+02,2.759101e+03
5.264730e+02,2.756053e+03
5.293657e+02,2.752029e+03
5.322584e+02,2.750378e+03
5.351511e+02,2.740757e+03
5.380438e+02,2.723516e+03
5.409365e+02,2.725925e+03
5.438292e+02,2.742056e+03
5.467219e+02,2.736051e+03
5.496146e+02,2.746416e+03
5.525073e+02,2.719386e+03
5.554000e+02,2.730309e+03
5.582927e+02,2.717723e+03
5.611854e+02,2.717692e+03
5.640781e+02,2.730784e+03
5.669708e+02,2.706793e+03
5.698635e+02,2.695792e+03
5.727562e+02,2.710868e+03
5.756489e+02,2.712058e+03
5.785416e+02,2.710100e+03
5.814343e+02,2.710279e+03
5.843270e+02,2.711042e+03
5.872197e+02,2.701074e+03
5.901124e+02,2.713262e+03
5.930051e+02,2.731219e+03
5.958978e+02,2.717828e+03
5.987905e+02,2.687335e+03
6.016832e+02,2.671557e+03
6.045759e+02,2.674624e+03
6.074686e+02,2.673459e+03
6.103613e+02,2.682577e+03
6.132540e+02,2.657158e+03
6.161467e+02,2.656053e+03
6.190394e+02,2.652421e+03
6.219321e+02,2.659513e+03
6.248248e+02,2.667949e+03
6.277175e+02,2.639416e+03
6.306102e+02,2.650733e+03
6.335029e+02,2.639573e+03
6.363956e+02,2.639410e+03
6.392883e+02,2.651849e+03
6.421810e+02,2.635961e+03
6.450737e+02,2.623119e+03
6.479664e+02,2.628236e+03
6.508591e+02,2.617450e+03
6.537518e+02,2.615719e+03
6.566445e+02,2.608797e+03
6.595372e+02,2.616210e+03
6.624299e+02,2.603996e+03
6.653226e+02,2.601558e+03
6.682153e+02,2.602305e+03
6.711080e+02,2.622213e+03
6.740007e+02,2.716058e+03
6.768934e+02,2.836661e+03
6.797861e+02,2.825114e+03
6.826788e+02,2.675499e+03
6.855715e+02,2.610133e+03
6.884642e+02,2.594286e+03
6.913569e+02,2.579313e+03
6.942496e+02,2.589227e+03
6.971423e+02,2.581882e+03
7.000350e+02,2.582632e+03
7.029277e+02,2.566862e+03
7.058204e+02,2.556208e+03
7.087131e+02,2.543167e+03
7.116058e+02,2.555199e+03
7.144985e+02,2.542391e+03
7.173912e+02,2.551554e+03
7.202839e+02,2.551513e+03
7.231766e+02,2.522960e+03
7.260693e+02,2.519463e+03
7.289620e+02,2.516006e+03
7.318547e+02,2.517574e+03
7.347474e+02,2.505601e+03
7.376401e+02,2.497009e+03
7.405328e+02,2.595114e+03
7.434255e+02,2.748236e+03
7.463182e+02,2.760865e+03
7.492109e+02,2.594000e+03
7.521036e+02,2.504544e+03
7.549963e+02,2.501726e+03
7.578890e+02,2.474955e+03
7.607817e+02,2.467404e+03
7.636744e+02,2.463913e+03
7.665671e+02,2.467830e+03
7.694598e+02,2.466057e+03
7.723525e+02,2.454519e+03
7.752452e+02,2.463485e+03
7.781379e+02,2.466937e+03
7.810306e+02,2.475661e+03
7.839233e+02,2.455597e+03
7.868160e+02,2.436831e+03
7.897087e+02,2.423379e+03
7.926014e+02,2.433163e+03
7.954941e+02,2.415696e+03
7.983868e+02,2.401428e+03
8.012795e+02,2.425258e+03
8.041722e+02,2.395730e+03
8.070649e+02,2.409977e+03
8.099576e+02,2.389426e+03
8.128503e+02,2.389294e+03
8.157430e+02,2.383792e+03
8.186357e+02,2.396722e+03
8.215284e+02,2.367690e+03
8.244211e+02,2.377874e+03
8.273138e+02,2.390552e+03
8.302065e+02,2.399145e+03
8.330992e+02,2.386209e+03
8.359919e+02,2.372732e+03
8.388846e+02,2.374151e+03
8.417773e+02,2.379704e+03
8.446700e+02,2.377367e+03
8.475627e+02,2.383854e+03
8.504554e+02,2.360819e+03
8.533481e+02,2.342190e+03
8.562408e+02,2.341976e+03
8.591335e+02,2.330788e+03
8.620262e+02,2.314185e+03
8.649189e+02,2.331058e+03
8.678116e+02,2.323630e+03
8.707043e+02,2.313483e+03
8.735970e+02,2.301693e+03
8.764897e+02,2.302060e+03
8.793824e+02,2.308555e+03
8.822751e+02,2.301074e+03
8.851678e+02,2.305381e+03
8.880605e+02,2.298337e+03
8.909532e+02,2.284234e+03
8.938459e+02,2.287825e+03
8.967386e+02,2.276320e+03
8.996313e+02,2.265294e+03
9.025240e+02,2.264679e+03
9.054167e+02,2.261693e+03
9.083094e+02,2.251333e+03
9.112021e+02,2.259515e+03
9.140948e+02,2.251276e+03
9.169875e+02,2.248353e+03
9.198802e+02,2.249530e+03
9.227729e+02,2.242527e+03
9.256656e+02,2.232484e+03
9.285583e+02,2.234663e+03
9.314510e+02,2.236928e+03
9.343438e+02,2.224854e+03
9.372365e+02,2.215424e+03
9.401292e+02,2.198017e+03
9.430219e+02,2.207656e+03
9.459146e+02,2.226870e+03
9.488073e+02,2.283835e+03
9.517000e+02,2.275675e+03
9.545927e+02,2.251419e+03
9.574854e+02,2.190948e+03
9.603781e+02,2.188797e+03
9.632708e+02,2.188088e+03
9.661635e+02,2.177947e+03
9.690562e+02,2.170112e+03
9.719489e+02,2.161453e+03
9.748416e+02,2.169005e+03
9.777343e+02,2.160814e+03
9.806270e+02,2.147000e+03
9.835197e+02,2.138551e+03
9.864124e+02,2.149208e+03
9.893051e+02,2.136824e+03
9.921978e+02,2.141014e+03
9.950905e+02,2.141332e+03
9.979832e+02,2.143000e+03
1.000876e+03,2.151780e+03
1.003769e+03,2.143488e+03
1.006661e+03,2.148308e+03
1.009554e+03,2.139226e+03
1.012447e+03,2.111323e+03
1.015339e+03,2.103461e+03
1.018232e+03,2.090771e+03
1.021125e+03,2.105385e+03
1.024017e+03,2.113556e+03
1.026910e+03,2.093553e+03
1.029803e+03,2.093929e+03
1.032696e+03,2.094288e+03
1.035588e+03,2.105543e+03
1.038481e+03,2.100070e+03
1.041374e+03,2.100241e+03
1.044266e+03,2.081275e+03
1.047159e+03,2.079946e+03
1.050052e+03,2.073313e+03
1.052944e+03,2.084468e+03
1.055837e+03,2.076808e+03
1.058730e+03,2.076938e+03
1.061623e+03,2.052575e+03
1.064515e+03,2.060654e+03
1.067408e+03,2.052471e+03
1.070301e+03,2.065085e+03
1.073193e+03,2.067596e+03
1.076086e+03,2.067381e+03
1.078979e+03,2.055921e+03
1.081871e+03,2.047503e+03
1.084764e+03,2.068268e+03
1.087657e+03,2.062024e+03
1.090550e+03,2.069615e+03
1.093442e+03,2.073175e+03
1.096335e+03,2.059638e+03
1.099228e+03,2.060159e+03
1.102120e+03,2.059005e+03
1.105013e+03,2.078125e+03
1.107906e+03,2.086716e+03
1.110798e+03,2.064735e+03
1.113691e+03,2.056420e+03
1.116584e+03,2.033872e+03
1.119477e+03,2.029366e+03
1.122369e+03,2.033095e+03
1.125262e+03,2.034376e+03
1.128155e+03,2.018740e+03
1.131047e+03,2.023587e+03
1.133940e+03,2.024783e+03
1.136833e+03,2.057390e+03
1.139725e+03,2.101328e+03
1.142618e+03,2.125054e+03
1.145511e+03,2.067306e+03
1.148404e+03,2.014262e+03
1.151296e+03,1.991120e+03
1.154189e+03,1.995404e+03
1.157082e+03,1.979986e+03
1.159974e+03,1.960126e+03
1.162867e+03,1.970201e+03
1.165760e+03,1.968659e+03
1.168652e+03,1.963779e+03
1.171545e+03,1.950047e+03
1.174438e+03,1.934417e+03
1.177331e+03,1.948709e+03
1.180223e+03,1.960244e+03
1.183116e+03,1.966716e+03
1.186009e+03,1.947976e+03
1.188901e+03,1.960437e+03
1.191794e+03,1.984949e+03
1.194687e+03,1.971158e+03
1.197579e+03,1.963230e+03
1.200472e+03,1.949273e+03
1.203365e+03,1.953840e+03
1.206258e+03,1.962663e+03
1.209150e+03,1.959587e+03
1.212043e+03,1.954707e+03
1.214936e+03,1.951558e+03
1.217828e+03,1.945458e+03
1.220721e+03,1.918631e+03
1.223614e+03,1.898912e+03
1.226506e+03,1.887650e+03
1.229399e+03,1.879365e+03
1.232292e+03,1.866020e+03
1.235185e+03,1.859621e+03
1.238077e+03,1.867473e+03
1.240970e+03,1.867602e+03
1.243863e+03,1.865088e+03
1.246755e+03,1.858437e+03
1.249648e+03,1.843936e+03
1.252541e+03,1.849072e+03
1.255433e+03,1.853568e+03
1.258326e+03,1.849697e+03
1.261219e+03,1.834236e+03
1.264112e+03,1.848688e+03
1.267004e+03,1.833587e+03
1.269897e+03,1.842855e+03
1.272790e+03,1.854430e+03
1.275682e+03,1.839055e+03
1.278575e+03,1.835734e+03
1.281468e+03,1.830802e+03
1.284360e+03,1.840251e+03
1.287253e+03,1.838639e+03
1.290146e+03,1.837602e+03
1.293039e+03,1.844120e+03
1.295931e+03,1.844798e+03
1.298824e+03,1.856595e+03
1.301717e+03,1.873081e+03
1.304609e+03,1.899943e+03
1.307502e+03,1.889407e+03
1.310395e+03,1.865703e+03
1.313287e+03,1.825544e+03
1.316180e+03,1.830630e+03
1.319073e+03,1.836643e+03
1.321966e+03,1.829021e+03
1.324858e+03,1.837394e+03
1.327751e+03,1.856498e+03
1.330644e+03,1.874201e+03
1.333536e+03,1.952752e+03
1.336429e+03,2.077879e+03
1.339322e+03,2.139033e+03
1.342214e+03,2.064327e+03
1.345107e+03,1.930250e+03
1.348000e+03,1.833152e+03
1.350893e+03,1.799639e+03
1.353785e+03,1.800028e+03
1.356678e+03,1.792730e+03
1.359571e+03,1.795922e+03
1.362463e+03,1.794763e+03
1.365356e+03,1.785001e+03
1.368249e+03,1.793909e+03
1.371141e+03,1.790198e+03
1.374034e+03,1.780883e+03
1.376927e+03,1.778392e+03
1.379820e+03,1.766604e+03
1.382712e+03,1.764963e+03
1.385605e+03,1.755234e+03
1.388498e+03,1.740652e+03
1.391390e+03,1.735707e+03
1.394283e+03,1.743953e+03
1.397176e+03,1.735312e+03
1.400068e+03,1.741515e+03
1.402961e+03,1.728953e+03
1.405854e+03,1.734738e+03
1.408747e+03,1.731870e+03
1.411639e+03,1.735797e+03
1.414532e+03,1.727117e+03
1.417425e+03,1.740708e+03
1.420317e+03,1.734277e+03
1.423210e+03,1.717611e+03
1.426103e+03,1.728831e+03
1.428995e+03,1.731646e+03
1.431888e+03,1.717224e+03
1.434781e+03,1.709127e+03
1.437674e+03,1.706635e+03
1.440566e+03,1.718559e+03
1.443459e+03,1.748093e+03
1.446352e+03,1.814123e+03
1.449244e+03,1.856433e+03
1.452137e+03,1.794510e+03
1.455030e+03,1.723107e+03
1.457922e+03,1.703010e+03
1.460815e+03,1.698029e+03
1.463708e+03,1.685262e+03
1.466601e+03,1.690805e+03
1.469493e+03,1.669533e+03
1.472386e+03,1.682859e+03
1.475279e+03,1.699255e+03
1.478171e+03,1.680816e+03
1.481064e+03,1.672381e+03
1.483957e+03,1.657504e+03
1.486849e+03,1.640994e+03
1.489742e+03,1.654940e+03
1.492635e+03,1.652937e+03
1.495528e+03,1.648607e+03
1.498420e+03,1.645050e+03
1.501313e+03,1.650106e+03
1.504206e+03,1.651002e+03
1.507098e+03,1.646544e+03
1.509991e+03,1.635641e+03
1.512884e+03,1.633923e+03
1.515776e+03,1.653499e+03
1.518669e+03,1.683319e+03
1.521562e+03,1.801693e+03
1.524455e+03,2.080726e+03
1.527347e+03,2.276198e+03
1.530240e+03,2.079132e+03
1.533133e+03,1.828771e+03
1.536025e+03,1.715873e+03
1.538918e+03,1.676608e+03
1.541811e+03,1.645857e+03
1.544703e+03,1.613031e+03
1.547596e+03,1.617055e+03
1.550489e+03,1.621722e+03
1.553382e+03,1.617436e+03
1.556274e+03,1.593189e+03
1.559167e+03,1.598304e+03
1.562060e+03,1.578140e+03
1.564952e+03,1.583552e+03
1.567845e+03,1.578958e+03
1.570738e+03,1.575372e+03
1.573630e+03,1.582582e+03
1.576523e+03,1.578185e+03
1.579416e+03,1.568301e+03
1.582309e+03,1.573366e+03
1.585201e+03,1.571554e+03
1.588094e+03,1.576879e+03
1.590987e+03,1.566410e+03
1.593879e+03,1.567684e+03
1.596772e+03,1.572572e+03
1.599665e+03,1.553041e+03
1.602557e+03,1.557598e+03
1.605450e+03,1.534046e+03
1.608343e+03,1.549079e+03
1.611236e+03,1.549918e+03
1.614128e+03,1.548262e+03
1.617021e+03,1.525661e+03
1.619914e+03,1.524961e+03
1.622806e+03,1.521029e+03
1.625699e+03,1.525985e+03
1.628592e+03,1.531316e+03
1.631484e+03,1.517164e+03
1.634377e+03,1.504393e+03
1.637270e+03,1.517704e+03
1.640163e+03,1.498476e+03
1.643055e+03,1.494234e+03
1.645948e+03,1.501564e+03
1.648841e+03,1.487721e+03
1.651733e+03,1.491673e+03
1.654626e+03,1.480891e+03
1.657519e+03,1.476341e+03
1.660411e+03,1.474625e+03
1.663304e+03,1.498216e+03
1.666197e+03,1.475566e+03
1.669090e+03,1.469483e+03
1.671982e+03,1.463930e+03
1.674875e+03,1.451651e+03
1.677768e+03,1.449905e+03
1.680660e+03,1.453674e+03
1.683553e+03,1.448651e+03
1.686446e+03,1.442744e+03
1.689339e+03,1.451554e+03
1.692231e+03,1.443023e+03
1.695124e+03,1.449108e+03
1.698017e+03,1.449756e+03
1.700909e+03,1.446713e+03
1.703802e+03,1.438447e+03
1.706695e+03,1.437396e+03
1.709587e+03,1.428831e+03
1.712480e+03,1.432318e+03
1.715373e+03,1.403916e+03
1.718266e+03,1.402792e+03
1.721158e+03,1.404506e+03
1.724051e+03,1.407589e+03
1.726944e+03,1.408910e+03
1.729836e+03,1.406838e+03
1.732729e+03,1.401398e+03
1.735622e+03,1.399884e+03
1.738514e+03,1.397568e+03
1.741407e+03,1.390903e+03
1.744300e+03,1.390500e+03
1.747193e+03,1.383635e+03
1.750085e+03,1.376321e+03
1.752978e+03,1.380892e+03
1.755871e+03,1.391860e+03
1.758763e+03,1.366276e+03
1.761656e+03,1.366733e+03
1.764549e+03,1.365292e+03
1.767441e+03,1.360223e+03
1.770334e+03,1.377263e+03
1.773227e+03,1.364677e+03
1.776120e+03,1.355593e+03
1.779012e+03,1.372746e+03
1.781905e+03,1.358845e+03
1.784798e+03,1.351029e+03
1.787690e+03,1.345104e+03
1.790583e+03,1.339062e+03
1.793476e+03,1.333457e+03
1.796368e+03,1.327422e+03
1.799261e+03,1.343636e+03
1.802154e+03,1.328260e+03
1.805047e+03,1.313654e+03
1.807939e+03,1.306729e+03
1.810832e+03,1.314866e+03
1.813725e+03,1.316719e+03
1.816617e+03,1.304351e+03
1.819510e+03,1.319423e+03
1.822403e+03,1.306177e+03
1.825295e+03,1.301610e+03
1.828188e+03,1.297135e+03
1.831081e+03,1.298751e+03
1.833974e+03,1.289870e+03
1.836866e+03,1.281359e+03
1.839759e+03,1.285659e+03
1.842652e+03,1.286240e+03
1.845544e+03,1.275818e+03
1.848437e+03,1.289005e+03
1.851330e+03,1.270625e+03
1.854222e+03,1.255899e+03
1.857115e+03,1.285635e+03
1.860008e+03,1.265031e+03
1.862901e+03,1.248705e+03
1.865793e+03,1.261158e+03
1.868686e+03,1.250471e+03
1.871579e+03,1.253760e+03
1.874471e+03,1.261280e+03
1.877364e+03,1.257953e+03
1.880257e+03,1.242584e+03
1.883149e+03,1.230236e+03
1.886042e+03,1.239522e+03
1.888935e+03,1.240738e+03
1.891828e+03,1.242391e+03
1.894720e+03,1.226930e+03
1.897613e+03,1.226104e+03
1.900506e+03,1.225998e+03
1.903398e+03,1.234809e+03
1.906291e+03,1.216716e+03
1.909184e+03,1.212073e+03
1.912076e+03,1.217245e+03
1.914969e+03,1.207150e+03
1.917862e+03,1.203431e+03
1.920755e+03,1.190604e+03
1.923647e+03,1.197461e+03
1.926540e+03,1.181163e+03
1.929433e+03,1.196785e+03
1.932325e+03,1.193887e+03
1.935218e+03,1.181381e+03
1.938111e+03,1.193172e+03
1.941003e+03,1.182181e+03
1.943896e+03,1.177596e+03
1.946789e+03,1.165913e+03
1.949682e+03,1.164860e+03
1.952574e+03,1.162613e+03
1.955467e+03,1.164934e+03
1.958360e+03,1.179237e+03
1.961252e+03,1.168539e+03
1.964145e+03,1.152583e+03
1.967038e+03,1.157552e+03
1.969930e+03,1.152506e+03
1.972823e+03,1.140376e+03
1.975716e+03,1.143121e+03
1.978609e+03,1.130121e+03
1.981501e+03,1.143303e+03
1.984394e+03,1.137216e+03
1.987287e+03,1.132844e+03
1.990179e+03,1.122814e+03
1.993072e+03,1.125354e+03
1.995965e+03,1.116242e+03
1.998857e+03,1.125864e+03
2.001750e+03,1.114699e+03
2.004643e+03,1.103421e+03
2.007536e+03,1.113600e+03
2.010428e+03,1.119188e+03
2.013321e+03,1.103977e+03
2.016214e+03,1.102968e+03
2.019106e+03,1.082435e+03
2.021999e+03,1.097047e+03
2.024892e+03,1.099405e+03
2.027784e+03,1.082403e+03
2.030677e+03,1.074356e+03
2.033570e+03,1.096590e+03
2.036463e+03,1.082699e+03
2.039355e+03,1.067429e+03
2.042248e+03,1.076178e+03
2.045141e+03,1.063258e+03
2.048033e+03,1.064713e+03
2.050926e+03,1.064852e+03
2.053819e+03,1.067945e+03
2.056711e+03,1.047048e+03
2.059604e+03,1.050968e+03
2.062497e+03,1.058204e+03
2.065390e+03,1.047839e+03
2.068282e+03,1.046380e+03
2.071175e+03,1.043057e+03
2.074068e+03,1.038098e+03
2.076960e+03,1.042648e+03
2.079853e+03,1.041259e+03
2.082746e+03,1.030133e+03
2.085638e+03,1.034448e+03
2.088531e+03,1.025224e+03
2.091424e+03,1.022577e+03
2.094316e+03,1.022318e+03
2.097209e+03,1.020435e+03
2.100102e+03,1.017995e+03
2.102995e+03,1.007729e+03
2.105887e+03,9.986815e+02
2.108780e+03,1.004238e+03
2.111673e+03,9.890833e+02
2.114565e+03,9.918401e+02
2.117458e+03,9.808917e+02
2.120351e+03,9.967917e+02
2.123244e+03,1.004315e+03
2.126136e+03,9.829517e+02
2.129029e+03,9.773378e+02
2.131922e+03,9.819615e+02
2.134814e+03,9.871642e+02
2.137707e+03,9.716059e+02
2.140600e+03,9.673127e+02
2.143492e+03,9.643877e+02
2.146385e+03,9.614090e+02
2.149278e+03,9.519368e+02
2.152170e+03,9.649228e+02
2.155063e+03,9.634802e+02
2.157956e+03,9.594434e+02
2.160849e+03,9.399967e+02
2.163741e+03,9.538492e+02
2.166634e+03,9.449081e+02
2.169527e+03,9.513275e+02
2.172419e+03,9.438699e+02
2.175312e+03,9.367003e+02
2.178205e+03,9.202989e+02
2.181098e+03,9.265209e+02
2.183990e+03,9.327630e+02
2.186883e+03,9.250507e+02
2.189776e+03,9.376561e+02
2.192668e+03,9.150057e+02
2.195561e+03,9.190977e+02
2.198454e+03,9.166653e+02
2.201346e+03,9.082029e+02
2.204239e+03,9.141531e+02
2.207132e+03,9.106266e+02
2.210024e+03,9.019047e+02
2.212917e+03,9.063154e+02
2.215810e+03,8.959114e+02
2.218703e+03,9.059269e+02
2.221595e+03,8.876971e+02
2.224488e+03,8.982423e+02
2.227381e+03,8.834440e+02
2.230273e+03,8.876273e+02
2.233166e+03,8.743821e+02
2.236059e+03,8.800798e+02
2.238952e+03,8.868892e+02
2.241844e+03,8.814943e+02
2.244737e+03,8.752370e+02
2.247630e+03,8.578083e+02
2.250522e+03,8.623312e+02
2.253415e+03,8.810599e+02
2.256308e+03,8.560196e+02
2.259200e+03,8.574699e+02
2.262093e+03,8.485115e+02
2.264986e+03,8.525753e+02
2.267879e+03,8.578575e+02
2.270771e+03,8.375344e+02
2.273664e+03,8.406726e+02
2.276557e+03,8.501279e+02
2.279449e+03,8.361555e+02
2.282342e+03,8.456954e+02
2.285235e+03,8.412625e+02
2.288127e+03,8.341575e+02
2.291020e+03,8.213542e+02
2.293913e+03,8.190787e+02
2.296805e+03,8.221082e+02
2.299698e+03,8.228115e+02
2.302591e+03,8.166136e+02
2.305484e+03,8.146347e+02
2.308376e+03,8.135145e+02
2.311269e+03,8.091425e+02
2.314162e+03,8.174185e+02
2.317054e+03,7.951432e+02
2.319947e+03,8.073782e+02
2.322840e+03,8.047463e+02
2.325733e+03,8.059055e+02
2.328625e+03,7.964601e+02
2.331518e+03,7.884906e+02
2.334411e+03,7.845384e+02
2.337303e+03,7.815807e+02
2.340196e+03,7.841619e+02
2.343089e+03,7.846168e+02
2.345981e+03,7.922485e+02
2.348874e+03,7.798262e+02
2.351767e+03,7.797017e+02
2.354659e+03,7.615921e+02
2.357552e+03,7.867538e+02
2.360445e+03,7.762116e+02
2.363338e+03,7.825305e+02
2.366230e+03,7.686685e+02
2.369123e+03,7.646754e+02
2.372016e+03,7.504333e+02
2.374908e+03,7.704108e+02
2.377801e+03,7.601710e+02
2.380694e+03,7.512260e+02
2.383587e+03,7.481063e+02
2.386479e+03,7.596262e+02
2.389372e+03,7.449665e+02
2.392265e+03,7.436512e+02
2.395157e+03,7.361390e+02
2.398050e+03,7.380314e+02
2.400943e+03,7.465588e+02
2.403835e+03,7.500597e+02
2.406728e+03,7.437322e+02
2.409621e+03,7.486054e+02
2.412513e+03,7.351287e+02
2.415406e+03,7.336926e+02
2.418299e+03,7.195023e+02
2.421192e+03,7.369492e+02
2.424084e+03,7.297958e+02
2.426977e+03,7.406251e+02
2.429870e+03,7.213865e+02
2.432762e+03,7.168991e+02
2.435655e+03,7.299973e+02
2.438548e+03,7.077012e+02
2.441441e+03,7.213541e+02
2.444333e+03,7.054674e+02
2.447226e+03,7.152982e+02
2.450119e+03,7.136934e+02
2.453011e+03,7.174238e+02
2.455904e+03,7.146546e+02
2.458797e+03,7.090936e+02
2.461689e+03,6.972342e+02
2.464582e+03,6.938888e+02
2.467475e+03,6.951829e+02
2.470367e+03,6.957477e+02
2.473260e+03,6.921212e+02
2.476153e+03,7.000363e+02
2.479046e+03,7.010239e+02
2.481938e+03,7.007649e+02
2.484831e+03,6.817663e+02
2.487724e+03,6.765826e+02
2.490616e+03,6.799520e+02
2.493509e+03,6.925240e+02
2.496402e+03,6.886257e+02
2.499295e+03,6.851996e+02
2.502187e+03,6.662178e+02
2.505080e+03,6.805134e+02
2.507973e+03,6.728426e+02
2.510865e+03,6.809774e+02
2.513758e+03,6.778680e+02
2.516651e+03,6.724685e+02
2.519543e+03,6.690616e+02
2.522436e+03,6.733748e+02
2.525329e+03,6.661727e+02
2.528221e+03,6.609462e+02
2.531114e+03,6.522833e+02
2.534007e+03,6.609211e+02
2.536900e+03,6.631517e+02
2.539792e+03,6.533821e+02
2.542685e+03,6.603645e+02
2.545578e+03,6.615167e+02
2.548470e+03,6.560648e+02
2.551363e+03,6.603220e+02
2.554256e+03,6.703679e+02
2.557149e+03,6.473942e+02
2.560041e+03,6.572473e+02
2.562934e+03,6.469125e+02
2.565827e+03,6.622455e+02
2.568719e+03,6.561176e+02
2.571612e+03,6.432317e+02
2.574505e+03,6.504755e+02
2.577397e+03,6.440557e+02
2.580290e+03,6.428640e+02
2.583183e+03,6.280781e+02
2.586075e+03,6.339122e+02
2.588968e+03,6.293835e+02
2.591861e+03,6.352146e+02
2.594754e+03,6.353511e+02
2.597646e+03,6.331976e+02
2.600539e+03,6.259241e+02
2.603432e+03,6.371728e+02
2.606324e+03,6.244911e+02
2.609217e+03,6.208699e+02
2.612110e+03,6.215349e+02
2.615003e+03,6.178772e+02
2.617895e+03,6.169351e+02
2.620788e+03,6.138930e+02
2.623681e+03,6.237035e+02
2.626573e+03,6.214399e+02
2.629466e+03,6.186191e+02
2.632359e+03,6.065793e+02
2.635251e+03,6.059934e+02
2.638144e+03,6.180569e+02
2.641037e+03,6.118027e+02
2.643929e+03,6.073127e+02
2.646822e+03,5.942735e+02
2.649715e+03,6.092410e+02
2.652608e+03,6.094781e+02
2.655500e+03,6.014800e+02
2.658393e+03,5.956594e+02
2.661286e+03,6.061658e+02
2.664178e+03,6.134131e+02
2.667071e+03,5.872076e+02
2.669964e+03,5.973953e+02
2.672857e+03,5.911417e+02
2.675749e+03,6.001607e+02
2.678642e+03,5.969684e+02
2.681535e+03,5.957093e+02
2.684427e+03,5.985533e+02
2.687320e+03,5.885989e+02
2.690213e+03,5.930889e+02
2.693105e+03,5.860914e+02
2.695998e+03,5.919366e+02
2.698891e+03,5.902209e+02
2.701783e+03,5.735268e+02
2.704676e+03,5.897041e+02
2.707569e+03,5.833295e+02
2.710462e+03,5.889037e+02
2.713354e+03,5.845460e+02
2.716247e+03,5.781984e+02
2.719140e+03,5.777236e+02
2.722032e+03,5.712665e+02
2.724925e+03,5.818822e+02
2.727818e+03,5.696568e+02
2.730711e+03,5.640421e+02
2.733603e+03,5.766047e+02
2.736496e+03,5.651852e+02
2.739389e+03,5.682109e+02
2.742281e+03,5.781808e+02
2.745174e+03,5.805928e+02
2.748067e+03,5.676925e+02
2.750959e+03,5.700739e+02
2.753852e+03,5.793869e+02
2.756745e+03,5.694205e+02
2.759637e+03,5.612563e+02
2.762530e+03,5.828087e+02
2.765423e+03,5.578805e+02
2.768316e+03,5.662642e+02
2.771208e+03,5.608984e+02
2.774101e+03,5.654683e+02
2.776994e+03,5.625440e+02
2.779886e+03,5.699905e+02
2.782779e+03,5.627914e+02
2.785672e+03,5.469357e+02
2.788565e+03,5.716104e+02
2.791457e+03,5.644579e+02
2.794350e+03,5.576482e+02
2.797243e+03,5.477115e+02
2.800135e+03,5.581426e+02
2.803028e+03,5.605506e+02
2.805921e+03,5.660110e+02
2.808813e+03,5.501135e+02
2.811706e+03,5.388414e+02
2.814599e+03,5.326966e+02
2.817491e+03,5.725246e+02
2.820384e+03,5.388911e+02
2.823277e+03,5.508916e+02
2.826170e+03,5.496180e+02
2.829062e+03,5.516145e+02
2.831955e+03,5.498210e+02
2.834848e+03,5.514768e+02
2.837740e+03,5.401877e+02
2.840633e+03,5.433929e+02
2.843526e+03,5.291501e+02
2.846419e+03,5.481432e+02
2.849311e+03,5.629223e+02
2.852204e+03,5.520634e+02
2.855097e+03,5.434178e+02
2.857990e+03,5.538842e+02
2.860882e+03,5.421673e+02
2.863775e+03,5.580231e+02
2.866667e+03,5.554018e+02
2.869560e+03,5.753723e+02
2.872453e+03,5.700486e+02
2.875345e+03,5.645090e+02
2.878238e+03,5.572280e+02
2.881131e+03,5.567805e+02
2.884024e+03,5.781077e+02
2.886916e+03,5.689258e+02
2.889809e+03,5.707753e+02
2.892702e+03,5.761549e+02
2.895594e+03,5.837451e+02
2.898487e+03,5.697893e+02
2.901380e+03,5.685790e+02
2.904273e+03,5.835347e+02
2.907165e+03,5.581417e+02
2.910058e+03,5.658795e+02
2.912951e+03,5.544069e+02
2.915844e+03,5.596754e+02
2.918736e+03,5.437862e+02
2.921629e+03,5.450082e+02
2.924521e+03,5.501116e+02
2.927414e+03,5.481057e+02
2.930307e+03,5.723581e+02
2.933199e+03,5.486760e+02
2.936092e+03,5.384025e+02
2.938985e+03,5.450248e+02
2.941878e+03,5.247708e+02
2.944770e+03,5.507351e+02
2.947663e+03,5.383120e+02
2.950556e+03,5.581125e+02
2.953448e+03,5.279709e+02
2.956341e+03,5.762144e+02
2.959234e+03,5.791771e+02
2.962127e+03,5.390841e+02
2.965019e+03,5.344081e+02
2.967912e+03,5.495192e+02
2.970805e+03,5.242356e+02
2.973698e+03,5.360575e+02
2.976590e+03,5.439410e+02
2.979483e+03,5.186879e+02
2.982375e+03,5.261912e+02
2.985268e+03,5.312519e+02
2.988161e+03,5.216852e+02
2.991053e+03,5.207851e+02
2.993946e+03,5.055207e+02
2.996839e+03,5.258613e+02
2.999732e+03,5.114852e+02
3.002624e+03,4.987116e+02
3.005517e+03,5.224235e+02
3.008410e+03,5.194493e+02
3.011302e+03,5.377841e+02
3.014195e+03,5.128675e+02
3.017088e+03,5.148090e+02
3.019981e+03,5.181825e+02
3.022873e+03,5.109510e+02
3.025766e+03,4.898649e+02
3.028659e+03,5.127253e+02
3.031552e+03,5.032434e+02
3.034444e+03,5.313969e+02
3.037337e+03,5.278701e+02
3.040229e+03,5.060889e+02
3.043122e+03,5.208641e+02
3.046015e+03,5.251719e+02
3.048907e+03,5.200578e+02
3.051800e+03,5.257712e+02
3.054693e+03,4.994159e+02
3.057586e+03,5.216644e+02
3.060478e+03,5.217855e+02
3.063371e+03,5.138012e+02
3.066264e+03,5.107013e+02
3.069156e+03,5.025300e+02
3.072049e+03,5.362921e+02
3.074942e+03,4.987711e+02
3.077835e+03,5.099231e+02
3.080727e+03,5.062519e+02
3.083620e+03,5.113378e+02
3.086513e+03,5.536984e+02
3.089406e+03,5.179528e+02
3.092298e+03,5.108188e+02
3.095191e+03,5.234692e+02
3.098083e+03,5.061441e+02
3.100976e+03,5.312896e+02
3.103869e+03,5.337411e+02
3.106761e+03,4.863457e+02
3.109654e+03,5.084533e+02
3.112547e+03,5.102308e+02
3.115440e+03,4.962896e+02
3.118332e+03,5.387452e+02
3.121225e+03,5.115742e+02
3.124118e+03,5.058093e+02
3.127010e+03,5.209802e+02
3.129903e+03,5.197303e+02
3.132796e+03,5.076124e+02
3.135689e+03,5.085218e+02
3.138581e+03,5.256124e+02
3.141474e+03,5.272484e+02
3.144367e+03,5.059289e+02
3.147260e+03,5.123302e+02
3.150152e+03,5.289328e+02
3.153045e+03,5.225584e+02
3.155938e+03,5.065370e+02
3.158830e+03,5.309700e+02
3.161723e+03,5.376643e+02
3.164615e+03,5.331682e+02
3.167508e+03,5.317724e+02
3.170401e+03,5.438673e+02
3.173294e+03,5.360656e+02
3.176186e+03,5.060395e+02
3.179079e+03,5.163724e+02
3.181972e+03,5.073255e+02
3.184865e+03,5.240068e+02
3.187757e+03,5.175092e+02
3.190650e+03,5.222113e+02
3.193543e+03,4.828258e+02
3.196435e+03,5.152376e+02
3.199328e+03,5.358815e+02
3.200292e+03,5.494586e+02