File: RAMAN_data/06022023_r1/blue frag3.CSV
1.995979e+02,9.140507e+03
2.024906e+02,9.174671e+03
2.053833e+02,9.192935e+03
2.082760e+02,9.201453e+03
2.111687e+02,9.187791e+03
2.140614e+02,9.190269e+03
2.169541e+02,9.227683e+03
2.198468e+02,9.249588e+03
2.227395e+02,9.262344e+03
2.256322e+02,9.259762e+03
2.285249e+02,9.252682e+03
2.314176e+02,9.304783e+03
2.343103e+02,9.321641e+03
2.372030e+02,9.375337e+03
2.400957e+02,9.362025e+03
2.429884e+02,9.340251e+03
2.458811e+02,9.358686e+03
2.487738e+02,9.396826e+03
2.516665e+02,9.418368e+03
2.545592e+02,9.422280e+03
2.574519e+02,9.412595e+03
2.603446e+02,9.445809e+03
2.632373e+02,9.467731e+03
2.661300e+02,9.483947e+03
2.690227e+02,9.515288e+03
2.719154e+02,9.504406e+03
2.748081e+02,9.491559e+03
2.777008e+02,9.534911e+03
2.805935e+02,9.518416e+03
2.834862e+02,9.549535e+03
2.863789e+02,9.550152e+03
2.892716e+02,9.527729e+03
2.921643e+02,9.542510e+03
2.950570e+02,9.540597e+03
2.979497e+02,9.568428e+03
3.008424e+02,9.545669e+03
3.037351e+02,9.546767e+03
3.066278e+02,9.536377e+03
3.095205e+02,9.550249e+03
3.124132e+02,9.570834e+03
3.153059e+02,9.596321e+03
3.181986e+02,9.565831e+03
3.210913e+02,9.599662e+03
3.239840e+02,9.569027e+03
3.268767e+02,9.625751e+03
3.297694e+02,9.595268e+03
3.326621e+02,9.604921e+03
3.355548e+02,9.598194e+03
3.384475e+02,9.567640e+03
3.413402e+02,9.598906e+03
3.442329e+02,9.617113e+03
3.471256e+02,9.590522e+03
3.500183e+02,9.614621e+03
3.529110e+02,9.619597e+03
3.558037e+02,9.642818e+03
3.586964e+02,9.623922e+03
3.615891e+02,9.625944e+03
3.644818e+02,9.600899e+03
3.673745e+02,9.591746e+03
3.702672e+02,9.613631e+03
3.731599e+02,9.649875e+03
3.760526e+02,9.686759e+03
3.789453e+02,9.666848e+03
3.818380e+02,9.615094e+03
3.847307e+02,9.594374e+03
3.876234e+02,9.626131e+03
3.905161e+02,9.642703e+03
3.934088e+02,9.634562e+03
3.963015e+02,9.611480e+03
3.991942e+02,9.609966e+03
4.020869e+02,9.623676e+03
4.049796e+02,9.611003e+03
4.078723e+02,9.618886e+03
4.107650e+02,9.611189e+03
4.136577e+02,9.582950e+03
4.165504e+02,9.603971e+03
4.194431e+02,9.611129e+03
4.223358e+02,9.595046e+03
4.252285e+02,9.602382e+03
4.281212e+02,9.574065e+03
4.310139e+02,9.584440e+03
4.339066e+02,9.604929e+03
4.367993e+02,9.593403e+03
4.396920e+02,9.596781e+03
4.425847e+02,9.583922e+03
4.454774e+02,9.581696e+03
4.483701e+02,9.588299e+03
4.512628e+02,9.602778e+03
4.541555e+02,9.585462e+03
4.570482e+02,9.560153e+03
4.599409e+02,9.547746e+03
4.628336e+02,9.565090e+03
4.657263e+02,9.537565e+03
4.686190e+02,9.527513e+03
4.715117e+02,9.528483e+03
4.744044e+02,9.506864e+03
4.772971e+02,9.521363e+03
4.801898e+02,9.493127e+03
4.830825e+02,9.515874e+03
4.859752e+02,9.501588e+03
4.888679e+02,9.512468e+03
4.917606e+02,9.502744e+03
4.946533e+02,9.486090e+03
4.975460e+02,9.500942e+03
5.004387e+02,9.514207e+03
5.033314e+02,9.485571e+03
5.062241e+02,9.487580e+03
5.091168e+02,9.464296e+03
5.120095e+02,9.467426e+03
5.149022e+02,9.502174e+03
5.177949e+02,9.487028e+03
5.206876e+02,9.454471e+03
5.235803e+02,9.472223e+03
5.264730e+02,9.473382e+03
5.293657e+02,9.443816e+03
5.322584e+02,9.457600e+03
5.351511e+02,9.461018e+03
5.380438e+02,9.412072e+03
5.409365e+02,9.433059e+03
5.438292e+02,9.405952e+03
5.467219e+02,9.451183e+03
5.496146e+02,9.426871e+03
5.525073e+02,9.380127e+03
5.554000e+02,9.388459e+03
5.582927e+02,9.383436e+03
5.611854e+02,9.406912e+03
5.640781e+02,9.388142e+03
5.669708e+02,9.349646e+03
5.698635e+02,9.338571e+03
5.727562e+02,9.331540e+03
5.756489e+02,9.360721e+03
5.785416e+02,9.367856e+03
5.814343e+02,9.330818e+03
5.843270e+02,9.343346e+03
5.872197e+02,9.321877e+03
5.901124e+02,9.322984e+03
5.930051e+02,9.305738e+03
5.958978e+02,9.310524e+03
5.987905e+02,9.310902e+03
6.016832e+02,9.275167e+03
6.045759e+02,9.289968e+03
6.074686e+02,9.292142e+03
6.103613e+02,9.280847e+03
6.132540e+02,9.257391e+03
6.161467e+02,9.223576e+03
6.190394e+02,9.211803e+03
6.219321e+02,9.233046e+03
6.248248e+02,9.243669e+03
6.277175e+02,9.234093e+03
6.306102e+02,9.245112e+03
6.335029e+02,9.214693e+03
6.363956e+02,9.202179e+03
6.392883e+02,9.195950e+03
6.421810e+02,9.184753e+03
6.450737e+02,9.164952e+03
6.479664e+02,9.154155e+03
6.508591e+02,9.146694e+03
6.537518e+02,9.157936e+03
6.566445e+02,9.136910e+03
6.595372e+02,9.121819e+03
6.624299e+02,9.091226e+03
6.653226e+02,9.113494e+03
6.682153e+02,9.119313e+03
6.711080e+02,9.103941e+03
6.740007e+02,9.125953e+03
6.768934e+02,9.130708e+03
6.797861e+02,9.123160e+03
6.826788e+02,9.110645e+03
6.855715e+02,9.081701e+03
6.884642e+02,9.074915e+03
6.913569e+02,9.028481e+03
6.942496e+02,8.992797e+03
6.971423e+02,9.016762e+03
7.000350e+02,9.036538e+03
7.029277e+02,8.984840e+03
7.058204e+02,8.990374e+03
7.087131e+02,8.955593e+03
7.116058e+02,8.951451e+03
7.144985e+02,8.952293e+03
7.173912e+02,8.921501e+03
7.202839e+02,8.952581e+03
7.231766e+02,8.919433e+03
7.260693e+02,8.877833e+03
7.289620e+02,8.867825e+03
7.318547e+02,8.900431e+03
7.347474e+02,8.912809e+03
7.376401e+02,8.887643e+03
7.405328e+02,8.875074e+03
7.434255e+02,8.842480e+03
7.463182e+02,8.869874e+03
7.492109e+02,8.838178e+03
7.521036e+02,8.757033e+03
7.549963e+02,8.774645e+03
7.578890e+02,8.788599e+03
7.607817e+02,8.788210e+03
7.636744e+02,8.763745e+03
7.665671e+02,8.779137e+03
7.694598e+02,8.758759e+03
7.723525e+02,8.733808e+03
7.752452e+02,8.722662e+03
7.781379e+02,8.732913e+03
7.810306e+02,8.688481e+03
7.839233e+02,8.714903e+03
7.868160e+02,8.682924e+03
7.897087e+02,8.610538e+03
7.926014e+02,8.625736e+03
7.954941e+02,8.630896e+03
7.983868e+02,8.582642e+03
8.012795e+02,8.600143e+03
8.041722e+02,8.573691e+03
8.070649e+02,8.581978e+03
8.099576e+02,8.550299e+03
8.128503e+02,8.535593e+03
8.157430e+02,8.543662e+03
8.186357e+02,8.506161e+03
8.215284e+02,8.509214e+03
8.244211e+02,8.517423e+03
8.273138e+02,8.489473e+03
8.302065e+02,8.436327e+03
8.330992e+02,8.429979e+03
8.359919e+02,8.485081e+03
8.388846e+02,8.479189e+03
8.417773e+02,8.439383e+03
8.446700e+02,8.404546e+03
8.475627e+02,8.377537e+03
8.504554e+02,8.361168e+03
8.533481e+02,8.382051e+03
8.562408e+02,8.362413e+03
8.591335e+02,8.308659e+03
8.620262e+02,8.321333e+03
8.649189e+02,8.335529e+03
8.678116e+02,8.290373e+03
8.707043e+02,8.302720e+03
8.735970e+02,8.271560e+03
8.764897e+02,8.283641e+03
8.793824e+02,8.266712e+03
8.822751e+02,8.228658e+03
8.851678e+02,8.266244e+03
8.880605e+02,8.246426e+03
8.909532e+02,8.197928e+03
8.938459e+02,8.156324e+03
8.967386e+02,8.193999e+03
8.996313e+02,8.156898e+03
9.025240e+02,8.144813e+03
9.054167e+02,8.127662e+03
9.083094e+02,8.112175e+03
9.112021e+02,8.131146e+03
9.140948e+02,8.098844e+03
9.169875e+02,8.092977e+03
9.198802e+02,8.075789e+03
9.227729e+02,8.034953e+03
9.256656e+02,8.019155e+03
9.285583e+02,8.002641e+03
9.314510e+02,7.994805e+03
9.343438e+02,7.985653e+03
9.372365e+02,7.958656e+03
9.401292e+02,7.967677e+03
9.430219e+02,7.970494e+03
9.459146e+02,7.958810e+03
9.488073e+02,7.971358e+03
9.517000e+02,7.953034e+03
9.545927e+02,7.924433e+03
9.574854e+02,7.892729e+03
9.603781e+02,7.918553e+03
9.632708e+02,7.878747e+03
9.661635e+02,7.888296e+03
9.690562e+02,7.856673e+03
9.719489e+02,7.823123e+03
9.748416e+02,7.811201e+03
9.777343e+02,7.830467e+03
9.806270e+02,7.825565e+03
9.835197e+02,7.764357e+03
9.864124e+02,7.740430e+03
9.893051e+02,7.773141e+03
9.921978e+02,7.745407e+03
9.950905e+02,7.753688e+03
9.979832e+02,7.722342e+03
1.000876e+03,7.690650e+03
1.003769e+03,7.689086e+03
1.006661e+03,7.702184e+03
1.009554e+03,7.695442e+03
1.012447e+03,7.695423e+03
1.015339e+03,7.639633e+03
1.018232e+03,7.611210e+03
1.021125e+03,7.592926e+03
1.024017e+03,7.621797e+03
1.026910e+03,7.598071e+03
1.029803e+03,7.598363e+03
1.032696e+03,7.563604e+03
1.035588e+03,7.552453e+03
1.038481e+03,7.562474e+03
1.041374e+03,7.557875e+03
1.044266e+03,7.541438e+03
1.047159e+03,7.516357e+03
1.050052e+03,7.519595e+03
1.052944e+03,7.493122e+03
1.055837e+03,7.462979e+03
1.058730e+03,7.471260e+03
1.061623e+03,7.459454e+03
1.064515e+03,7.453871e+03
1.067408e+03,7.481476e+03
1.070301e+03,7.451411e+03
1.073193e+03,7.451865e+03
1.076086e+03,7.424112e+03
1.078979e+03,7.395843e+03
1.081871e+03,7.412893e+03
1.084764e+03,7.416557e+03
1.087657e+03,7.403917e+03
1.090550e+03,7.396696e+03
1.093442e+03,7.364561e+03
1.096335e+03,7.363899e+03
1.099228e+03,7.346920e+03
1.102120e+03,7.305189e+03
1.105013e+03,7.310486e+03
1.107906e+03,7.298287e+03
1.110798e+03,7.268140e+03
1.113691e+03,7.273486e+03
1.116584e+03,7.293699e+03
1.119477e+03,7.263772e+03
1.122369e+03,7.219536e+03
1.125262e+03,7.206351e+03
1.128155e+03,7.212464e+03
1.131047e+03,7.203896e+03
1.133940e+03,7.181586e+03
1.136833e+03,7.146817e+03
1.139725e+03,7.163689e+03
1.142618e+03,7.139658e+03
1.145511e+03,7.143635e+03
1.148404e+03,7.102979e+03
1.151296e+03,7.138589e+03
1.154189e+03,7.115539e+03
1.157082e+03,7.080604e+03
1.159974e+03,7.069736e+03
1.162867e+03,7.077685e+03
1.165760e+03,7.090579e+03
1.168652e+03,7.016199e+03
1.171545e+03,7.022207e+03
1.174438e+03,6.992515e+03
1.177331e+03,7.022040e+03
1.180223e+03,7.040982e+03
1.183116e+03,7.001222e+03
1.186009e+03,6.983900e+03
1.188901e+03,6.966773e+03
1.191794e+03,6.960191e+03
1.194687e+03,6.965109e+03
1.197579e+03,6.984104e+03
1.200472e+03,6.979409e+03
1.203365e+03,6.950142e+03
1.206258e+03,6.940110e+03
1.209150e+03,6.958515e+03
1.212043e+03,6.946148e+03
1.214936e+03,6.884646e+03
1.217828e+03,6.864208e+03
1.220721e+03,6.862166e+03
1.223614e+03,6.842782e+03
1.226506e+03,6.846688e+03
1.229399e+03,6.832542e+03
1.232292e+03,6.802297e+03
1.235185e+03,6.795522e+03
1.238077e+03,6.766456e+03
1.240970e+03,6.808067e+03
1.243863e+03,6.771533e+03
1.246755e+03,6.743924e+03
1.249648e+03,6.749365e+03
1.252541e+03,6.729935e+03
1.255433e+03,6.724008e+03
1.258326e+03,6.719368e+03
1.261219e+03,6.699664e+03
1.264112e+03,6.678982e+03
1.267004e+03,6.681806e+03
1.269897e+03,6.726963e+03
1.272790e+03,6.725167e+03
1.275682e+03,6.723737e+03
1.278575e+03,6.720389e+03
1.281468e+03,6.672138e+03
1.284360e+03,6.676612e+03
1.287253e+03,6.649689e+03
1.290146e+03,6.641993e+03
1.293039e+03,6.655585e+03
1.295931e+03,6.583438e+03
1.298824e+03,6.574796e+03
1.301717e+03,6.564911e+03
1.304609e+03,6.594630e+03
1.307502e+03,6.562324e+03
1.310395e+03,6.534045e+03
1.313287e+03,6.511811e+03
1.316180e+03,6.521671e+03
1.319073e+03,6.527203e+03
1.321966e+03,6.502915e+03
1.324858e+03,6.497057e+03
1.327751e+03,6.503486e+03
1.330644e+03,6.506436e+03
1.333536e+03,6.523060e+03
1.336429e+03,6.512343e+03
1.339322e+03,6.481037e+03
1.342214e+03,6.462126e+03
1.345107e+03,6.426687e+03
1.348000e+03,6.410541e+03
1.350893e+03,6.408377e+03
1.353785e+03,6.403254e+03
1.356678e+03,6.368692e+03
1.359571e+03,6.359381e+03
1.362463e+03,6.308320e+03
1.365356e+03,6.351322e+03
1.368249e+03,6.337222e+03
1.371141e+03,6.300376e+03
1.374034e+03,6.297690e+03
1.376927e+03,6.291508e+03
1.379820e+03,6.281609e+03
1.382712e+03,6.274880e+03
1.385605e+03,6.250562e+03
1.388498e+03,6.233017e+03
1.391390e+03,6.208157e+03
1.394283e+03,6.205986e+03
1.397176e+03,6.197986e+03
1.400068e+03,6.205150e+03
1.402961e+03,6.181326e+03
1.405854e+03,6.163498e+03
1.408747e+03,6.155626e+03
1.411639e+03,6.144281e+03
1.414532e+03,6.141033e+03
1.417425e+03,6.141998e+03
1.420317e+03,6.120220e+03
1.423210e+03,6.118004e+03
1.426103e+03,6.115199e+03
1.428995e+03,6.100969e+03
1.431888e+03,6.108687e+03
1.434781e+03,6.067830e+03
1.437674e+03,6.108997e+03
1.440566e+03,6.056904e+03
1.443459e+03,6.067150e+03
1.446352e+03,6.049323e+03
1.449244e+03,6.045678e+03
1.452137e+03,6.020410e+03
1.455030e+03,6.016123e+03
1.457922e+03,6.012448e+03
1.460815e+03,6.012908e+03
1.463708e+03,5.984177e+03
1.466601e+03,5.963435e+03
1.469493e+03,5.959297e+03
1.472386e+03,5.928052e+03
1.475279e+03,5.949071e+03
1.478171e+03,5.918782e+03
1.481064e+03,5.924018e+03
1.483957e+03,5.914148e+03
1.486849e+03,5.889613e+03
1.489742e+03,5.890583e+03
1.492635e+03,5.872503e+03
1.495528e+03,5.879984e+03
1.498420e+03,5.870753e+03
1.501313e+03,5.841619e+03
1.504206e+03,5.854804e+03
1.507098e+03,5.857972e+03
1.509991e+03,5.838233e+03
1.512884e+03,5.833364e+03
1.515776e+03,5.820753e+03
1.518669e+03,5.852408e+03
1.521562e+03,5.878261e+03
1.524455e+03,5.882030e+03
1.527347e+03,5.910942e+03
1.530240e+03,5.952399e+03
1.533133e+03,5.928171e+03
1.536025e+03,5.880516e+03
1.538918e+03,5.808634e+03
1.541811e+03,5.783523e+03
1.544703e+03,5.742127e+03
1.547596e+03,5.726142e+03
1.550489e+03,5.750422e+03
1.553382e+03,5.702519e+03
1.556274e+03,5.700928e+03
1.559167e+03,5.674054e+03
1.562060e+03,5.648008e+03
1.564952e+03,5.636702e+03
1.567845e+03,5.650713e+03
1.570738e+03,5.628981e+03
1.573630e+03,5.620095e+03
1.576523e+03,5.578281e+03
1.579416e+03,5.587763e+03
1.582309e+03,5.577968e+03
1.585201e+03,5.566119e+03
1.588094e+03,5.550434e+03
1.590987e+03,5.530669e+03
1.593879e+03,5.532307e+03
1.596772e+03,5.517590e+03
1.599665e+03,5.522269e+03
1.602557e+03,5.505085e+03
1.605450e+03,5.499636e+03
1.608343e+03,5.510244e+03
1.611236e+03,5.497826e+03
1.614128e+03,5.452751e+03
1.617021e+03,5.469834e+03
1.619914e+03,5.467102e+03
1.622806e+03,5.428606e+03
1.625699e+03,5.401214e+03
1.628592e+03,5.398972e+03
1.631484e+03,5.405934e+03
1.634377e+03,5.395236e+03
1.637270e+03,5.380252e+03
1.640163e+03,5.346581e+03
1.643055e+03,5.363021e+03
1.645948e+03,5.341001e+03
1.648841e+03,5.343820e+03
1.651733e+03,5.330960e+03
1.654626e+03,5.321383e+03
1.657519e+03,5.320172e+03
1.660411e+03,5.292254e+03
1.663304e+03,5.286896e+03
1.666197e+03,5.262694e+03
1.669090e+03,5.239110e+03
1.671982e+03,5.251827e+03
1.674875e+03,5.268890e+03
1.677768e+03,5.231735e+03
1.680660e+03,5.226687e+03
1.683553e+03,5.204521e+03
1.686446e+03,5.194800e+03
1.689339e+03,5.199263e+03
1.692231e+03,5.190492e+03
1.695124e+03,5.174097e+03
1.698017e+03,5.159354e+03
1.700909e+03,5.137670e+03
1.703802e+03,5.153275e+03
1.706695e+03,5.150845e+03
1.709587e+03,5.148785e+03
1.712480e+03,5.124408e+03
1.715373e+03,5.108483e+03
1.718266e+03,5.084448e+03
1.721158e+03,5.090185e+03
1.724051e+03,5.102458e+03
1.726944e+03,5.064026e+03
1.729836e+03,5.055728e+03
1.732729e+03,5.065616e+03
1.735622e+03,5.026739e+03
1.738514e+03,5.003334e+03
1.741407e+03,5.034045e+03
1.744300e+03,5.028731e+03
1.747193e+03,4.998576e+03
1.750085e+03,5.000186e+03
1.752978e+03,4.975310e+03
1.755871e+03,4.966659e+03
1.758763e+03,4.981591e+03
1.761656e+03,4.943550e+03
1.764549e+03,4.924742e+03
1.767441e+03,4.928835e+03
1.770334e+03,4.932868e+03
1.773227e+03,4.918468e+03
1.776120e+03,4.902292e+03
1.779012e+03,4.875878e+03
1.781905e+03,4.903439e+03
1.784798e+03,4.901696e+03
1.787690e+03,4.877401e+03
1.790583e+03,4.859157e+03
1.793476e+03,4.837946e+03
1.796368e+03,4.821797e+03
1.799261e+03,4.842029e+03
1.802154e+03,4.831263e+03
1.805047e+03,4.809021e+03
1.807939e+03,4.820497e+03
1.810832e+03,4.774631e+03
1.813725e+03,4.795667e+03
1.816617e+03,4.782515e+03
1.819510e+03,4.732749e+03
1.822403e+03,4.722661e+03
1.825295e+03,4.772889e+03
1.828188e+03,4.718676e+03
1.831081e+03,4.737485e+03
1.833974e+03,4.710960e+03
1.836866e+03,4.712950e+03
1.839759e+03,4.685443e+03
1.842652e+03,4.695907e+03
1.845544e+03,4.696805e+03
1.848437e+03,4.636831e+03
1.851330e+03,4.642109e+03
1.854222e+03,4.637161e+03
1.857115e+03,4.614699e+03
1.860008e+03,4.627199e+03
1.862901e+03,4.619567e+03
1.865793e+03,4.624788e+03
1.868686e+03,4.589288e+03
1.871579e+03,4.602280e+03
1.874471e+03,4.602622e+03
1.877364e+03,4.567466e+03
1.880257e+03,4.555382e+03
1.883149e+03,4.543062e+03
1.886042e+03,4.529147e+03
1.888935e+03,4.528995e+03
1.891828e+03,4.526102e+03
1.894720e+03,4.533225e+03
1.897613e+03,4.488756e+03
1.900506e+03,4.482791e+03
1.903398e+03,4.473170e+03
1.906291e+03,4.474412e+03
1.909184e+03,4.479190e+03
1.912076e+03,4.445475e+03
1.914969e+03,4.418299e+03
1.917862e+03,4.438090e+03
1.920755e+03,4.419249e+03
1.923647e+03,4.426377e+03
1.926540e+03,4.393881e+03
1.929433e+03,4.401391e+03
1.932325e+03,4.385296e+03
1.935218e+03,4.387232e+03
1.938111e+03,4.371896e+03
1.941003e+03,4.381352e+03
1.943896e+03,4.343178e+03
1.946789e+03,4.303159e+03
1.949682e+03,4.316506e+03
1.952574e+03,4.340217e+03
1.955467e+03,4.320295e+03
1.958360e+03,4.301528e+03
1.961252e+03,4.290064e+03
1.964145e+03,4.279399e+03
1.967038e+03,4.276212e+03
1.969930e+03,4.295677e+03
1.972823e+03,4.250626e+03
1.975716e+03,4.239458e+03
1.978609e+03,4.208326e+03
1.981501e+03,4.231027e+03
1.984394e+03,4.206310e+03
1.987287e+03,4.213550e+03
1.990179e+03,4.213049e+03
1.993072e+03,4.170857e+03
1.995965e+03,4.189860e+03
1.998857e+03,4.189741e+03
2.001750e+03,4.192302e+03
2.004643e+03,4.188062e+03
2.007536e+03,4.122276e+03
2.010428e+03,4.120209e+03
2.013321e+03,4.140513e+03
2.016214e+03,4.136229e+03
2.019106e+03,4.111639e+03
2.021999e+03,4.100677e+03
2.024892e+03,4.095310e+03
2.027784e+03,4.061848e+03
2.030677e+03,4.062151e+03
2.033570e+03,4.077585e+03
2.036463e+03,4.053996e+03
2.039355e+03,4.023443e+03
2.042248e+03,4.002345e+03
2.045141e+03,4.009126e+03
2.048033e+03,3.997879e+03
2.050926e+03,3.992679e+03
2.053819e+03,3.991759e+03
2.056711e+03,3.965632e+03
2.059604e+03,3.975171e+03
2.062497e+03,3.987083e+03
2.065390e+03,3.963032e+03
2.068282e+03,3.952340e+03
2.071175e+03,3.906266e+03
2.074068e+03,3.900539e+03
2.076960e+03,3.924825e+03
2.079853e+03,3.908812e+03
2.082746e+03,3.903047e+03
2.085638e+03,3.861367e+03
2.088531e+03,3.896347e+03
2.091424e+03,3.855090e+03
2.094316e+03,3.848050e+03
2.097209e+03,3.852355e+03
2.100102e+03,3.826806e+03
2.102995e+03,3.810238e+03
2.105887e+03,3.816442e+03
2.108780e+03,3.811282e+03
2.111673e+03,3.783711e+03
2.114565e+03,3.773937e+03
2.117458e+03,3.743860e+03
2.120351e+03,3.772826e+03
2.123244e+03,3.791580e+03
2.126136e+03,3.734495e+03
2.129029e+03,3.752429e+03
2.131922e+03,3.740312e+03
2.134814e+03,3.735329e+03
2.137707e+03,3.721311e+03
2.140600e+03,3.714835e+03
2.143492e+03,3.686883e+03
2.146385e+03,3.654761e+03
2.149278e+03,3.679750e+03
2.152170e+03,3.676942e+03
2.155063e+03,3.670071e+03
2.157956e+03,3.641418e+03
2.160849e+03,3.628513e+03
2.163741e+03,3.639152e+03
2.166634e+03,3.598024e+03
2.169527e+03,3.614056e+03
2.172419e+03,3.608507e+03
2.175312e+03,3.606408e+03
2.178205e+03,3.557284e+03
2.181098e+03,3.563238e+03
2.183990e+03,3.557701e+03
2.186883e+03,3.574750e+03
2.189776e+03,3.537122e+03
2.192668e+03,3.539139e+03
2.195561e+03,3.506776e+03
2.198454e+03,3.519236e+03
2.201346e+03,3.506510e+03
2.204239e+03,3.541913e+03
2.207132e+03,3.500876e+03
2.210024e+03,3.449654e+03
2.212917e+03,3.446808e+03
2.215810e+03,3.493313e+03
2.218703e+03,3.456542e+03
2.221595e+03,3.456886e+03
2.224488e+03,3.430098e+03
2.227381e+03,3.424682e+03
2.230273e+03,3.438926e+03
2.233166e+03,3.415862e+03
2.236059e+03,3.387239e+03
2.238952e+03,3.389874e+03
2.241844e+03,3.345028e+03
2.244737e+03,3.340917e+03
2.247630e+03,3.355114e+03
2.250522e+03,3.346219e+03
2.253415e+03,3.373122e+03
2.256308e+03,3.321101e+03
2.259200e+03,3.324031e+03
2.262093e+03,3.325657e+03
2.264986e+03,3.300190e+03
2.267879e+03,3.282376e+03
2.270771e+03,3.287086e+03
2.273664e+03,3.259172e+03
2.276557e+03,3.283510e+03
2.279449e+03,3.263142e+03
2.282342e+03,3.228910e+03
2.285235e+03,3.246399e+03
2.288127e+03,3.210532e+03
2.291020e+03,3.214573e+03
2.293913e+03,3.211707e+03
2.296805e+03,3.227775e+03
2.299698e+03,3.225960e+03
2.302591e+03,3.181355e+03
2.305484e+03,3.190028e+03
2.308376e+03,3.148454e+03
2.311269e+03,3.165820e+03
2.314162e+03,3.177102e+03
2.317054e+03,3.137731e+03
2.319947e+03,3.133969e+03
2.322840e+03,3.135182e+03
2.325733e+03,3.133282e+03
2.328625e+03,3.123341e+03
2.331518e+03,3.114057e+03
2.334411e+03,3.083991e+03
2.337303e+03,3.090530e+03
2.340196e+03,3.068244e+03
2.343089e+03,3.093022e+03
2.345981e+03,3.094744e+03
2.348874e+03,3.064017e+03
2.351767e+03,3.027282e+03
2.354659e+03,3.023728e+03
2.357552e+03,3.036754e+03
2.360445e+03,3.044982e+03
2.363338e+03,3.001462e+03
2.366230e+03,2.997462e+03
2.369123e+03,3.000962e+03
2.372016e+03,2.991666e+03
2.374908e+03,2.991116e+03
2.377801e+03,3.002886e+03
2.380694e+03,2.944998e+03
2.383587e+03,2.968485e+03
2.386479e+03,2.965406e+03
2.389372e+03,2.957477e+03
2.392265e+03,2.946749e+03
2.395157e+03,2.922180e+03
2.398050e+03,2.928082e+03
2.400943e+03,2.920778e+03
2.403835e+03,2.910941e+03
2.406728e+03,2.905808e+03
2.409621e+03,2.923888e+03
2.412513e+03,2.887767e+03
2.415406e+03,2.901585e+03
2.418299e+03,2.827537e+03
2.421192e+03,2.881281e+03
2.424084e+03,2.858083e+03
2.426977e+03,2.817905e+03
2.429870e+03,2.839942e+03
2.432762e+03,2.828806e+03
2.435655e+03,2.828827e+03
2.438548e+03,2.820742e+03
2.441441e+03,2.818543e+03
2.444333e+03,2.785417e+03
2.447226e+03,2.780378e+03
2.450119e+03,2.790333e+03
2.453011e+03,2.780376e+03
2.455904e+03,2.773783e+03
2.458797e+03,2.766635e+03
2.461689e+03,2.759050e+03
2.464582e+03,2.752008e+03
2.467475e+03,2.738566e+03
2.470367e+03,2.745742e+03
2.473260e+03,2.724692e+03
2.476153e+03,2.722040e+03
2.479046e+03,2.727413e+03
2.481938e+03,2.678706e+03
2.484831e+03,2.706058e+03
2.487724e+03,2.705585e+03
2.490616e+03,2.684668e+03
2.493509e+03,2.667160e+03
2.496402e+03,2.686278e+03
2.499295e+03,2.685419e+03
2.502187e+03,2.642911e+03
2.505080e+03,2.648086e+03
2.507973e+03,2.643009e+03
2.510865e+03,2.634129e+03
2.513758e+03,2.645056e+03
2.516651e+03,2.610089e+03
2.519543e+03,2.599105e+03
2.522436e+03,2.579522e+03
2.525329e+03,2.610165e+03
2.528221e+03,2.594193e+03
2.531114e+03,2.622855e+03
2.534007e+03,2.605935e+03
2.536900e+03,2.566273e+03
2.539792e+03,2.558761e+03
2.542685e+03,2.585714e+03
2.545578e+03,2.540869e+03
2.548470e+03,2.579288e+03
2.551363e+03,2.552082e+03
2.554256e+03,2.571679e+03
2.557149e+03,2.542604e+03
2.560041e+03,2.537339e+03
2.562934e+03,2.532871e+03
2.565827e+03,2.530250e+03
2.568719e+03,2.529492e+03
2.571612e+03,2.512281e+03
2.574505e+03,2.526881e+03
2.577397e+03,2.512160e+03
2.580290e+03,2.527963e+03
2.583183e+03,2.488508e+03
2.586075e+03,2.466610e+03
2.588968e+03,2.460547e+03
2.591861e+03,2.473779e+03
2.594754e+03,2.485165e+03
2.597646e+03,2.460324e+03
2.600539e+03,2.452366e+03
2.603432e+03,2.455220e+03
2.606324e+03,2.420002e+03
2.609217e+03,2.437750e+03
2.612110e+03,2.423412e+03
2.615003e+03,2.418055e+03
2.617895e+03,2.402746e+03
2.620788e+03,2.409788e+03
2.623681e+03,2.409231e+03
2.626573e+03,2.385235e+03
2.629466e+03,2.379653e+03
2.632359e+03,2.394477e+03
2.635251e+03,2.384502e+03
2.638144e+03,2.361795e+03
2.641037e+03,2.369561e+03
2.643929e+03,2.368011e+03
2.646822e+03,2.334734e+03
2.649715e+03,2.373802e+03
2.652608e+03,2.338113e+03
2.655500e+03,2.324490e+03
2.658393e+03,2.322567e+03
2.661286e+03,2.321134e+03
2.664178e+03,2.338918e+03
2.667071e+03,2.340535e+03
2.669964e+03,2.315793e+03
2.672857e+03,2.326391e+03
2.675749e+03,2.315063e+03
2.678642e+03,2.311231e+03
2.681535e+03,2.301394e+03
2.684427e+03,2.284153e+03
2.687320e+03,2.267540e+03
2.690213e+03,2.296003e+03
2.693105e+03,2.259803e+03
2.695998e+03,2.258725e+03
2.698891e+03,2.271668e+03
2.701783e+03,2.257602e+03
2.704676e+03,2.269394e+03
2.707569e+03,2.244169e+03
2.710462e+03,2.254422e+03
2.713354e+03,2.244259e+03
2.716247e+03,2.241494e+03
2.719140e+03,2.261677e+03
2.722032e+03,2.249450e+03
2.724925e+03,2.226320e+03
2.727818e+03,2.233355e+03
2.730711e+03,2.209670e+03
2.733603e+03,2.194369e+03
2.736496e+03,2.220126e+03
2.739389e+03,2.184693e+03
2.742281e+03,2.204548e+03
2.745174e+03,2.197843e+03
2.748067e+03,2.187665e+03
2.750959e+03,2.183119e+03
2.753852e+03,2.157912e+03
2.756745e+03,2.153698e+03
2.759637e+03,2.146841e+03
2.762530e+03,2.149443e+03
2.765423e+03,2.149516e+03
2.768316e+03,2.133202e+03
2.771208e+03,2.139454e+03
2.774101e+03,2.130979e+03
2.776994e+03,2.142414e+03
2.779886e+03,2.138378e+03
2.782779e+03,2.123383e+03
2.785672e+03,2.089751e+03
2.788565e+03,2.078677e+03
2.791457e+03,2.144061e+03
2.794350e+03,2.128823e+03
2.797243e+03,2.121953e+03
2.800135e+03,2.100757e+03
2.803028e+03,2.108802e+03
2.805921e+03,2.087337e+03
2.808813e+03,2.114080e+03
2.811706e+03,2.088742e+03
2.814599e+03,2.090044e+03
2.817491e+03,2.076121e+03
2.820384e+03,2.095091e+03
2.823277e+03,2.058271e+03
2.826170e+03,2.068396e+03
2.829062e+03,2.064332e+03
2.831955e+03,2.045560e+03
2.834848e+03,2.064532e+03
2.837740e+03,2.063698e+03
2.840633e+03,2.044650e+03
2.843526e+03,2.048884e+03
2.846419e+03,2.039084e+03
2.849311e+03,2.051918e+03
2.852204e+03,2.044212e+03
2.855097e+03,2.053247e+03
2.857990e+03,2.071894e+03
2.860882e+03,2.019595e+03
2.863775e+03,2.040480e+03
2.866667e+03,2.020693e+03
2.869560e+03,2.034714e+03
2.872453e+03,1.983562e+03
2.875345e+03,2.005923e+03
2.878238e+03,2.006044e+03
2.881131e+03,2.007334e+03
2.884024e+03,2.013843e+03
2.886916e+03,1.990177e+03
2.889809e+03,2.022013e+03
2.892702e+03,2.014940e+03
2.895594e+03,1.974877e+03
2.898487e+03,2.007595e+03
2.901380e+03,2.011435e+03
2.904273e+03,1.971504e+03
2.907165e+03,1.972134e+03
2.910058e+03,1.995395e+03
2.912951e+03,1.979965e+03
2.915844e+03,1.936925e+03
2.918736e+03,1.938414e+03
2.921629e+03,1.918247e+03
2.924521e+03,1.996867e+03
2.927414e+03,1.938498e+03
2.930307e+03,1.982800e+03
2.933199e+03,1.931710e+03
2.936092e+03,1.942343e+03
2.938985e+03,1.960690e+03
2.941878e+03,1.900229e+03
2.944770e+03,1.934855e+03
2.947663e+03,1.949958e+03
2.950556e+03,1.934656e+03
2.953448e+03,1.923191e+03
2.956341e+03,1.969412e+03
2.959234e+03,1.964463e+03
2.962127e+03,1.933120e+03
2.965019e+03,1.930765e+03
2.967912e+03,1.897998e+03
2.970805e+03,1.889866e+03
2.973698e+03,1.892344e+03
2.976590e+03,1.903516e+03
2.979483e+03,1.894728e+03
2.982375e+03,1.877012e+03
2.985268e+03,1.896303e+03
2.988161e+03,1.878548e+03
2.991053e+03,1.828803e+03
2.993946e+03,1.855470e+03
2.996839e+03,1.853422e+03
2.999732e+03,1.822313e+03
3.002624e+03,1.878024e+03
3.005517e+03,1.845748e+03
3.008410e+03,1.833936e+03
3.011302e+03,1.851351e+03
3.014195e+03,1.886007e+03
3.017088e+03,1.840743e+03
3.019981e+03,1.866012e+03
3.022873e+03,1.858369e+03
3.025766e+03,1.846338e+03
3.028659e+03,1.819932e+03
3.031552e+03,1.831037e+03
3.034444e+03,1.831671e+03
3.037337e+03,1.810472e+03
3.040229e+03,1.818672e+03
3.043122e+03,1.838585e+03
3.046015e+03,1.843507e+03
3.048907e+03,1.810637e+03
3.051800e+03,1.827158e+03
3.054693e+03,1.893057e+03
3.057586e+03,1.788760e+03
3.060478e+03,1.799650e+03
3.063371e+03,1.815931e+03
3.066264e+03,1.834536e+03
3.069156e+03,1.815923e+03
3.072049e+03,1.809189e+03
3.074942e+03,1.839876e+03
3.077835e+03,1.783705e+03
3.080727e+03,1.847884e+03
3.083620e+03,1.822321e+03
3.086513e+03,1.856521e+03
3.089406e+03,1.820112e+03
3.092298e+03,1.816327e+03
3.095191e+03,1.783918e+03
3.098083e+03,1.799572e+03
3.100976e+03,1.856207e+03
3.103869e+03,1.834786e+03
3.106761e+03,1.802839e+03
3.109654e+03,1.797701e+03
3.112547e+03,1.807789e+03
3.115440e+03,1.820745e+03
3.118332e+03,1.848862e+03
3.121225e+03,1.813629e+03
3.124118e+03,1.750652e+03
3.127010e+03,1.770247e+03
3.129903e+03,1.793983e+03
3.132796e+03,1.765189e+03
3.135689e+03,1.845439e+03
3.138581e+03,1.823065e+03
3.141474e+03,1.807281e+03
3.144367e+03,1.765144e+03
3.147260e+03,1.793947e+03
3.150152e+03,1.809554e+03
3.153045e+03,1.749978e+03
3.155938e+03,1.790512e+03
3.158830e+03,1.791431e+03
3.161723e+03,1.785062e+03
3.164615e+03,1.777288e+03
3.167508e+03,1.815361e+03
3.170401e+03,1.785693e+03
3.173294e+03,1.806614e+03
3.176186e+03,1.813179e+03
3.179079e+03,1.794128e+03
3.181972e+03,1.834196e+03
3.184865e+03,1.818335e+03
3.187757e+03,1.800592e+03
3.190650e+03,1.782967e+03
3.193543e+03,1.815987e+03
3.196435e+03,1.789699e+03
3.199328e+03,1.807791e+03
3.200292e+03,1.817269e+03