File: RAMAN_data/06022023_r1/blue frag1.CSV
1.995979e+02,2.935258e+03
2.024906e+02,2.944866e+03
2.053833e+02,2.959577e+03
2.082760e+02,2.956552e+03
2.111687e+02,2.954358e+03
2.140614e+02,2.951160e+03
2.169541e+02,2.948162e+03
2.198468e+02,2.957335e+03
2.227395e+02,2.951838e+03
2.256322e+02,2.941995e+03
2.285249e+02,2.946556e+03
2.314176e+02,2.946915e+03
2.343103e+02,2.946032e+03
2.372030e+02,2.950864e+03
2.400957e+02,2.951947e+03
2.429884e+02,2.937651e+03
2.458811e+02,2.942608e+03
2.487738e+02,2.952746e+03
2.516665e+02,2.956481e+03
2.545592e+02,2.961085e+03
2.574519e+02,2.955169e+03
2.603446e+02,2.954990e+03
2.632373e+02,2.945398e+03
2.661300e+02,2.968567e+03
2.690227e+02,2.948389e+03
2.719154e+02,2.946402e+03
2.748081e+02,2.942848e+03
2.777008e+02,2.946473e+03
2.805935e+02,2.941681e+03
2.834862e+02,2.960720e+03
2.863789e+02,2.945302e+03
2.892716e+02,2.939298e+03
2.921643e+02,2.940444e+03
2.950570e+02,2.933268e+03
2.979497e+02,2.935078e+03
3.008424e+02,2.931546e+03
3.037351e+02,2.917290e+03
3.066278e+02,2.911156e+03
3.095205e+02,2.907118e+03
3.124132e+02,2.914512e+03
3.153059e+02,2.929098e+03
3.181986e+02,2.911315e+03
3.210913e+02,2.915475e+03
3.239840e+02,2.909798e+03
3.268767e+02,2.917343e+03
3.297694e+02,2.916442e+03
3.326621e+02,2.914890e+03
3.355548e+02,2.909567e+03
3.384475e+02,2.913634e+03
3.413402e+02,2.922153e+03
3.442329e+02,2.920890e+03
3.471256e+02,2.915115e+03
3.500183e+02,2.893249e+03
3.529110e+02,2.887539e+03
3.558037e+02,2.889412e+03
3.586964e+02,2.880573e+03
3.615891e+02,2.897275e+03
3.644818e+02,2.905330e+03
3.673745e+02,2.878490e+03
3.702672e+02,2.897649e+03
3.731599e+02,2.881110e+03
3.760526e+02,2.896574e+03
3.789453e+02,2.890637e+03
3.818380e+02,2.874161e+03
3.847307e+02,2.850523e+03
3.876234e+02,2.857326e+03
3.905161e+02,2.856577e+03
3.934088e+02,2.857870e+03
3.963015e+02,2.844756e+03
3.991942e+02,2.849104e+03
4.020869e+02,2.854013e+03
4.049796e+02,2.843854e+03
4.078723e+02,2.839273e+03
4.107650e+02,2.828259e+03
4.136577e+02,2.840087e+03
4.165504e+02,2.841386e+03
4.194431e+02,2.829822e+03
4.223358e+02,2.832767e+03
4.252285e+02,2.818481e+03
4.281212e+02,2.834281e+03
4.310139e+02,2.824928e+03
4.339066e+02,2.819812e+03
4.367993e+02,2.819636e+03
4.396920e+02,2.802890e+03
4.425847e+02,2.801831e+03
4.454774e+02,2.792438e+03
4.483701e+02,2.806454e+03
4.512628e+02,2.794856e+03
4.541555e+02,2.786694e+03
4.570482e+02,2.780792e+03
4.599409e+02,2.775142e+03
4.628336e+02,2.769286e+03
4.657263e+02,2.751056e+03
4.686190e+02,2.758490e+03
4.715117e+02,2.748302e+03
4.744044e+02,2.757664e+03
4.772971e+02,2.732866e+03
4.801898e+02,2.747652e+03
4.830825e+02,2.749543e+03
4.859752e+02,2.736057e+03
4.888679e+02,2.745865e+03
4.917606e+02,2.744700e+03
4.946533e+02,2.732749e+03
4.975460e+02,2.730523e+03
5.004387e+02,2.726727e+03
5.033314e+02,2.709406e+03
5.062241e+02,2.706027e+03
5.091168e+02,2.713677e+03
5.120095e+02,2.715069e+03
5.149022e+02,2.719796e+03
5.177949e+02,2.708469e+03
5.206876e+02,2.696544e+03
5.235803e+02,2.686979e+03
5.264730e+02,2.683377e+03
5.293657e+02,2.681399e+03
5.322584e+02,2.664571e+03
5.351511e+02,2.668826e+03
5.380438e+02,2.666646e+03
5.409365e+02,2.660660e+03
5.438292e+02,2.666949e+03
5.467219e+02,2.667904e+03
5.496146e+02,2.663227e+03
5.525073e+02,2.649492e+03
5.554000e+02,2.624219e+03
5.582927e+02,2.627456e+03
5.611854e+02,2.634071e+03
5.640781e+02,2.645124e+03
5.669708e+02,2.636370e+03
5.698635e+02,2.617793e+03
5.727562e+02,2.616240e+03
5.756489e+02,2.627797e+03
5.785416e+02,2.621611e+03
5.814343e+02,2.620101e+03
5.843270e+02,2.609708e+03
5.872197e+02,2.608424e+03
5.901124e+02,2.627432e+03
5.930051e+02,2.625045e+03
5.958978e+02,2.597071e+03
5.987905e+02,2.603755e+03
6.016832e+02,2.604422e+03
6.045759e+02,2.600476e+03
6.074686e+02,2.600827e+03
6.103613e+02,2.587837e+03
6.132540e+02,2.583828e+03
6.161467e+02,2.574340e+03
6.190394e+02,2.576884e+03
6.219321e+02,2.556363e+03
6.248248e+02,2.565309e+03
6.277175e+02,2.563888e+03
6.306102e+02,2.538571e+03
6.335029e+02,2.556077e+03
6.363956e+02,2.554883e+03
6.392883e+02,2.539925e+03
6.421810e+02,2.542713e+03
6.450737e+02,2.523967e+03
6.479664e+02,2.548748e+03
6.508591e+02,2.524760e+03
6.537518e+02,2.533620e+03
6.566445e+02,2.513269e+03
6.595372e+02,2.511434e+03
6.624299e+02,2.505472e+03
6.653226e+02,2.507918e+03
6.682153e+02,2.516969e+03
6.711080e+02,2.538165e+03
6.740007e+02,2.532972e+03
6.768934e+02,2.546591e+03
6.797861e+02,2.605986e+03
6.826788e+02,2.603189e+03
6.855715e+02,2.564906e+03
6.884642e+02,2.510767e+03
6.913569e+02,2.501121e+03
6.942496e+02,2.500520e+03
6.971423e+02,2.492489e+03
7.000350e+02,2.490719e+03
7.029277e+02,2.486051e+03
7.058204e+02,2.469930e+03
7.087131e+02,2.459137e+03
7.116058e+02,2.462084e+03
7.144985e+02,2.455474e+03
7.173912e+02,2.457969e+03
7.202839e+02,2.439350e+03
7.231766e+02,2.440866e+03
7.260693e+02,2.435159e+03
7.289620e+02,2.432317e+03
7.318547e+02,2.433517e+03
7.347474e+02,2.459454e+03
7.376401e+02,2.490378e+03
7.405328e+02,2.503091e+03
7.434255e+02,2.500991e+03
7.463182e+02,2.493808e+03
7.492109e+02,2.445483e+03
7.521036e+02,2.404557e+03
7.549963e+02,2.411856e+03
7.578890e+02,2.396631e+03
7.607817e+02,2.409085e+03
7.636744e+02,2.382603e+03
7.665671e+02,2.399518e+03
7.694598e+02,2.411923e+03
7.723525e+02,2.423048e+03
7.752452e+02,2.409435e+03
7.781379e+02,2.397991e+03
7.810306e+02,2.370366e+03
7.839233e+02,2.361316e+03
7.868160e+02,2.359379e+03
7.897087e+02,2.347204e+03
7.926014e+02,2.355342e+03
7.954941e+02,2.334268e+03
7.983868e+02,2.324754e+03
8.012795e+02,2.334680e+03
8.041722e+02,2.330281e+03
8.070649e+02,2.329831e+03
8.099576e+02,2.334614e+03
8.128503e+02,2.331817e+03
8.157430e+02,2.337305e+03
8.186357e+02,2.309453e+03
8.215284e+02,2.323780e+03
8.244211e+02,2.320837e+03
8.273138e+02,2.301357e+03
8.302065e+02,2.306414e+03
8.330992e+02,2.304931e+03
8.359919e+02,2.301355e+03
8.388846e+02,2.303629e+03
8.417773e+02,2.292598e+03
8.446700e+02,2.267172e+03
8.475627e+02,2.283202e+03
8.504554e+02,2.293855e+03
8.533481e+02,2.266725e+03
8.562408e+02,2.273110e+03
8.591335e+02,2.261961e+03
8.620262e+02,2.252053e+03
8.649189e+02,2.244909e+03
8.678116e+02,2.251728e+03
8.707043e+02,2.250388e+03
8.735970e+02,2.249231e+03
8.764897e+02,2.259112e+03
8.793824e+02,2.245278e+03
8.822751e+02,2.244832e+03
8.851678e+02,2.249004e+03
8.880605e+02,2.238018e+03
8.909532e+02,2.221581e+03
8.938459e+02,2.212072e+03
8.967386e+02,2.212865e+03
8.996313e+02,2.214411e+03
9.025240e+02,2.220396e+03
9.054167e+02,2.203090e+03
9.083094e+02,2.202546e+03
9.112021e+02,2.191606e+03
9.140948e+02,2.196288e+03
9.169875e+02,2.190978e+03
9.198802e+02,2.177375e+03
9.227729e+02,2.159830e+03
9.256656e+02,2.172612e+03
9.285583e+02,2.167017e+03
9.314510e+02,2.168565e+03
9.343438e+02,2.156240e+03
9.372365e+02,2.158141e+03
9.401292e+02,2.153675e+03
9.430219e+02,2.150246e+03
9.459146e+02,2.162416e+03
9.488073e+02,2.169839e+03
9.517000e+02,2.140814e+03
9.545927e+02,2.140663e+03
9.574854e+02,2.124883e+03
9.603781e+02,2.138192e+03
9.632708e+02,2.145723e+03
9.661635e+02,2.132581e+03
9.690562e+02,2.129061e+03
9.719489e+02,2.122572e+03
9.748416e+02,2.124459e+03
9.777343e+02,2.124840e+03
9.806270e+02,2.106440e+03
9.835197e+02,2.102352e+03
9.864124e+02,2.097519e+03
9.893051e+02,2.098274e+03
9.921978e+02,2.112468e+03
9.950905e+02,2.099579e+03
9.979832e+02,2.097981e+03
1.000876e+03,2.095461e+03
1.003769e+03,2.080747e+03
1.006661e+03,2.091166e+03
1.009554e+03,2.090327e+03
1.012447e+03,2.070979e+03
1.015339e+03,2.070434e+03
1.018232e+03,2.070291e+03
1.021125e+03,2.057909e+03
1.024017e+03,2.063765e+03
1.026910e+03,2.067680e+03
1.029803e+03,2.057414e+03
1.032696e+03,2.061693e+03
1.035588e+03,2.062735e+03
1.038481e+03,2.068967e+03
1.041374e+03,2.057676e+03
1.044266e+03,2.049598e+03
1.047159e+03,2.046310e+03
1.050052e+03,2.053133e+03
1.052944e+03,2.066460e+03
1.055837e+03,2.044985e+03
1.058730e+03,2.036427e+03
1.061623e+03,2.025350e+03
1.064515e+03,2.030865e+03
1.067408e+03,2.034057e+03
1.070301e+03,2.034473e+03
1.073193e+03,2.039990e+03
1.076086e+03,2.039552e+03
1.078979e+03,2.030744e+03
1.081871e+03,2.028965e+03
1.084764e+03,2.043609e+03
1.087657e+03,2.038650e+03
1.090550e+03,2.047659e+03
1.093442e+03,2.038217e+03
1.096335e+03,2.022813e+03
1.099228e+03,2.018642e+03
1.102120e+03,2.022688e+03
1.105013e+03,2.016428e+03
1.107906e+03,2.010846e+03
1.110798e+03,2.003350e+03
1.113691e+03,2.004003e+03
1.116584e+03,2.002651e+03
1.119477e+03,2.015790e+03
1.122369e+03,2.003776e+03
1.125262e+03,1.997592e+03
1.128155e+03,1.986074e+03
1.131047e+03,1.984359e+03
1.133940e+03,1.995229e+03
1.136833e+03,1.999997e+03
1.139725e+03,2.004496e+03
1.142618e+03,1.994535e+03
1.145511e+03,1.983600e+03
1.148404e+03,1.984859e+03
1.151296e+03,1.972560e+03
1.154189e+03,1.969612e+03
1.157082e+03,1.961293e+03
1.159974e+03,1.965993e+03
1.162867e+03,1.946957e+03
1.165760e+03,1.950182e+03
1.168652e+03,1.952655e+03
1.171545e+03,1.944604e+03
1.174438e+03,1.949474e+03
1.177331e+03,1.953890e+03
1.180223e+03,1.952347e+03
1.183116e+03,1.959979e+03
1.186009e+03,1.942778e+03
1.188901e+03,1.943197e+03
1.191794e+03,1.933355e+03
1.194687e+03,1.941427e+03
1.197579e+03,1.944768e+03
1.200472e+03,1.961090e+03
1.203365e+03,1.959195e+03
1.206258e+03,1.964681e+03
1.209150e+03,1.980871e+03
1.212043e+03,1.958227e+03
1.214936e+03,1.934912e+03
1.217828e+03,1.933299e+03
1.220721e+03,1.915450e+03
1.223614e+03,1.914725e+03
1.226506e+03,1.925105e+03
1.229399e+03,1.912535e+03
1.232292e+03,1.890473e+03
1.235185e+03,1.887435e+03
1.238077e+03,1.893737e+03
1.240970e+03,1.889703e+03
1.243863e+03,1.889939e+03
1.246755e+03,1.895239e+03
1.249648e+03,1.872572e+03
1.252541e+03,1.892840e+03
1.255433e+03,1.880128e+03
1.258326e+03,1.890058e+03
1.261219e+03,1.888213e+03
1.264112e+03,1.896111e+03
1.267004e+03,1.897730e+03
1.269897e+03,1.906434e+03
1.272790e+03,1.937344e+03
1.275682e+03,1.947986e+03
1.278575e+03,1.960241e+03
1.281468e+03,1.942295e+03
1.284360e+03,1.949635e+03
1.287253e+03,1.938876e+03
1.290146e+03,1.928243e+03
1.293039e+03,1.920204e+03
1.295931e+03,1.902330e+03
1.298824e+03,1.894101e+03
1.301717e+03,1.890576e+03
1.304609e+03,1.888885e+03
1.307502e+03,1.895464e+03
1.310395e+03,1.875255e+03
1.313287e+03,1.890267e+03
1.316180e+03,1.882975e+03
1.319073e+03,1.893289e+03
1.321966e+03,1.886246e+03
1.324858e+03,1.906528e+03
1.327751e+03,1.905654e+03
1.330644e+03,1.931124e+03
1.333536e+03,1.967365e+03
1.336429e+03,1.987570e+03
1.339322e+03,1.950670e+03
1.342214e+03,1.916752e+03
1.345107e+03,1.893948e+03
1.348000e+03,1.875680e+03
1.350893e+03,1.869484e+03
1.353785e+03,1.852379e+03
1.356678e+03,1.863472e+03
1.359571e+03,1.859112e+03
1.362463e+03,1.855505e+03
1.365356e+03,1.858095e+03
1.368249e+03,1.854270e+03
1.371141e+03,1.843525e+03
1.374034e+03,1.833012e+03
1.376927e+03,1.834639e+03
1.379820e+03,1.841617e+03
1.382712e+03,1.830135e+03
1.385605e+03,1.842128e+03
1.388498e+03,1.811301e+03
1.391390e+03,1.820697e+03
1.394283e+03,1.820133e+03
1.397176e+03,1.824926e+03
1.400068e+03,1.809192e+03
1.402961e+03,1.802249e+03
1.405854e+03,1.821137e+03
1.408747e+03,1.802556e+03
1.411639e+03,1.812183e+03
1.414532e+03,1.814310e+03
1.417425e+03,1.807303e+03
1.420317e+03,1.816355e+03
1.423210e+03,1.798561e+03
1.426103e+03,1.791950e+03
1.428995e+03,1.797070e+03
1.431888e+03,1.805255e+03
1.434781e+03,1.792654e+03
1.437674e+03,1.802766e+03
1.440566e+03,1.809785e+03
1.443459e+03,1.817844e+03
1.446352e+03,1.829388e+03
1.449244e+03,1.820269e+03
1.452137e+03,1.816456e+03
1.455030e+03,1.785453e+03
1.457922e+03,1.786163e+03
1.460815e+03,1.785902e+03
1.463708e+03,1.791926e+03
1.466601e+03,1.785250e+03
1.469493e+03,1.777139e+03
1.472386e+03,1.787604e+03
1.475279e+03,1.787918e+03
1.478171e+03,1.790397e+03
1.481064e+03,1.773770e+03
1.483957e+03,1.765017e+03
1.486849e+03,1.772320e+03
1.489742e+03,1.763345e+03
1.492635e+03,1.754904e+03
1.495528e+03,1.776112e+03
1.498420e+03,1.770470e+03
1.501313e+03,1.782099e+03
1.504206e+03,1.787682e+03
1.507098e+03,1.773296e+03
1.509991e+03,1.773379e+03
1.512884e+03,1.802022e+03
1.515776e+03,1.827607e+03
1.518669e+03,1.887571e+03
1.521562e+03,1.975916e+03
1.524455e+03,1.981044e+03
1.527347e+03,1.965270e+03
1.530240e+03,1.959291e+03
1.533133e+03,1.976561e+03
1.536025e+03,1.916982e+03
1.538918e+03,1.860299e+03
1.541811e+03,1.814629e+03
1.544703e+03,1.790753e+03
1.547596e+03,1.775841e+03
1.550489e+03,1.789402e+03
1.553382e+03,1.772660e+03
1.556274e+03,1.763444e+03
1.559167e+03,1.747693e+03
1.562060e+03,1.743266e+03
1.564952e+03,1.749458e+03
1.567845e+03,1.729138e+03
1.570738e+03,1.736164e+03
1.573630e+03,1.731403e+03
1.576523e+03,1.718210e+03
1.579416e+03,1.720947e+03
1.582309e+03,1.722394e+03
1.585201e+03,1.726258e+03
1.588094e+03,1.712733e+03
1.590987e+03,1.722946e+03
1.593879e+03,1.709036e+03
1.596772e+03,1.719403e+03
1.599665e+03,1.700326e+03
1.602557e+03,1.703134e+03
1.605450e+03,1.713305e+03
1.608343e+03,1.696227e+03
1.611236e+03,1.691568e+03
1.614128e+03,1.687320e+03
1.617021e+03,1.690912e+03
1.619914e+03,1.699023e+03
1.622806e+03,1.677465e+03
1.625699e+03,1.676119e+03
1.628592e+03,1.678889e+03
1.631484e+03,1.672915e+03
1.634377e+03,1.667557e+03
1.637270e+03,1.676152e+03
1.640163e+03,1.677203e+03
1.643055e+03,1.669129e+03
1.645948e+03,1.676011e+03
1.648841e+03,1.658160e+03
1.651733e+03,1.663579e+03
1.654626e+03,1.659896e+03
1.657519e+03,1.658331e+03
1.660411e+03,1.668818e+03
1.663304e+03,1.660719e+03
1.666197e+03,1.655746e+03
1.669090e+03,1.663701e+03
1.671982e+03,1.654095e+03
1.674875e+03,1.652486e+03
1.677768e+03,1.651905e+03
1.680660e+03,1.652773e+03
1.683553e+03,1.648989e+03
1.686446e+03,1.644093e+03
1.689339e+03,1.650824e+03
1.692231e+03,1.653140e+03
1.695124e+03,1.650363e+03
1.698017e+03,1.645771e+03
1.700909e+03,1.663675e+03
1.703802e+03,1.637158e+03
1.706695e+03,1.637255e+03
1.709587e+03,1.638019e+03
1.712480e+03,1.641813e+03
1.715373e+03,1.636171e+03
1.718266e+03,1.618081e+03
1.721158e+03,1.629380e+03
1.724051e+03,1.635440e+03
1.726944e+03,1.619793e+03
1.729836e+03,1.618148e+03
1.732729e+03,1.623578e+03
1.735622e+03,1.619888e+03
1.738514e+03,1.621805e+03
1.741407e+03,1.631476e+03
1.744300e+03,1.625581e+03
1.747193e+03,1.604578e+03
1.750085e+03,1.619469e+03
1.752978e+03,1.611201e+03
1.755871e+03,1.619135e+03
1.758763e+03,1.609630e+03
1.761656e+03,1.604739e+03
1.764549e+03,1.603569e+03
1.767441e+03,1.588096e+03
1.770334e+03,1.611433e+03
1.773227e+03,1.613357e+03
1.776120e+03,1.590530e+03
1.779012e+03,1.594678e+03
1.781905e+03,1.600063e+03
1.784798e+03,1.585690e+03
1.787690e+03,1.596720e+03
1.790583e+03,1.582629e+03
1.793476e+03,1.571400e+03
1.796368e+03,1.595474e+03
1.799261e+03,1.595224e+03
1.802154e+03,1.600877e+03
1.805047e+03,1.587567e+03
1.807939e+03,1.588862e+03
1.810832e+03,1.590104e+03
1.813725e+03,1.589045e+03
1.816617e+03,1.589328e+03
1.819510e+03,1.587375e+03
1.822403e+03,1.581884e+03
1.825295e+03,1.582023e+03
1.828188e+03,1.566171e+03
1.831081e+03,1.576730e+03
1.833974e+03,1.580911e+03
1.836866e+03,1.565117e+03
1.839759e+03,1.559315e+03
1.842652e+03,1.574973e+03
1.845544e+03,1.568166e+03
1.848437e+03,1.579859e+03
1.851330e+03,1.562450e+03
1.854222e+03,1.559875e+03
1.857115e+03,1.558351e+03
1.860008e+03,1.570450e+03
1.862901e+03,1.555005e+03
1.865793e+03,1.570611e+03
1.868686e+03,1.567688e+03
1.871579e+03,1.567353e+03
1.874471e+03,1.568899e+03
1.877364e+03,1.556231e+03
1.880257e+03,1.552703e+03
1.883149e+03,1.563263e+03
1.886042e+03,1.551232e+03
1.888935e+03,1.552899e+03
1.891828e+03,1.554580e+03
1.894720e+03,1.559040e+03
1.897613e+03,1.542794e+03
1.900506e+03,1.549922e+03
1.903398e+03,1.539605e+03
1.906291e+03,1.538838e+03
1.909184e+03,1.558496e+03
1.912076e+03,1.539935e+03
1.914969e+03,1.552935e+03
1.917862e+03,1.532833e+03
1.920755e+03,1.534841e+03
1.923647e+03,1.546305e+03
1.926540e+03,1.530019e+03
1.929433e+03,1.523605e+03
1.932325e+03,1.524205e+03
1.935218e+03,1.530591e+03
1.938111e+03,1.539105e+03
1.941003e+03,1.530209e+03
1.943896e+03,1.526665e+03
1.946789e+03,1.513809e+03
1.949682e+03,1.517845e+03
1.952574e+03,1.522033e+03
1.955467e+03,1.534198e+03
1.958360e+03,1.523305e+03
1.961252e+03,1.520049e+03
1.964145e+03,1.506804e+03
1.967038e+03,1.534011e+03
1.969930e+03,1.511976e+03
1.972823e+03,1.506112e+03
1.975716e+03,1.524919e+03
1.978609e+03,1.526369e+03
1.981501e+03,1.507168e+03
1.984394e+03,1.509143e+03
1.987287e+03,1.525974e+03
1.990179e+03,1.507739e+03
1.993072e+03,1.510598e+03
1.995965e+03,1.507507e+03
1.998857e+03,1.513048e+03
2.001750e+03,1.501914e+03
2.004643e+03,1.509417e+03
2.007536e+03,1.504135e+03
2.010428e+03,1.509561e+03
2.013321e+03,1.495010e+03
2.016214e+03,1.500342e+03
2.019106e+03,1.487280e+03
2.021999e+03,1.497966e+03
2.024892e+03,1.491093e+03
2.027784e+03,1.476129e+03
2.030677e+03,1.509695e+03
2.033570e+03,1.492785e+03
2.036463e+03,1.491294e+03
2.039355e+03,1.466396e+03
2.042248e+03,1.483725e+03
2.045141e+03,1.474355e+03
2.048033e+03,1.485565e+03
2.050926e+03,1.479627e+03
2.053819e+03,1.485654e+03
2.056711e+03,1.470330e+03
2.059604e+03,1.474731e+03
2.062497e+03,1.485833e+03
2.065390e+03,1.484450e+03
2.068282e+03,1.472883e+03
2.071175e+03,1.467907e+03
2.074068e+03,1.472877e+03
2.076960e+03,1.476033e+03
2.079853e+03,1.470419e+03
2.082746e+03,1.454770e+03
2.085638e+03,1.451994e+03
2.088531e+03,1.467297e+03
2.091424e+03,1.463914e+03
2.094316e+03,1.454271e+03
2.097209e+03,1.466726e+03
2.100102e+03,1.467860e+03
2.102995e+03,1.451372e+03
2.105887e+03,1.450779e+03
2.108780e+03,1.455317e+03
2.111673e+03,1.451500e+03
2.114565e+03,1.452868e+03
2.117458e+03,1.444006e+03
2.120351e+03,1.465647e+03
2.123244e+03,1.444270e+03
2.126136e+03,1.441991e+03
2.129029e+03,1.436189e+03
2.131922e+03,1.447780e+03
2.134814e+03,1.449583e+03
2.137707e+03,1.433362e+03
2.140600e+03,1.443908e+03
2.143492e+03,1.438976e+03
2.146385e+03,1.433336e+03
2.149278e+03,1.433725e+03
2.152170e+03,1.427542e+03
2.155063e+03,1.430725e+03
2.157956e+03,1.421181e+03
2.160849e+03,1.418925e+03
2.163741e+03,1.433720e+03
2.166634e+03,1.409369e+03
2.169527e+03,1.420418e+03
2.172419e+03,1.409071e+03
2.175312e+03,1.416291e+03
2.178205e+03,1.406249e+03
2.181098e+03,1.420222e+03
2.183990e+03,1.404207e+03
2.186883e+03,1.408279e+03
2.189776e+03,1.416533e+03
2.192668e+03,1.408145e+03
2.195561e+03,1.395859e+03
2.198454e+03,1.415466e+03
2.201346e+03,1.420408e+03
2.204239e+03,1.397962e+03
2.207132e+03,1.417234e+03
2.210024e+03,1.399564e+03
2.212917e+03,1.408524e+03
2.215810e+03,1.397025e+03
2.218703e+03,1.396668e+03
2.221595e+03,1.393081e+03
2.224488e+03,1.369478e+03
2.227381e+03,1.397049e+03
2.230273e+03,1.390181e+03
2.233166e+03,1.399926e+03
2.236059e+03,1.368435e+03
2.238952e+03,1.375363e+03
2.241844e+03,1.357386e+03
2.244737e+03,1.382234e+03
2.247630e+03,1.367411e+03
2.250522e+03,1.378049e+03
2.253415e+03,1.387456e+03
2.256308e+03,1.373679e+03
2.259200e+03,1.360606e+03
2.262093e+03,1.365236e+03
2.264986e+03,1.368102e+03
2.267879e+03,1.365614e+03
2.270771e+03,1.373794e+03
2.273664e+03,1.361483e+03
2.276557e+03,1.362412e+03
2.279449e+03,1.366425e+03
2.282342e+03,1.347940e+03
2.285235e+03,1.351502e+03
2.288127e+03,1.343475e+03
2.291020e+03,1.342415e+03
2.293913e+03,1.328612e+03
2.296805e+03,1.358329e+03
2.299698e+03,1.341519e+03
2.302591e+03,1.332604e+03
2.305484e+03,1.339216e+03
2.308376e+03,1.341054e+03
2.311269e+03,1.328442e+03
2.314162e+03,1.343426e+03
2.317054e+03,1.341805e+03
2.319947e+03,1.330010e+03
2.322840e+03,1.324661e+03
2.325733e+03,1.342834e+03
2.328625e+03,1.335332e+03
2.331518e+03,1.315577e+03
2.334411e+03,1.322598e+03
2.337303e+03,1.312789e+03
2.340196e+03,1.314010e+03
2.343089e+03,1.319777e+03
2.345981e+03,1.325917e+03
2.348874e+03,1.307322e+03
2.351767e+03,1.285731e+03
2.354659e+03,1.302274e+03
2.357552e+03,1.312191e+03
2.360445e+03,1.313386e+03
2.363338e+03,1.294911e+03
2.366230e+03,1.309736e+03
2.369123e+03,1.309302e+03
2.372016e+03,1.299339e+03
2.374908e+03,1.291565e+03
2.377801e+03,1.292618e+03
2.380694e+03,1.288973e+03
2.383587e+03,1.289001e+03
2.386479e+03,1.285153e+03
2.389372e+03,1.279084e+03
2.392265e+03,1.294674e+03
2.395157e+03,1.271224e+03
2.398050e+03,1.276830e+03
2.400943e+03,1.277577e+03
2.403835e+03,1.274039e+03
2.406728e+03,1.279705e+03
2.409621e+03,1.274080e+03
2.412513e+03,1.275347e+03
2.415406e+03,1.263807e+03
2.418299e+03,1.263247e+03
2.421192e+03,1.258555e+03
2.424084e+03,1.253518e+03
2.426977e+03,1.275738e+03
2.429870e+03,1.266979e+03
2.432762e+03,1.263195e+03
2.435655e+03,1.234763e+03
2.438548e+03,1.252933e+03
2.441441e+03,1.258018e+03
2.444333e+03,1.247860e+03
2.447226e+03,1.252530e+03
2.450119e+03,1.265449e+03
2.453011e+03,1.267010e+03
2.455904e+03,1.250280e+03
2.458797e+03,1.232890e+03
2.461689e+03,1.247468e+03
2.464582e+03,1.231848e+03
2.467475e+03,1.224466e+03
2.470367e+03,1.232855e+03
2.473260e+03,1.231208e+03
2.476153e+03,1.233499e+03
2.479046e+03,1.231321e+03
2.481938e+03,1.228220e+03
2.484831e+03,1.224813e+03
2.487724e+03,1.223145e+03
2.490616e+03,1.225437e+03
2.493509e+03,1.223810e+03
2.496402e+03,1.200367e+03
2.499295e+03,1.209342e+03
2.502187e+03,1.221535e+03
2.505080e+03,1.211457e+03
2.507973e+03,1.206135e+03
2.510865e+03,1.202016e+03
2.513758e+03,1.212985e+03
2.516651e+03,1.219809e+03
2.519543e+03,1.202279e+03
2.522436e+03,1.219455e+03
2.525329e+03,1.192326e+03
2.528221e+03,1.196799e+03
2.531114e+03,1.196852e+03
2.534007e+03,1.180286e+03
2.536900e+03,1.184876e+03
2.539792e+03,1.196635e+03
2.542685e+03,1.184915e+03
2.545578e+03,1.196562e+03
2.548470e+03,1.177021e+03
2.551363e+03,1.177763e+03
2.554256e+03,1.189010e+03
2.557149e+03,1.181799e+03
2.560041e+03,1.180641e+03
2.562934e+03,1.183664e+03
2.565827e+03,1.170930e+03
2.568719e+03,1.181261e+03
2.571612e+03,1.189298e+03
2.574505e+03,1.184286e+03
2.577397e+03,1.187396e+03
2.580290e+03,1.154098e+03
2.583183e+03,1.162562e+03
2.586075e+03,1.149227e+03
2.588968e+03,1.149693e+03
2.591861e+03,1.168871e+03
2.594754e+03,1.166723e+03
2.597646e+03,1.154158e+03
2.600539e+03,1.144205e+03
2.603432e+03,1.154762e+03
2.606324e+03,1.129719e+03
2.609217e+03,1.144330e+03
2.612110e+03,1.155743e+03
2.615003e+03,1.130039e+03
2.617895e+03,1.137600e+03
2.620788e+03,1.141230e+03
2.623681e+03,1.144822e+03
2.626573e+03,1.139330e+03
2.629466e+03,1.132985e+03
2.632359e+03,1.115326e+03
2.635251e+03,1.125546e+03
2.638144e+03,1.135984e+03
2.641037e+03,1.144447e+03
2.643929e+03,1.123650e+03
2.646822e+03,1.125443e+03
2.649715e+03,1.119084e+03
2.652608e+03,1.121834e+03
2.655500e+03,1.117611e+03
2.658393e+03,1.117110e+03
2.661286e+03,1.105104e+03
2.664178e+03,1.097223e+03
2.667071e+03,1.118780e+03
2.669964e+03,1.126797e+03
2.672857e+03,1.132567e+03
2.675749e+03,1.112828e+03
2.678642e+03,1.110087e+03
2.681535e+03,1.116918e+03
2.684427e+03,1.100574e+03
2.687320e+03,1.106291e+03
2.690213e+03,1.086816e+03
2.693105e+03,1.090207e+03
2.695998e+03,1.090705e+03
2.698891e+03,1.103074e+03
2.701783e+03,1.100266e+03
2.704676e+03,1.099415e+03
2.707569e+03,1.094579e+03
2.710462e+03,1.097408e+03
2.713354e+03,1.093912e+03
2.716247e+03,1.093611e+03
2.719140e+03,1.086628e+03
2.722032e+03,1.075532e+03
2.724925e+03,1.084035e+03
2.727818e+03,1.079316e+03
2.730711e+03,1.065887e+03
2.733603e+03,1.071393e+03
2.736496e+03,1.085499e+03
2.739389e+03,1.073286e+03
2.742281e+03,1.062190e+03
2.745174e+03,1.080233e+03
2.748067e+03,1.063666e+03
2.750959e+03,1.074981e+03
2.753852e+03,1.061449e+03
2.756745e+03,1.071795e+03
2.759637e+03,1.062759e+03
2.762530e+03,1.061038e+03
2.765423e+03,1.050887e+03
2.768316e+03,1.076104e+03
2.771208e+03,1.058910e+03
2.774101e+03,1.046898e+03
2.776994e+03,1.042634e+03
2.779886e+03,1.033619e+03
2.782779e+03,1.035455e+03
2.785672e+03,1.073576e+03
2.788565e+03,1.046029e+03
2.791457e+03,1.057173e+03
2.794350e+03,1.030425e+03
2.797243e+03,1.030792e+03
2.800135e+03,1.043073e+03
2.803028e+03,1.032207e+03
2.805921e+03,1.047745e+03
2.808813e+03,1.040283e+03
2.811706e+03,1.028889e+03
2.814599e+03,1.036877e+03
2.817491e+03,1.038716e+03
2.820384e+03,1.032475e+03
2.823277e+03,1.040590e+03
2.826170e+03,1.019191e+03
2.829062e+03,1.038938e+03
2.831955e+03,1.041278e+03
2.834848e+03,1.015140e+03
2.837740e+03,1.028526e+03
2.840633e+03,1.041724e+03
2.843526e+03,1.032199e+03
2.846419e+03,1.026933e+03
2.849311e+03,1.036544e+03
2.852204e+03,1.036869e+03
2.855097e+03,1.037313e+03
2.857990e+03,1.039491e+03
2.860882e+03,1.041860e+03
2.863775e+03,1.014806e+03
2.866667e+03,1.040909e+03
2.869560e+03,1.042771e+03
2.872453e+03,1.001970e+03
2.875345e+03,1.025401e+03
2.878238e+03,1.032651e+03
2.881131e+03,1.030714e+03
2.884024e+03,1.029381e+03
2.886916e+03,1.018283e+03
2.889809e+03,1.017467e+03
2.892702e+03,1.047674e+03
2.895594e+03,1.030090e+03
2.898487e+03,1.034693e+03
2.901380e+03,1.027661e+03
2.904273e+03,1.019137e+03
2.907165e+03,9.960087e+02
2.910058e+03,1.001250e+03
2.912951e+03,1.017882e+03
2.915844e+03,1.011446e+03
2.918736e+03,1.018752e+03
2.921629e+03,1.038058e+03
2.924521e+03,1.007491e+03
2.927414e+03,1.020054e+03
2.930307e+03,1.015914e+03
2.933199e+03,1.004949e+03
2.936092e+03,1.015629e+03
2.938985e+03,1.001903e+03
2.941878e+03,1.011235e+03
2.944770e+03,9.887444e+02
2.947663e+03,1.016271e+03
2.950556e+03,1.042445e+03
2.953448e+03,1.000862e+03
2.956341e+03,1.033849e+03
2.959234e+03,1.034737e+03
2.962127e+03,1.005167e+03
2.965019e+03,9.792519e+02
2.967912e+03,9.844655e+02
2.970805e+03,9.895498e+02
2.973698e+03,9.907108e+02
2.976590e+03,9.835594e+02
2.979483e+03,9.922733e+02
2.982375e+03,9.876270e+02
2.985268e+03,9.678481e+02
2.988161e+03,9.718672e+02
2.991053e+03,9.656630e+02
2.993946e+03,9.878263e+02
2.996839e+03,9.888931e+02
2.999732e+03,9.425646e+02
3.002624e+03,9.615516e+02
3.005517e+03,9.620637e+02
3.008410e+03,9.493871e+02
3.011302e+03,9.580123e+02
3.014195e+03,9.801397e+02
3.017088e+03,9.797844e+02
3.019981e+03,9.612173e+02
3.022873e+03,9.727050e+02
3.025766e+03,9.592567e+02
3.028659e+03,9.598956e+02
3.031552e+03,9.609872e+02
3.034444e+03,9.679172e+02
3.037337e+03,9.556357e+02
3.040229e+03,9.562174e+02
3.043122e+03,9.726949e+02
3.046015e+03,9.713348e+02
3.048907e+03,9.479170e+02
3.051800e+03,9.605741e+02
3.054693e+03,9.880320e+02
3.057586e+03,9.715111e+02
3.060478e+03,9.420866e+02
3.063371e+03,9.515629e+02
3.066264e+03,9.598542e+02
3.069156e+03,9.707006e+02
3.072049e+03,9.990640e+02
3.074942e+03,9.778243e+02
3.077835e+03,9.408273e+02
3.080727e+03,9.641926e+02
3.083620e+03,9.389135e+02
3.086513e+03,9.919345e+02
3.089406e+03,9.602893e+02
3.092298e+03,9.536575e+02
3.095191e+03,9.519744e+02
3.098083e+03,9.575763e+02
3.100976e+03,9.691047e+02
3.103869e+03,9.401685e+02
3.106761e+03,9.280748e+02
3.109654e+03,9.426769e+02
3.112547e+03,9.358391e+02
3.115440e+03,9.696493e+02
3.118332e+03,9.602206e+02
3.121225e+03,9.426356e+02
3.124118e+03,9.780612e+02
3.127010e+03,9.937050e+02
3.129903e+03,9.579058e+02
3.132796e+03,9.282384e+02
3.135689e+03,9.689113e+02
3.138581e+03,9.859056e+02
3.141474e+03,9.906588e+02
3.144367e+03,9.458860e+02
3.147260e+03,9.481424e+02
3.150152e+03,9.771325e+02
3.153045e+03,9.443497e+02
3.155938e+03,9.691719e+02
3.158830e+03,9.408567e+02
3.161723e+03,9.977171e+02
3.164615e+03,9.990717e+02
3.167508e+03,9.641962e+02
3.170401e+03,9.887733e+02
3.173294e+03,9.507806e+02
3.176186e+03,9.707328e+02
3.179079e+03,9.796993e+02
3.181972e+03,9.987829e+02
3.184865e+03,9.512756e+02
3.187757e+03,9.879688e+02
3.190650e+03,9.593522e+02
3.193543e+03,9.752199e+02
3.196435e+03,9.996281e+02
3.199328e+03,1.017218e+03
3.200292e+03,1.020078e+03