File: RAMAN_data/06022023_r1/blue frag5.CSV
1.995979e+02,3.259844e+03
2.024906e+02,3.263394e+03
2.053833e+02,3.279553e+03
2.082760e+02,3.281398e+03
2.111687e+02,3.262411e+03
2.140614e+02,3.262175e+03
2.169541e+02,3.269401e+03
2.198468e+02,3.267854e+03
2.227395e+02,3.290967e+03
2.256322e+02,3.260001e+03
2.285249e+02,3.276617e+03
2.314176e+02,3.285480e+03
2.343103e+02,3.278960e+03
2.372030e+02,3.288449e+03
2.400957e+02,3.282262e+03
2.429884e+02,3.281993e+03
2.458811e+02,3.278562e+03
2.487738e+02,3.290553e+03
2.516665e+02,3.286132e+03
2.545592e+02,3.302754e+03
2.574519e+02,3.291126e+03
2.603446e+02,3.301780e+03
2.632373e+02,3.306863e+03
2.661300e+02,3.303337e+03
2.690227e+02,3.306367e+03
2.719154e+02,3.292753e+03
2.748081e+02,3.293335e+03
2.777008e+02,3.314645e+03
2.805935e+02,3.311594e+03
2.834862e+02,3.318328e+03
2.863789e+02,3.324606e+03
2.892716e+02,3.297339e+03
2.921643e+02,3.299637e+03
2.950570e+02,3.297972e+03
2.979497e+02,3.291755e+03
3.008424e+02,3.311860e+03
3.037351e+02,3.311917e+03
3.066278e+02,3.302088e+03
3.095205e+02,3.291448e+03
3.124132e+02,3.308875e+03
3.153059e+02,3.304252e+03
3.181986e+02,3.297457e+03
3.210913e+02,3.299527e+03
3.239840e+02,3.311573e+03
3.268767e+02,3.308913e+03
3.297694e+02,3.320219e+03
3.326621e+02,3.319655e+03
3.355548e+02,3.315404e+03
3.384475e+02,3.310339e+03
3.413402e+02,3.323651e+03
3.442329e+02,3.314109e+03
3.471256e+02,3.324883e+03
3.500183e+02,3.306114e+03
3.529110e+02,3.318285e+03
3.558037e+02,3.317895e+03
3.586964e+02,3.300516e+03
3.615891e+02,3.308607e+03
3.644818e+02,3.308578e+03
3.673745e+02,3.301434e+03
3.702672e+02,3.299261e+03
3.731599e+02,3.308458e+03
3.760526e+02,3.331404e+03
3.789453e+02,3.307638e+03
3.818380e+02,3.299864e+03
3.847307e+02,3.274888e+03
3.876234e+02,3.281886e+03
3.905161e+02,3.290605e+03
3.934088e+02,3.288679e+03
3.963015e+02,3.291367e+03
3.991942e+02,3.293282e+03
4.020869e+02,3.264605e+03
4.049796e+02,3.295996e+03
4.078723e+02,3.296818e+03
4.107650e+02,3.279900e+03
4.136577e+02,3.271674e+03
4.165504e+02,3.275904e+03
4.194431e+02,3.274016e+03
4.223358e+02,3.273554e+03
4.252285e+02,3.270664e+03
4.281212e+02,3.274311e+03
4.310139e+02,3.271038e+03
4.339066e+02,3.274903e+03
4.367993e+02,3.281060e+03
4.396920e+02,3.273126e+03
4.425847e+02,3.264198e+03
4.454774e+02,3.246609e+03
4.483701e+02,3.261318e+03
4.512628e+02,3.247140e+03
4.541555e+02,3.255094e+03
4.570482e+02,3.263086e+03
4.599409e+02,3.250262e+03
4.628336e+02,3.230208e+03
4.657263e+02,3.237423e+03
4.686190e+02,3.228323e+03
4.715117e+02,3.228524e+03
4.744044e+02,3.226920e+03
4.772971e+02,3.240412e+03
4.801898e+02,3.227913e+03
4.830825e+02,3.219312e+03
4.859752e+02,3.225450e+03
4.888679e+02,3.220557e+03
4.917606e+02,3.213387e+03
4.946533e+02,3.212048e+03
4.975460e+02,3.231476e+03
5.004387e+02,3.217086e+03
5.033314e+02,3.216978e+03
5.062241e+02,3.207594e+03
5.091168e+02,3.205512e+03
5.120095e+02,3.194260e+03
5.149022e+02,3.210106e+03
5.177949e+02,3.222166e+03
5.206876e+02,3.188224e+03
5.235803e+02,3.194534e+03
5.264730e+02,3.205817e+03
5.293657e+02,3.210914e+03
5.322584e+02,3.199430e+03
5.351511e+02,3.187308e+03
5.380438e+02,3.190272e+03
5.409365e+02,3.174860e+03
5.438292e+02,3.184665e+03
5.467219e+02,3.188287e+03
5.496146e+02,3.195583e+03
5.525073e+02,3.157663e+03
5.554000e+02,3.150974e+03
5.582927e+02,3.163413e+03
5.611854e+02,3.181030e+03
5.640781e+02,3.173454e+03
5.669708e+02,3.175100e+03
5.698635e+02,3.155006e+03
5.727562e+02,3.164687e+03
5.756489e+02,3.173341e+03
5.785416e+02,3.169491e+03
5.814343e+02,3.162791e+03
5.843270e+02,3.145285e+03
5.872197e+02,3.173810e+03
5.901124e+02,3.165837e+03
5.930051e+02,3.162884e+03
5.958978e+02,3.160337e+03
5.987905e+02,3.154621e+03
6.016832e+02,3.141053e+03
6.045759e+02,3.138468e+03
6.074686e+02,3.142085e+03
6.103613e+02,3.134423e+03
6.132540e+02,3.123383e+03
6.161467e+02,3.110641e+03
6.190394e+02,3.124807e+03
6.219321e+02,3.128243e+03
6.248248e+02,3.124912e+03
6.277175e+02,3.120599e+03
6.306102e+02,3.115216e+03
6.335029e+02,3.122440e+03
6.363956e+02,3.119506e+03
6.392883e+02,3.118530e+03
6.421810e+02,3.115803e+03
6.450737e+02,3.103856e+03
6.479664e+02,3.107943e+03
6.508591e+02,3.096784e+03
6.537518e+02,3.092528e+03
6.566445e+02,3.077763e+03
6.595372e+02,3.100797e+03
6.624299e+02,3.090137e+03
6.653226e+02,3.086980e+03
6.682153e+02,3.097931e+03
6.711080e+02,3.112026e+03
6.740007e+02,3.119880e+03
6.768934e+02,3.183323e+03
6.797861e+02,3.214008e+03
6.826788e+02,3.209239e+03
6.855715e+02,3.154519e+03
6.884642e+02,3.113213e+03
6.913569e+02,3.100514e+03
6.942496e+02,3.104600e+03
6.971423e+02,3.082781e+03
7.000350e+02,3.107031e+03
7.029277e+02,3.091017e+03
7.058204e+02,3.075230e+03
7.087131e+02,3.049098e+03
7.116058e+02,3.061276e+03
7.144985e+02,3.052496e+03
7.173912e+02,3.038968e+03
7.202839e+02,3.061011e+03
7.231766e+02,3.040715e+03
7.260693e+02,3.043928e+03
7.289620e+02,3.053589e+03
7.318547e+02,3.076496e+03
7.347474e+02,3.114522e+03
7.376401e+02,3.137052e+03
7.405328e+02,3.097244e+03
7.434255e+02,3.055360e+03
7.463182e+02,3.038896e+03
7.492109e+02,3.030281e+03
7.521036e+02,2.996811e+03
7.549963e+02,3.015652e+03
7.578890e+02,2.985435e+03
7.607817e+02,3.010271e+03
7.636744e+02,3.010686e+03
7.665671e+02,3.035889e+03
7.694598e+02,3.065279e+03
7.723525e+02,3.055672e+03
7.752452e+02,3.051889e+03
7.781379e+02,3.006329e+03
7.810306e+02,2.980962e+03
7.839233e+02,2.964998e+03
7.868160e+02,2.970036e+03
7.897087e+02,2.968858e+03
7.926014e+02,2.946007e+03
7.954941e+02,2.952072e+03
7.983868e+02,2.940183e+03
8.012795e+02,2.943897e+03
8.041722e+02,2.951039e+03
8.070649e+02,2.938245e+03
8.099576e+02,2.963337e+03
8.128503e+02,2.938360e+03
8.157430e+02,2.927488e+03
8.186357e+02,2.926853e+03
8.215284e+02,2.912777e+03
8.244211e+02,2.912865e+03
8.273138e+02,2.919577e+03
8.302065e+02,2.892764e+03
8.330992e+02,2.891980e+03
8.359919e+02,2.886058e+03
8.388846e+02,2.883467e+03
8.417773e+02,2.885570e+03
8.446700e+02,2.887612e+03
8.475627e+02,2.878970e+03
8.504554e+02,2.868583e+03
8.533481e+02,2.873827e+03
8.562408e+02,2.865958e+03
8.591335e+02,2.861214e+03
8.620262e+02,2.846720e+03
8.649189e+02,2.859376e+03
8.678116e+02,2.839987e+03
8.707043e+02,2.863042e+03
8.735970e+02,2.841954e+03
8.764897e+02,2.846921e+03
8.793824e+02,2.849272e+03
8.822751e+02,2.835094e+03
8.851678e+02,2.854406e+03
8.880605e+02,2.830569e+03
8.909532e+02,2.832260e+03
8.938459e+02,2.810199e+03
8.967386e+02,2.824532e+03
8.996313e+02,2.819235e+03
9.025240e+02,2.807115e+03
9.054167e+02,2.797145e+03
9.083094e+02,2.803658e+03
9.112021e+02,2.795026e+03
9.140948e+02,2.791511e+03
9.169875e+02,2.778643e+03
9.198802e+02,2.781141e+03
9.227729e+02,2.754328e+03
9.256656e+02,2.797789e+03
9.285583e+02,2.774199e+03
9.314510e+02,2.768913e+03
9.343438e+02,2.765035e+03
9.372365e+02,2.756099e+03
9.401292e+02,2.762347e+03
9.430219e+02,2.754889e+03
9.459146e+02,2.745762e+03
9.488073e+02,2.769302e+03
9.517000e+02,2.765871e+03
9.545927e+02,2.743692e+03
9.574854e+02,2.748182e+03
9.603781e+02,2.754811e+03
9.632708e+02,2.761405e+03
9.661635e+02,2.725621e+03
9.690562e+02,2.723296e+03
9.719489e+02,2.732147e+03
9.748416e+02,2.725517e+03
9.777343e+02,2.730760e+03
9.806270e+02,2.719428e+03
9.835197e+02,2.689198e+03
9.864124e+02,2.702905e+03
9.893051e+02,2.693452e+03
9.921978e+02,2.700347e+03
9.950905e+02,2.713749e+03
9.979832e+02,2.698613e+03
1.000876e+03,2.673622e+03
1.003769e+03,2.687492e+03
1.006661e+03,2.676305e+03
1.009554e+03,2.686737e+03
1.012447e+03,2.678848e+03
1.015339e+03,2.671288e+03
1.018232e+03,2.676129e+03
1.021125e+03,2.665209e+03
1.024017e+03,2.676509e+03
1.026910e+03,2.670748e+03
1.029803e+03,2.675431e+03
1.032696e+03,2.657647e+03
1.035588e+03,2.660940e+03
1.038481e+03,2.666704e+03
1.041374e+03,2.651323e+03
1.044266e+03,2.663534e+03
1.047159e+03,2.655666e+03
1.050052e+03,2.657134e+03
1.052944e+03,2.657259e+03
1.055837e+03,2.639992e+03
1.058730e+03,2.655220e+03
1.061623e+03,2.644122e+03
1.064515e+03,2.639189e+03
1.067408e+03,2.634716e+03
1.070301e+03,2.636578e+03
1.073193e+03,2.640917e+03
1.076086e+03,2.643253e+03
1.078979e+03,2.651164e+03
1.081871e+03,2.650650e+03
1.084764e+03,2.643723e+03
1.087657e+03,2.650298e+03
1.090550e+03,2.643499e+03
1.093442e+03,2.633401e+03
1.096335e+03,2.647166e+03
1.099228e+03,2.631031e+03
1.102120e+03,2.639255e+03
1.105013e+03,2.622802e+03
1.107906e+03,2.620837e+03
1.110798e+03,2.604185e+03
1.113691e+03,2.620693e+03
1.116584e+03,2.617718e+03
1.119477e+03,2.610353e+03
1.122369e+03,2.607641e+03
1.125262e+03,2.599243e+03
1.128155e+03,2.597574e+03
1.131047e+03,2.605428e+03
1.133940e+03,2.595821e+03
1.136833e+03,2.595148e+03
1.139725e+03,2.594852e+03
1.142618e+03,2.589934e+03
1.145511e+03,2.592520e+03
1.148404e+03,2.586128e+03
1.151296e+03,2.603865e+03
1.154189e+03,2.572110e+03
1.157082e+03,2.575520e+03
1.159974e+03,2.583358e+03
1.162867e+03,2.592683e+03
1.165760e+03,2.563697e+03
1.168652e+03,2.563251e+03
1.171545e+03,2.563800e+03
1.174438e+03,2.555698e+03
1.177331e+03,2.564851e+03
1.180223e+03,2.582382e+03
1.183116e+03,2.579337e+03
1.186009e+03,2.572906e+03
1.188901e+03,2.580441e+03
1.191794e+03,2.581209e+03
1.194687e+03,2.592943e+03
1.197579e+03,2.616906e+03
1.200472e+03,2.633256e+03
1.203365e+03,2.651038e+03
1.206258e+03,2.681471e+03
1.209150e+03,2.673403e+03
1.212043e+03,2.639846e+03
1.214936e+03,2.598426e+03
1.217828e+03,2.560918e+03
1.220721e+03,2.562124e+03
1.223614e+03,2.557006e+03
1.226506e+03,2.536109e+03
1.229399e+03,2.535957e+03
1.232292e+03,2.521073e+03
1.235185e+03,2.526439e+03
1.238077e+03,2.525820e+03
1.240970e+03,2.530392e+03
1.243863e+03,2.534563e+03
1.246755e+03,2.532219e+03
1.249648e+03,2.514225e+03
1.252541e+03,2.527652e+03
1.255433e+03,2.530798e+03
1.258326e+03,2.537909e+03
1.261219e+03,2.548318e+03
1.264112e+03,2.553451e+03
1.267004e+03,2.567618e+03
1.269897e+03,2.616735e+03
1.272790e+03,2.662215e+03
1.275682e+03,2.670163e+03
1.278575e+03,2.666491e+03
1.281468e+03,2.658542e+03
1.284360e+03,2.640363e+03
1.287253e+03,2.621382e+03
1.290146e+03,2.601507e+03
1.293039e+03,2.570230e+03
1.295931e+03,2.563558e+03
1.298824e+03,2.554231e+03
1.301717e+03,2.529127e+03
1.304609e+03,2.545198e+03
1.307502e+03,2.534182e+03
1.310395e+03,2.516822e+03
1.313287e+03,2.529130e+03
1.316180e+03,2.521355e+03
1.319073e+03,2.533982e+03
1.321966e+03,2.543296e+03
1.324858e+03,2.554775e+03
1.327751e+03,2.569950e+03
1.330644e+03,2.605671e+03
1.333536e+03,2.617009e+03
1.336429e+03,2.607457e+03
1.339322e+03,2.573457e+03
1.342214e+03,2.540063e+03
1.345107e+03,2.529397e+03
1.348000e+03,2.501122e+03
1.350893e+03,2.495323e+03
1.353785e+03,2.493974e+03
1.356678e+03,2.494026e+03
1.359571e+03,2.474198e+03
1.362463e+03,2.465788e+03
1.365356e+03,2.476227e+03
1.368249e+03,2.463550e+03
1.371141e+03,2.466581e+03
1.374034e+03,2.456120e+03
1.376927e+03,2.455326e+03
1.379820e+03,2.463202e+03
1.382712e+03,2.471991e+03
1.385605e+03,2.467352e+03
1.388498e+03,2.444236e+03
1.391390e+03,2.430244e+03
1.394283e+03,2.434595e+03
1.397176e+03,2.442679e+03
1.400068e+03,2.437528e+03
1.402961e+03,2.429887e+03
1.405854e+03,2.429421e+03
1.408747e+03,2.424761e+03
1.411639e+03,2.416865e+03
1.414532e+03,2.423866e+03
1.417425e+03,2.428027e+03
1.420317e+03,2.425290e+03
1.423210e+03,2.418090e+03
1.426103e+03,2.414194e+03
1.428995e+03,2.411998e+03
1.431888e+03,2.426981e+03
1.434781e+03,2.426888e+03
1.437674e+03,2.423573e+03
1.440566e+03,2.432956e+03
1.443459e+03,2.422684e+03
1.446352e+03,2.415553e+03
1.449244e+03,2.415266e+03
1.452137e+03,2.410605e+03
1.455030e+03,2.411455e+03
1.457922e+03,2.414004e+03
1.460815e+03,2.386394e+03
1.463708e+03,2.407943e+03
1.466601e+03,2.402594e+03
1.469493e+03,2.394668e+03
1.472386e+03,2.395658e+03
1.475279e+03,2.380174e+03
1.478171e+03,2.387040e+03
1.481064e+03,2.398393e+03
1.483957e+03,2.387571e+03
1.486849e+03,2.386055e+03
1.489742e+03,2.399768e+03
1.492635e+03,2.397346e+03
1.495528e+03,2.397621e+03
1.498420e+03,2.402716e+03
1.501313e+03,2.410162e+03
1.504206e+03,2.408088e+03
1.507098e+03,2.415097e+03
1.509991e+03,2.422647e+03
1.512884e+03,2.423743e+03
1.515776e+03,2.458633e+03
1.518669e+03,2.512319e+03
1.521562e+03,2.562810e+03
1.524455e+03,2.641440e+03
1.527347e+03,2.715117e+03
1.530240e+03,2.800004e+03
1.533133e+03,2.746887e+03
1.536025e+03,2.641150e+03
1.538918e+03,2.545874e+03
1.541811e+03,2.490819e+03
1.544703e+03,2.458475e+03
1.547596e+03,2.454638e+03
1.550489e+03,2.428452e+03
1.553382e+03,2.413817e+03
1.556274e+03,2.385080e+03
1.559167e+03,2.385108e+03
1.562060e+03,2.369287e+03
1.564952e+03,2.368752e+03
1.567845e+03,2.367146e+03
1.570738e+03,2.357169e+03
1.573630e+03,2.340075e+03
1.576523e+03,2.329462e+03
1.579416e+03,2.332778e+03
1.582309e+03,2.323610e+03
1.585201e+03,2.320830e+03
1.588094e+03,2.311653e+03
1.590987e+03,2.326428e+03
1.593879e+03,2.311308e+03
1.596772e+03,2.336159e+03
1.599665e+03,2.313239e+03
1.602557e+03,2.299684e+03
1.605450e+03,2.312155e+03
1.608343e+03,2.291969e+03
1.611236e+03,2.292362e+03
1.614128e+03,2.307128e+03
1.617021e+03,2.297628e+03
1.619914e+03,2.311707e+03
1.622806e+03,2.298844e+03
1.625699e+03,2.283030e+03
1.628592e+03,2.284844e+03
1.631484e+03,2.290183e+03
1.634377e+03,2.268005e+03
1.637270e+03,2.292017e+03
1.640163e+03,2.253800e+03
1.643055e+03,2.269413e+03
1.645948e+03,2.265711e+03
1.648841e+03,2.265653e+03
1.651733e+03,2.265719e+03
1.654626e+03,2.265338e+03
1.657519e+03,2.249421e+03
1.660411e+03,2.272311e+03
1.663304e+03,2.241454e+03
1.666197e+03,2.263632e+03
1.669090e+03,2.247167e+03
1.671982e+03,2.238763e+03
1.674875e+03,2.244496e+03
1.677768e+03,2.250963e+03
1.680660e+03,2.251456e+03
1.683553e+03,2.221083e+03
1.686446e+03,2.245432e+03
1.689339e+03,2.241234e+03
1.692231e+03,2.242010e+03
1.695124e+03,2.217258e+03
1.698017e+03,2.242688e+03
1.700909e+03,2.238511e+03
1.703802e+03,2.238495e+03
1.706695e+03,2.240127e+03
1.709587e+03,2.226597e+03
1.712480e+03,2.219668e+03
1.715373e+03,2.221147e+03
1.718266e+03,2.209094e+03
1.721158e+03,2.235094e+03
1.724051e+03,2.204967e+03
1.726944e+03,2.201468e+03
1.729836e+03,2.228902e+03
1.732729e+03,2.203862e+03
1.735622e+03,2.209081e+03
1.738514e+03,2.217308e+03
1.741407e+03,2.188386e+03
1.744300e+03,2.205756e+03
1.747193e+03,2.204631e+03
1.750085e+03,2.206655e+03
1.752978e+03,2.217612e+03
1.755871e+03,2.215156e+03
1.758763e+03,2.197203e+03
1.761656e+03,2.202289e+03
1.764549e+03,2.202680e+03
1.767441e+03,2.204957e+03
1.770334e+03,2.193906e+03
1.773227e+03,2.213761e+03
1.776120e+03,2.200508e+03
1.779012e+03,2.187359e+03
1.781905e+03,2.197599e+03
1.784798e+03,2.204757e+03
1.787690e+03,2.186557e+03
1.790583e+03,2.186269e+03
1.793476e+03,2.178459e+03
1.796368e+03,2.194627e+03
1.799261e+03,2.197438e+03
1.802154e+03,2.188142e+03
1.805047e+03,2.185971e+03
1.807939e+03,2.188564e+03
1.810832e+03,2.183041e+03
1.813725e+03,2.178641e+03
1.816617e+03,2.190645e+03
1.819510e+03,2.183827e+03
1.822403e+03,2.186552e+03
1.825295e+03,2.173695e+03
1.828188e+03,2.159920e+03
1.831081e+03,2.188637e+03
1.833974e+03,2.189416e+03
1.836866e+03,2.174946e+03
1.839759e+03,2.175136e+03
1.842652e+03,2.170813e+03
1.845544e+03,2.182176e+03
1.848437e+03,2.170321e+03
1.851330e+03,2.181585e+03
1.854222e+03,2.165507e+03
1.857115e+03,2.181368e+03
1.860008e+03,2.160132e+03
1.862901e+03,2.178840e+03
1.865793e+03,2.154911e+03
1.868686e+03,2.175198e+03
1.871579e+03,2.180480e+03
1.874471e+03,2.170844e+03
1.877364e+03,2.132349e+03
1.880257e+03,2.161451e+03
1.883149e+03,2.163660e+03
1.886042e+03,2.154221e+03
1.888935e+03,2.148561e+03
1.891828e+03,2.149214e+03
1.894720e+03,2.144488e+03
1.897613e+03,2.146675e+03
1.900506e+03,2.147323e+03
1.903398e+03,2.148002e+03
1.906291e+03,2.153914e+03
1.909184e+03,2.152424e+03
1.912076e+03,2.146161e+03
1.914969e+03,2.143757e+03
1.917862e+03,2.128655e+03
1.920755e+03,2.126818e+03
1.923647e+03,2.138617e+03
1.926540e+03,2.138668e+03
1.929433e+03,2.123503e+03
1.932325e+03,2.113548e+03
1.935218e+03,2.149504e+03
1.938111e+03,2.144354e+03
1.941003e+03,2.130013e+03
1.943896e+03,2.123179e+03
1.946789e+03,2.116391e+03
1.949682e+03,2.136596e+03
1.952574e+03,2.145785e+03
1.955467e+03,2.128280e+03
1.958360e+03,2.136983e+03
1.961252e+03,2.109941e+03
1.964145e+03,2.124077e+03
1.967038e+03,2.116957e+03
1.969930e+03,2.142045e+03
1.972823e+03,2.117013e+03
1.975716e+03,2.124867e+03
1.978609e+03,2.130007e+03
1.981501e+03,2.116741e+03
1.984394e+03,2.134827e+03
1.987287e+03,2.132693e+03
1.990179e+03,2.124613e+03
1.993072e+03,2.102754e+03
1.995965e+03,2.107385e+03
1.998857e+03,2.115837e+03
2.001750e+03,2.105185e+03
2.004643e+03,2.106399e+03
2.007536e+03,2.118503e+03
2.010428e+03,2.117876e+03
2.013321e+03,2.110866e+03
2.016214e+03,2.117471e+03
2.019106e+03,2.096591e+03
2.021999e+03,2.111957e+03
2.024892e+03,2.115582e+03
2.027784e+03,2.092393e+03
2.030677e+03,2.096243e+03
2.033570e+03,2.108010e+03
2.036463e+03,2.106553e+03
2.039355e+03,2.086529e+03
2.042248e+03,2.094114e+03
2.045141e+03,2.081284e+03
2.048033e+03,2.070281e+03
2.050926e+03,2.101517e+03
2.053819e+03,2.068831e+03
2.056711e+03,2.068302e+03
2.059604e+03,2.093025e+03
2.062497e+03,2.095645e+03
2.065390e+03,2.095204e+03
2.068282e+03,2.081018e+03
2.071175e+03,2.065750e+03
2.074068e+03,2.071514e+03
2.076960e+03,2.081187e+03
2.079853e+03,2.080146e+03
2.082746e+03,2.075581e+03
2.085638e+03,2.063573e+03
2.088531e+03,2.077166e+03
2.091424e+03,2.079782e+03
2.094316e+03,2.063545e+03
2.097209e+03,2.059503e+03
2.100102e+03,2.052199e+03
2.102995e+03,2.052483e+03
2.105887e+03,2.057841e+03
2.108780e+03,2.061114e+03
2.111673e+03,2.056154e+03
2.114565e+03,2.057252e+03
2.117458e+03,2.055932e+03
2.120351e+03,2.060366e+03
2.123244e+03,2.060681e+03
2.126136e+03,2.022705e+03
2.129029e+03,2.037286e+03
2.131922e+03,2.046764e+03
2.134814e+03,2.025257e+03
2.137707e+03,2.035629e+03
2.140600e+03,2.048815e+03
2.143492e+03,2.038418e+03
2.146385e+03,2.018973e+03
2.149278e+03,2.036029e+03
2.152170e+03,2.026922e+03
2.155063e+03,2.036975e+03
2.157956e+03,2.033965e+03
2.160849e+03,2.031002e+03
2.163741e+03,2.033039e+03
2.166634e+03,2.026122e+03
2.169527e+03,2.015897e+03
2.172419e+03,2.018325e+03
2.175312e+03,2.032506e+03
2.178205e+03,2.026720e+03
2.181098e+03,1.999816e+03
2.183990e+03,2.012849e+03
2.186883e+03,2.018855e+03
2.189776e+03,2.020516e+03
2.192668e+03,2.015359e+03
2.195561e+03,2.015113e+03
2.198454e+03,2.000398e+03
2.201346e+03,1.997270e+03
2.204239e+03,2.010741e+03
2.207132e+03,2.001813e+03
2.210024e+03,1.980695e+03
2.212917e+03,1.995293e+03
2.215810e+03,1.995178e+03
2.218703e+03,1.996015e+03
2.221595e+03,1.997235e+03
2.224488e+03,1.998769e+03
2.227381e+03,1.987861e+03
2.230273e+03,1.996392e+03
2.233166e+03,2.003359e+03
2.236059e+03,1.981110e+03
2.238952e+03,1.991783e+03
2.241844e+03,1.969210e+03
2.244737e+03,1.971922e+03
2.247630e+03,1.945145e+03
2.250522e+03,1.969572e+03
2.253415e+03,1.956931e+03
2.256308e+03,1.959552e+03
2.259200e+03,1.963224e+03
2.262093e+03,1.962238e+03
2.264986e+03,1.956213e+03
2.267879e+03,1.975279e+03
2.270771e+03,1.942751e+03
2.273664e+03,1.937992e+03
2.276557e+03,1.936157e+03
2.279449e+03,1.967006e+03
2.282342e+03,1.944693e+03
2.285235e+03,1.923028e+03
2.288127e+03,1.941598e+03
2.291020e+03,1.925892e+03
2.293913e+03,1.924018e+03
2.296805e+03,1.939062e+03
2.299698e+03,1.937809e+03
2.302591e+03,1.949714e+03
2.305484e+03,1.928554e+03
2.308376e+03,1.944027e+03
2.311269e+03,1.910804e+03
2.314162e+03,1.918029e+03
2.317054e+03,1.924024e+03
2.319947e+03,1.928442e+03
2.322840e+03,1.916670e+03
2.325733e+03,1.902078e+03
2.328625e+03,1.930349e+03
2.331518e+03,1.903231e+03
2.334411e+03,1.897038e+03
2.337303e+03,1.893466e+03
2.340196e+03,1.884644e+03
2.343089e+03,1.899516e+03
2.345981e+03,1.904950e+03
2.348874e+03,1.881382e+03
2.351767e+03,1.875250e+03
2.354659e+03,1.888077e+03
2.357552e+03,1.894087e+03
2.360445e+03,1.889900e+03
2.363338e+03,1.858131e+03
2.366230e+03,1.863467e+03
2.369123e+03,1.871317e+03
2.372016e+03,1.851326e+03
2.374908e+03,1.870072e+03
2.377801e+03,1.874261e+03
2.380694e+03,1.852495e+03
2.383587e+03,1.847769e+03
2.386479e+03,1.859245e+03
2.389372e+03,1.846618e+03
2.392265e+03,1.856052e+03
2.395157e+03,1.848567e+03
2.398050e+03,1.855570e+03
2.400943e+03,1.830557e+03
2.403835e+03,1.825094e+03
2.406728e+03,1.856585e+03
2.409621e+03,1.849404e+03
2.412513e+03,1.846765e+03
2.415406e+03,1.836156e+03
2.418299e+03,1.827008e+03
2.421192e+03,1.852603e+03
2.424084e+03,1.812517e+03
2.426977e+03,1.833831e+03
2.429870e+03,1.817759e+03
2.432762e+03,1.815829e+03
2.435655e+03,1.814785e+03
2.438548e+03,1.806431e+03
2.441441e+03,1.816990e+03
2.444333e+03,1.800833e+03
2.447226e+03,1.808987e+03
2.450119e+03,1.812215e+03
2.453011e+03,1.807123e+03
2.455904e+03,1.788424e+03
2.458797e+03,1.813546e+03
2.461689e+03,1.779299e+03
2.464582e+03,1.788041e+03
2.467475e+03,1.791934e+03
2.470367e+03,1.779613e+03
2.473260e+03,1.781738e+03
2.476153e+03,1.770740e+03
2.479046e+03,1.786491e+03
2.481938e+03,1.786883e+03
2.484831e+03,1.787350e+03
2.487724e+03,1.767637e+03
2.490616e+03,1.773795e+03
2.493509e+03,1.775350e+03
2.496402e+03,1.768398e+03
2.499295e+03,1.758230e+03
2.502187e+03,1.759318e+03
2.505080e+03,1.770158e+03
2.507973e+03,1.746578e+03
2.510865e+03,1.744544e+03
2.513758e+03,1.752862e+03
2.516651e+03,1.764550e+03
2.519543e+03,1.753485e+03
2.522436e+03,1.738772e+03
2.525329e+03,1.761127e+03
2.528221e+03,1.755494e+03
2.531114e+03,1.744497e+03
2.534007e+03,1.735943e+03
2.536900e+03,1.715615e+03
2.539792e+03,1.730964e+03
2.542685e+03,1.709687e+03
2.545578e+03,1.741267e+03
2.548470e+03,1.745715e+03
2.551363e+03,1.742735e+03
2.554256e+03,1.719887e+03
2.557149e+03,1.736594e+03
2.560041e+03,1.731595e+03
2.562934e+03,1.715839e+03
2.565827e+03,1.719540e+03
2.568719e+03,1.703344e+03
2.571612e+03,1.709707e+03
2.574505e+03,1.708948e+03
2.577397e+03,1.692846e+03
2.580290e+03,1.695261e+03
2.583183e+03,1.691695e+03
2.586075e+03,1.694768e+03
2.588968e+03,1.691363e+03
2.591861e+03,1.676491e+03
2.594754e+03,1.687997e+03
2.597646e+03,1.685617e+03
2.600539e+03,1.689725e+03
2.603432e+03,1.687836e+03
2.606324e+03,1.676691e+03
2.609217e+03,1.671455e+03
2.612110e+03,1.673795e+03
2.615003e+03,1.660604e+03
2.617895e+03,1.662429e+03
2.620788e+03,1.670234e+03
2.623681e+03,1.668930e+03
2.626573e+03,1.656235e+03
2.629466e+03,1.661792e+03
2.632359e+03,1.654050e+03
2.635251e+03,1.634475e+03
2.638144e+03,1.660267e+03
2.641037e+03,1.641720e+03
2.643929e+03,1.639494e+03
2.646822e+03,1.636205e+03
2.649715e+03,1.617154e+03
2.652608e+03,1.659520e+03
2.655500e+03,1.632773e+03
2.658393e+03,1.644979e+03
2.661286e+03,1.620186e+03
2.664178e+03,1.657211e+03
2.667071e+03,1.654013e+03
2.669964e+03,1.634286e+03
2.672857e+03,1.616661e+03
2.675749e+03,1.620638e+03
2.678642e+03,1.599895e+03
2.681535e+03,1.620766e+03
2.684427e+03,1.608484e+03
2.687320e+03,1.643577e+03
2.690213e+03,1.606264e+03
2.693105e+03,1.579942e+03
2.695998e+03,1.621010e+03
2.698891e+03,1.624645e+03
2.701783e+03,1.599364e+03
2.704676e+03,1.578502e+03
2.707569e+03,1.610726e+03
2.710462e+03,1.580708e+03
2.713354e+03,1.583005e+03
2.716247e+03,1.591236e+03
2.719140e+03,1.602506e+03
2.722032e+03,1.589075e+03
2.724925e+03,1.598606e+03
2.727818e+03,1.578923e+03
2.730711e+03,1.584255e+03
2.733603e+03,1.601999e+03
2.736496e+03,1.594834e+03
2.739389e+03,1.564670e+03
2.742281e+03,1.561158e+03
2.745174e+03,1.600716e+03
2.748067e+03,1.570728e+03
2.750959e+03,1.549907e+03
2.753852e+03,1.530212e+03
2.756745e+03,1.536983e+03
2.759637e+03,1.569510e+03
2.762530e+03,1.543310e+03
2.765423e+03,1.537859e+03
2.768316e+03,1.562223e+03
2.771208e+03,1.543948e+03
2.774101e+03,1.521693e+03
2.776994e+03,1.545445e+03
2.779886e+03,1.549445e+03
2.782779e+03,1.525004e+03
2.785672e+03,1.556229e+03
2.788565e+03,1.565256e+03
2.791457e+03,1.556572e+03
2.794350e+03,1.520567e+03
2.797243e+03,1.543035e+03
2.800135e+03,1.534664e+03
2.803028e+03,1.522940e+03
2.805921e+03,1.550301e+03
2.808813e+03,1.542961e+03
2.811706e+03,1.528177e+03
2.814599e+03,1.523011e+03
2.817491e+03,1.531814e+03
2.820384e+03,1.524682e+03
2.823277e+03,1.529993e+03
2.826170e+03,1.501059e+03
2.829062e+03,1.556313e+03
2.831955e+03,1.503216e+03
2.834848e+03,1.508910e+03
2.837740e+03,1.524020e+03
2.840633e+03,1.485819e+03
2.843526e+03,1.519819e+03
2.846419e+03,1.514384e+03
2.849311e+03,1.496844e+03
2.852204e+03,1.509837e+03
2.855097e+03,1.504772e+03
2.857990e+03,1.494881e+03
2.860882e+03,1.507361e+03
2.863775e+03,1.494827e+03
2.866667e+03,1.536743e+03
2.869560e+03,1.504466e+03
2.872453e+03,1.516837e+03
2.875345e+03,1.510356e+03
2.878238e+03,1.497332e+03
2.881131e+03,1.524215e+03
2.884024e+03,1.528510e+03
2.886916e+03,1.481010e+03
2.889809e+03,1.535079e+03
2.892702e+03,1.500029e+03
2.895594e+03,1.506416e+03
2.898487e+03,1.495325e+03
2.901380e+03,1.499155e+03
2.904273e+03,1.526270e+03
2.907165e+03,1.488369e+03
2.910058e+03,1.471393e+03
2.912951e+03,1.482689e+03
2.915844e+03,1.511635e+03
2.918736e+03,1.500934e+03
2.921629e+03,1.494007e+03
2.924521e+03,1.480516e+03
2.927414e+03,1.472173e+03
2.930307e+03,1.462831e+03
2.933199e+03,1.470572e+03
2.936092e+03,1.458619e+03
2.938985e+03,1.430162e+03
2.941878e+03,1.440966e+03
2.944770e+03,1.473189e+03
2.947663e+03,1.452413e+03
2.950556e+03,1.498828e+03
2.953448e+03,1.452724e+03
2.956341e+03,1.502135e+03
2.959234e+03,1.483338e+03
2.962127e+03,1.460631e+03
2.965019e+03,1.448420e+03
2.967912e+03,1.470030e+03
2.970805e+03,1.445697e+03
2.973698e+03,1.428215e+03
2.976590e+03,1.450063e+03
2.979483e+03,1.449581e+03
2.982375e+03,1.448091e+03
2.985268e+03,1.433369e+03
2.988161e+03,1.412398e+03
2.991053e+03,1.438264e+03
2.993946e+03,1.430070e+03
2.996839e+03,1.469731e+03
2.999732e+03,1.432884e+03
3.002624e+03,1.433415e+03
3.005517e+03,1.406533e+03
3.008410e+03,1.416700e+03
3.011302e+03,1.430672e+03
3.014195e+03,1.460940e+03
3.017088e+03,1.439727e+03
3.019981e+03,1.442958e+03
3.022873e+03,1.418854e+03
3.025766e+03,1.417328e+03
3.028659e+03,1.411777e+03
3.031552e+03,1.436073e+03
3.034444e+03,1.403842e+03
3.037337e+03,1.394627e+03
3.040229e+03,1.438093e+03
3.043122e+03,1.475427e+03
3.046015e+03,1.423709e+03
3.048907e+03,1.425359e+03
3.051800e+03,1.400325e+03
3.054693e+03,1.443090e+03
3.057586e+03,1.449713e+03
3.060478e+03,1.443499e+03
3.063371e+03,1.430597e+03
3.066264e+03,1.437651e+03
3.069156e+03,1.438241e+03
3.072049e+03,1.446218e+03
3.074942e+03,1.391376e+03
3.077835e+03,1.429822e+03
3.080727e+03,1.434070e+03
3.083620e+03,1.381665e+03
3.086513e+03,1.424559e+03
3.089406e+03,1.410380e+03
3.092298e+03,1.417989e+03
3.095191e+03,1.413165e+03
3.098083e+03,1.393310e+03
3.100976e+03,1.459050e+03
3.103869e+03,1.406364e+03
3.106761e+03,1.404611e+03
3.109654e+03,1.448521e+03
3.112547e+03,1.418977e+03
3.115440e+03,1.423027e+03
3.118332e+03,1.454640e+03
3.121225e+03,1.412457e+03
3.124118e+03,1.412577e+03
3.127010e+03,1.399208e+03
3.129903e+03,1.422338e+03
3.132796e+03,1.420835e+03
3.135689e+03,1.420915e+03
3.138581e+03,1.442525e+03
3.141474e+03,1.434400e+03
3.144367e+03,1.446556e+03
3.147260e+03,1.363920e+03
3.150152e+03,1.393923e+03
3.153045e+03,1.377605e+03
3.155938e+03,1.400609e+03
3.158830e+03,1.415069e+03
3.161723e+03,1.436458e+03
3.164615e+03,1.409305e+03
3.167508e+03,1.418643e+03
3.170401e+03,1.428681e+03
3.173294e+03,1.410631e+03
3.176186e+03,1.449642e+03
3.179079e+03,1.378763e+03
3.181972e+03,1.441465e+03
3.184865e+03,1.415668e+03
3.187757e+03,1.412127e+03
3.190650e+03,1.460846e+03
3.193543e+03,1.479848e+03
3.196435e+03,1.446437e+03
3.199328e+03,1.505875e+03
3.200292e+03,1.503208e+03