File: RAMAN_data/06022023_r1/green frag1.CSV
1.995979e+02,1.916116e+03
2.024906e+02,1.925526e+03
2.053833e+02,1.932789e+03
2.082760e+02,1.927790e+03
2.111687e+02,1.898690e+03
2.140614e+02,1.898972e+03
2.169541e+02,1.909657e+03
2.198468e+02,1.917713e+03
2.227395e+02,1.906435e+03
2.256322e+02,1.908715e+03
2.285249e+02,1.911405e+03
2.314176e+02,1.930605e+03
2.343103e+02,1.918653e+03
2.372030e+02,1.908161e+03
2.400957e+02,1.895820e+03
2.429884e+02,1.888633e+03
2.458811e+02,1.904373e+03
2.487738e+02,1.921286e+03
2.516665e+02,1.935116e+03
2.545592e+02,1.942299e+03
2.574519e+02,1.951088e+03
2.603446e+02,1.932500e+03
2.632373e+02,1.912581e+03
2.661300e+02,1.914535e+03
2.690227e+02,1.898544e+03
2.719154e+02,1.884100e+03
2.748081e+02,1.895531e+03
2.777008e+02,1.885576e+03
2.805935e+02,1.875196e+03
2.834862e+02,1.887807e+03
2.863789e+02,1.883204e+03
2.892716e+02,1.878218e+03
2.921643e+02,1.875837e+03
2.950570e+02,1.871469e+03
2.979497e+02,1.868318e+03
3.008424e+02,1.869341e+03
3.037351e+02,1.852468e+03
3.066278e+02,1.848556e+03
3.095205e+02,1.862437e+03
3.124132e+02,1.858017e+03
3.153059e+02,1.856196e+03
3.181986e+02,1.865734e+03
3.210913e+02,1.846077e+03
3.239840e+02,1.868580e+03
3.268767e+02,1.865483e+03
3.297694e+02,1.858611e+03
3.326621e+02,1.843550e+03
3.355548e+02,1.839129e+03
3.384475e+02,1.834081e+03
3.413402e+02,1.841729e+03
3.442329e+02,1.839385e+03
3.471256e+02,1.844572e+03
3.500183e+02,1.834135e+03
3.529110e+02,1.828109e+03
3.558037e+02,1.823709e+03
3.586964e+02,1.818971e+03
3.615891e+02,1.824422e+03
3.644818e+02,1.824316e+03
3.673745e+02,1.830331e+03
3.702672e+02,1.829426e+03
3.731599e+02,1.834454e+03
3.760526e+02,1.846814e+03
3.789453e+02,1.827018e+03
3.818380e+02,1.815732e+03
3.847307e+02,1.815031e+03
3.876234e+02,1.806890e+03
3.905161e+02,1.808642e+03
3.934088e+02,1.803257e+03
3.963015e+02,1.791499e+03
3.991942e+02,1.789688e+03
4.020869e+02,1.776034e+03
4.049796e+02,1.776637e+03
4.078723e+02,1.771685e+03
4.107650e+02,1.784133e+03
4.136577e+02,1.771894e+03
4.165504e+02,1.778849e+03
4.194431e+02,1.773592e+03
4.223358e+02,1.767387e+03
4.252285e+02,1.758913e+03
4.281212e+02,1.761116e+03
4.310139e+02,1.760392e+03
4.339066e+02,1.781786e+03
4.367993e+02,1.765420e+03
4.396920e+02,1.743255e+03
4.425847e+02,1.751661e+03
4.454774e+02,1.745855e+03
4.483701e+02,1.754464e+03
4.512628e+02,1.734357e+03
4.541555e+02,1.749689e+03
4.570482e+02,1.747819e+03
4.599409e+02,1.742638e+03
4.628336e+02,1.721555e+03
4.657263e+02,1.725833e+03
4.686190e+02,1.714294e+03
4.715117e+02,1.711162e+03
4.744044e+02,1.717979e+03
4.772971e+02,1.754734e+03
4.801898e+02,1.793601e+03
4.830825e+02,1.803950e+03
4.859752e+02,1.726424e+03
4.888679e+02,1.721945e+03
4.917606e+02,1.721597e+03
4.946533e+02,1.717023e+03
4.975460e+02,1.698477e+03
5.004387e+02,1.702878e+03
5.033314e+02,1.686959e+03
5.062241e+02,1.692155e+03
5.091168e+02,1.702642e+03
5.120095e+02,1.688246e+03
5.149022e+02,1.693034e+03
5.177949e+02,1.689750e+03
5.206876e+02,1.669979e+03
5.235803e+02,1.675448e+03
5.264730e+02,1.670273e+03
5.293657e+02,1.677747e+03
5.322584e+02,1.660426e+03
5.351511e+02,1.650790e+03
5.380438e+02,1.655347e+03
5.409365e+02,1.644288e+03
5.438292e+02,1.649349e+03
5.467219e+02,1.653497e+03
5.496146e+02,1.662799e+03
5.525073e+02,1.649311e+03
5.554000e+02,1.639662e+03
5.582927e+02,1.642410e+03
5.611854e+02,1.637207e+03
5.640781e+02,1.640833e+03
5.669708e+02,1.640957e+03
5.698635e+02,1.624203e+03
5.727562e+02,1.628609e+03
5.756489e+02,1.628408e+03
5.785416e+02,1.630566e+03
5.814343e+02,1.633570e+03
5.843270e+02,1.640236e+03
5.872197e+02,1.642869e+03
5.901124e+02,1.635091e+03
5.930051e+02,1.642803e+03
5.958978e+02,1.635861e+03
5.987905e+02,1.623382e+03
6.016832e+02,1.611627e+03
6.045759e+02,1.596332e+03
6.074686e+02,1.591068e+03
6.103613e+02,1.594072e+03
6.132540e+02,1.591880e+03
6.161467e+02,1.592547e+03
6.190394e+02,1.585837e+03
6.219321e+02,1.580790e+03
6.248248e+02,1.586389e+03
6.277175e+02,1.583246e+03
6.306102e+02,1.569452e+03
6.335029e+02,1.580017e+03
6.363956e+02,1.585383e+03
6.392883e+02,1.593673e+03
6.421810e+02,1.566821e+03
6.450737e+02,1.560088e+03
6.479664e+02,1.551320e+03
6.508591e+02,1.555942e+03
6.537518e+02,1.562362e+03
6.566445e+02,1.558537e+03
6.595372e+02,1.548979e+03
6.624299e+02,1.542563e+03
6.653226e+02,1.537744e+03
6.682153e+02,1.554819e+03
6.711080e+02,1.560070e+03
6.740007e+02,1.619474e+03
6.768934e+02,1.759621e+03
6.797861e+02,1.762864e+03
6.826788e+02,1.616008e+03
6.855715e+02,1.560413e+03
6.884642e+02,1.540806e+03
6.913569e+02,1.549216e+03
6.942496e+02,1.533029e+03
6.971423e+02,1.529303e+03
7.000350e+02,1.542064e+03
7.029277e+02,1.526813e+03
7.058204e+02,1.511140e+03
7.087131e+02,1.515583e+03
7.116058e+02,1.509671e+03
7.144985e+02,1.502141e+03
7.173912e+02,1.510020e+03
7.202839e+02,1.504936e+03
7.231766e+02,1.495133e+03
7.260693e+02,1.489283e+03
7.289620e+02,1.490498e+03
7.318547e+02,1.485837e+03
7.347474e+02,1.476700e+03
7.376401e+02,1.487525e+03
7.405328e+02,1.550538e+03
7.434255e+02,1.701287e+03
7.463182e+02,1.741146e+03
7.492109e+02,1.575357e+03
7.521036e+02,1.485648e+03
7.549963e+02,1.465660e+03
7.578890e+02,1.471224e+03
7.607817e+02,1.464478e+03
7.636744e+02,1.444188e+03
7.665671e+02,1.452611e+03
7.694598e+02,1.458173e+03
7.723525e+02,1.457780e+03
7.752452e+02,1.457775e+03
7.781379e+02,1.467999e+03
7.810306e+02,1.458020e+03
7.839233e+02,1.442385e+03
7.868160e+02,1.446922e+03
7.897087e+02,1.429919e+03
7.926014e+02,1.434489e+03
7.954941e+02,1.421355e+03
7.983868e+02,1.424678e+03
8.012795e+02,1.420615e+03
8.041722e+02,1.406687e+03
8.070649e+02,1.409001e+03
8.099576e+02,1.415047e+03
8.128503e+02,1.407938e+03
8.157430e+02,1.407921e+03
8.186357e+02,1.407385e+03
8.215284e+02,1.392025e+03
8.244211e+02,1.402389e+03
8.273138e+02,1.418878e+03
8.302065e+02,1.422465e+03
8.330992e+02,1.419923e+03
8.359919e+02,1.405500e+03
8.388846e+02,1.402789e+03
8.417773e+02,1.403228e+03
8.446700e+02,1.400413e+03
8.475627e+02,1.406127e+03
8.504554e+02,1.384506e+03
8.533481e+02,1.389048e+03
8.562408e+02,1.378155e+03
8.591335e+02,1.378215e+03
8.620262e+02,1.371645e+03
8.649189e+02,1.365984e+03
8.678116e+02,1.366897e+03
8.707043e+02,1.352233e+03
8.735970e+02,1.365667e+03
8.764897e+02,1.360647e+03
8.793824e+02,1.362490e+03
8.822751e+02,1.351618e+03
8.851678e+02,1.355479e+03
8.880605e+02,1.352909e+03
8.909532e+02,1.336486e+03
8.938459e+02,1.336987e+03
8.967386e+02,1.337856e+03
8.996313e+02,1.336255e+03
9.025240e+02,1.325294e+03
9.054167e+02,1.327705e+03
9.083094e+02,1.312218e+03
9.112021e+02,1.324699e+03
9.140948e+02,1.320753e+03
9.169875e+02,1.314898e+03
9.198802e+02,1.308222e+03
9.227729e+02,1.319962e+03
9.256656e+02,1.311865e+03
9.285583e+02,1.298194e+03
9.314510e+02,1.312683e+03
9.343438e+02,1.290343e+03
9.372365e+02,1.293158e+03
9.401292e+02,1.287365e+03
9.430219e+02,1.291336e+03
9.459146e+02,1.296164e+03
9.488073e+02,1.346779e+03
9.517000e+02,1.360562e+03
9.545927e+02,1.343137e+03
9.574854e+02,1.284110e+03
9.603781e+02,1.280461e+03
9.632708e+02,1.275252e+03
9.661635e+02,1.276357e+03
9.690562e+02,1.270486e+03
9.719489e+02,1.260980e+03
9.748416e+02,1.264783e+03
9.777343e+02,1.257845e+03
9.806270e+02,1.264993e+03
9.835197e+02,1.244556e+03
9.864124e+02,1.243340e+03
9.893051e+02,1.247329e+03
9.921978e+02,1.249206e+03
9.950905e+02,1.250218e+03
9.979832e+02,1.249553e+03
1.000876e+03,1.245213e+03
1.003769e+03,1.248505e+03
1.006661e+03,1.244425e+03
1.009554e+03,1.252593e+03
1.012447e+03,1.235851e+03
1.015339e+03,1.231474e+03
1.018232e+03,1.227021e+03
1.021125e+03,1.229240e+03
1.024017e+03,1.239923e+03
1.026910e+03,1.231191e+03
1.029803e+03,1.225672e+03
1.032696e+03,1.224232e+03
1.035588e+03,1.217803e+03
1.038481e+03,1.214606e+03
1.041374e+03,1.219419e+03
1.044266e+03,1.210331e+03
1.047159e+03,1.212886e+03
1.050052e+03,1.203039e+03
1.052944e+03,1.210042e+03
1.055837e+03,1.203278e+03
1.058730e+03,1.205882e+03
1.061623e+03,1.206897e+03
1.064515e+03,1.201359e+03
1.067408e+03,1.200771e+03
1.070301e+03,1.204550e+03
1.073193e+03,1.195318e+03
1.076086e+03,1.189694e+03
1.078979e+03,1.201622e+03
1.081871e+03,1.197617e+03
1.084764e+03,1.204222e+03
1.087657e+03,1.213469e+03
1.090550e+03,1.227636e+03
1.093442e+03,1.218312e+03
1.096335e+03,1.215250e+03
1.099228e+03,1.201140e+03
1.102120e+03,1.201664e+03
1.105013e+03,1.239986e+03
1.107906e+03,1.246236e+03
1.110798e+03,1.227752e+03
1.113691e+03,1.206972e+03
1.116584e+03,1.202266e+03
1.119477e+03,1.200299e+03
1.122369e+03,1.199695e+03
1.125262e+03,1.202507e+03
1.128155e+03,1.196893e+03
1.131047e+03,1.189195e+03
1.133940e+03,1.186548e+03
1.136833e+03,1.219588e+03
1.139725e+03,1.264341e+03
1.142618e+03,1.283883e+03
1.145511e+03,1.230843e+03
1.148404e+03,1.185557e+03
1.151296e+03,1.165935e+03
1.154189e+03,1.163040e+03
1.157082e+03,1.149764e+03
1.159974e+03,1.147076e+03
1.162867e+03,1.141137e+03
1.165760e+03,1.135879e+03
1.168652e+03,1.136086e+03
1.171545e+03,1.123206e+03
1.174438e+03,1.125463e+03
1.177331e+03,1.127915e+03
1.180223e+03,1.140521e+03
1.183116e+03,1.164017e+03
1.186009e+03,1.146105e+03
1.188901e+03,1.148027e+03
1.191794e+03,1.147398e+03
1.194687e+03,1.150642e+03
1.197579e+03,1.154878e+03
1.200472e+03,1.128702e+03
1.203365e+03,1.135613e+03
1.206258e+03,1.140020e+03
1.209150e+03,1.143297e+03
1.212043e+03,1.142737e+03
1.214936e+03,1.138773e+03
1.217828e+03,1.130976e+03
1.220721e+03,1.117137e+03
1.223614e+03,1.105614e+03
1.226506e+03,1.081230e+03
1.229399e+03,1.092762e+03
1.232292e+03,1.084831e+03
1.235185e+03,1.071374e+03
1.238077e+03,1.075349e+03
1.240970e+03,1.076135e+03
1.243863e+03,1.072143e+03
1.246755e+03,1.068164e+03
1.249648e+03,1.066400e+03
1.252541e+03,1.072815e+03
1.255433e+03,1.061947e+03
1.258326e+03,1.069038e+03
1.261219e+03,1.062158e+03
1.264112e+03,1.063115e+03
1.267004e+03,1.058672e+03
1.269897e+03,1.058343e+03
1.272790e+03,1.053277e+03
1.275682e+03,1.064466e+03
1.278575e+03,1.054487e+03
1.281468e+03,1.047452e+03
1.284360e+03,1.050165e+03
1.287253e+03,1.065057e+03
1.290146e+03,1.065233e+03
1.293039e+03,1.067261e+03
1.295931e+03,1.067182e+03
1.298824e+03,1.076066e+03
1.301717e+03,1.100343e+03
1.304609e+03,1.108655e+03
1.307502e+03,1.112756e+03
1.310395e+03,1.086780e+03
1.313287e+03,1.066425e+03
1.316180e+03,1.064389e+03
1.319073e+03,1.070224e+03
1.321966e+03,1.071797e+03
1.324858e+03,1.073462e+03
1.327751e+03,1.077238e+03
1.330644e+03,1.098481e+03
1.333536e+03,1.163639e+03
1.336429e+03,1.264158e+03
1.339322e+03,1.355055e+03
1.342214e+03,1.292594e+03
1.345107e+03,1.159399e+03
1.348000e+03,1.070795e+03
1.350893e+03,1.043833e+03
1.353785e+03,1.039082e+03
1.356678e+03,1.035682e+03
1.359571e+03,1.027307e+03
1.362463e+03,1.035376e+03
1.365356e+03,1.031039e+03
1.368249e+03,1.038263e+03
1.371141e+03,1.038104e+03
1.374034e+03,1.031720e+03
1.376927e+03,1.025220e+03
1.379820e+03,1.023797e+03
1.382712e+03,1.005490e+03
1.385605e+03,1.009919e+03
1.388498e+03,9.982262e+02
1.391390e+03,9.952998e+02
1.394283e+03,9.897370e+02
1.397176e+03,9.876758e+02
1.400068e+03,9.938175e+02
1.402961e+03,9.901649e+02
1.405854e+03,9.878961e+02
1.408747e+03,9.850245e+02
1.411639e+03,9.905735e+02
1.414532e+03,9.842877e+02
1.417425e+03,9.883334e+02
1.420317e+03,9.757500e+02
1.423210e+03,9.896546e+02
1.426103e+03,9.987644e+02
1.428995e+03,9.854263e+02
1.431888e+03,9.794159e+02
1.434781e+03,9.791721e+02
1.437674e+03,9.882099e+02
1.440566e+03,1.000955e+03
1.443459e+03,1.013554e+03
1.446352e+03,1.067067e+03
1.449244e+03,1.127549e+03
1.452137e+03,1.089035e+03
1.455030e+03,1.023919e+03
1.457922e+03,1.010961e+03
1.460815e+03,1.011171e+03
1.463708e+03,1.003573e+03
1.466601e+03,9.821839e+02
1.469493e+03,9.817892e+02
1.472386e+03,9.831140e+02
1.475279e+03,9.810447e+02
1.478171e+03,9.677089e+02
1.481064e+03,9.629695e+02
1.483957e+03,9.451707e+02
1.486849e+03,9.462854e+02
1.489742e+03,9.420828e+02
1.492635e+03,9.359646e+02
1.495528e+03,9.336658e+02
1.498420e+03,9.212970e+02
1.501313e+03,9.287393e+02
1.504206e+03,9.282521e+02
1.507098e+03,9.348304e+02
1.509991e+03,9.304858e+02
1.512884e+03,9.287037e+02
1.515776e+03,9.323768e+02
1.518669e+03,9.701054e+02
1.521562e+03,1.068111e+03
1.524455e+03,1.323960e+03
1.527347e+03,1.544864e+03
1.530240e+03,1.351389e+03
1.533133e+03,1.104268e+03
1.536025e+03,1.000984e+03
1.538918e+03,9.549014e+02
1.541811e+03,9.376196e+02
1.544703e+03,9.188455e+02
1.547596e+03,9.083819e+02
1.550489e+03,9.076030e+02
1.553382e+03,9.010633e+02
1.556274e+03,8.959156e+02
1.559167e+03,8.897091e+02
1.562060e+03,8.877067e+02
1.564952e+03,8.839034e+02
1.567845e+03,8.783945e+02
1.570738e+03,8.848362e+02
1.573630e+03,8.838016e+02
1.576523e+03,8.807138e+02
1.579416e+03,8.861509e+02
1.582309e+03,8.845091e+02
1.585201e+03,8.835788e+02
1.588094e+03,8.891373e+02
1.590987e+03,8.885693e+02
1.593879e+03,8.961771e+02
1.596772e+03,8.955834e+02
1.599665e+03,8.895431e+02
1.602557e+03,8.850085e+02
1.605450e+03,8.753694e+02
1.608343e+03,8.782073e+02
1.611236e+03,8.723082e+02
1.614128e+03,8.758522e+02
1.617021e+03,8.714335e+02
1.619914e+03,8.700323e+02
1.622806e+03,8.648638e+02
1.625699e+03,8.712272e+02
1.628592e+03,8.586506e+02
1.631484e+03,8.679538e+02
1.634377e+03,8.688352e+02
1.637270e+03,8.611321e+02
1.640163e+03,8.547811e+02
1.643055e+03,8.654310e+02
1.645948e+03,8.716600e+02
1.648841e+03,8.612395e+02
1.651733e+03,8.573026e+02
1.654626e+03,8.635229e+02
1.657519e+03,8.591620e+02
1.660411e+03,8.622664e+02
1.663304e+03,8.502496e+02
1.666197e+03,8.528210e+02
1.669090e+03,8.529874e+02
1.671982e+03,8.473769e+02
1.674875e+03,8.457216e+02
1.677768e+03,8.499803e+02
1.680660e+03,8.380592e+02
1.683553e+03,8.307327e+02
1.686446e+03,8.316195e+02
1.689339e+03,8.364967e+02
1.692231e+03,8.370140e+02
1.695124e+03,8.265109e+02
1.698017e+03,8.237742e+02
1.700909e+03,8.207236e+02
1.703802e+03,8.181059e+02
1.706695e+03,8.163053e+02
1.709587e+03,8.071686e+02
1.712480e+03,8.022467e+02
1.715373e+03,7.995197e+02
1.718266e+03,7.932773e+02
1.721158e+03,7.869709e+02
1.724051e+03,7.872483e+02
1.726944e+03,7.908378e+02
1.729836e+03,7.783996e+02
1.732729e+03,7.911186e+02
1.735622e+03,7.807581e+02
1.738514e+03,7.853577e+02
1.741407e+03,7.783903e+02
1.744300e+03,7.789257e+02
1.747193e+03,7.745176e+02
1.750085e+03,7.851468e+02
1.752978e+03,7.816458e+02
1.755871e+03,7.762867e+02
1.758763e+03,7.725851e+02
1.761656e+03,7.757910e+02
1.764549e+03,7.593328e+02
1.767441e+03,7.658541e+02
1.770334e+03,7.620234e+02
1.773227e+03,7.687474e+02
1.776120e+03,7.734407e+02
1.779012e+03,7.669296e+02
1.781905e+03,7.577575e+02
1.784798e+03,7.535534e+02
1.787690e+03,7.464803e+02
1.790583e+03,7.548155e+02
1.793476e+03,7.338696e+02
1.796368e+03,7.508936e+02
1.799261e+03,7.350584e+02
1.802154e+03,7.299121e+02
1.805047e+03,7.261095e+02
1.807939e+03,7.237695e+02
1.810832e+03,7.258467e+02
1.813725e+03,7.213469e+02
1.816617e+03,7.195107e+02
1.819510e+03,7.318557e+02
1.822403e+03,7.094176e+02
1.825295e+03,7.074948e+02
1.828188e+03,7.025037e+02
1.831081e+03,7.145435e+02
1.833974e+03,7.085710e+02
1.836866e+03,7.018768e+02
1.839759e+03,6.923506e+02
1.842652e+03,7.027322e+02
1.845544e+03,7.002960e+02
1.848437e+03,6.944283e+02
1.851330e+03,6.853635e+02
1.854222e+03,6.894359e+02
1.857115e+03,6.780358e+02
1.860008e+03,6.832598e+02
1.862901e+03,6.876023e+02
1.865793e+03,6.837806e+02
1.868686e+03,6.753008e+02
1.871579e+03,6.773101e+02
1.874471e+03,6.721833e+02
1.877364e+03,6.830040e+02
1.880257e+03,6.812108e+02
1.883149e+03,6.721155e+02
1.886042e+03,6.685779e+02
1.888935e+03,6.666985e+02
1.891828e+03,6.653575e+02
1.894720e+03,6.604054e+02
1.897613e+03,6.627328e+02
1.900506e+03,6.571165e+02
1.903398e+03,6.473625e+02
1.906291e+03,6.559327e+02
1.909184e+03,6.459157e+02
1.912076e+03,6.501504e+02
1.914969e+03,6.464700e+02
1.917862e+03,6.492214e+02
1.920755e+03,6.415878e+02
1.923647e+03,6.494747e+02
1.926540e+03,6.445793e+02
1.929433e+03,6.462363e+02
1.932325e+03,6.365784e+02
1.935218e+03,6.282067e+02
1.938111e+03,6.354197e+02
1.941003e+03,6.345109e+02
1.943896e+03,6.320927e+02
1.946789e+03,6.364769e+02
1.949682e+03,6.315957e+02
1.952574e+03,6.254648e+02
1.955467e+03,6.321870e+02
1.958360e+03,6.272935e+02
1.961252e+03,6.439886e+02
1.964145e+03,6.207060e+02
1.967038e+03,6.282363e+02
1.969930e+03,6.270879e+02
1.972823e+03,6.292545e+02
1.975716e+03,6.277265e+02
1.978609e+03,6.190188e+02
1.981501e+03,6.216525e+02
1.984394e+03,6.334387e+02
1.987287e+03,6.146448e+02
1.990179e+03,6.148282e+02
1.993072e+03,6.121449e+02
1.995965e+03,6.031303e+02
1.998857e+03,6.069260e+02
2.001750e+03,6.056677e+02
2.004643e+03,6.060986e+02
2.007536e+03,5.964529e+02
2.010428e+03,6.071733e+02
2.013321e+03,6.070333e+02
2.016214e+03,5.994282e+02
2.019106e+03,5.857678e+02
2.021999e+03,5.989494e+02
2.024892e+03,5.846524e+02
2.027784e+03,5.844333e+02
2.030677e+03,5.842828e+02
2.033570e+03,5.881593e+02
2.036463e+03,5.776413e+02
2.039355e+03,5.718936e+02
2.042248e+03,5.741584e+02
2.045141e+03,5.729537e+02
2.048033e+03,5.728446e+02
2.050926e+03,5.665867e+02
2.053819e+03,5.644167e+02
2.056711e+03,5.652789e+02
2.059604e+03,5.646331e+02
2.062497e+03,5.693002e+02
2.065390e+03,5.618781e+02
2.068282e+03,5.614843e+02
2.071175e+03,5.636345e+02
2.074068e+03,5.535784e+02
2.076960e+03,5.593285e+02
2.079853e+03,5.567089e+02
2.082746e+03,5.573080e+02
2.085638e+03,5.629596e+02
2.088531e+03,5.643464e+02
2.091424e+03,5.617050e+02
2.094316e+03,5.599732e+02
2.097209e+03,5.522137e+02
2.100102e+03,5.472211e+02
2.102995e+03,5.548705e+02
2.105887e+03,5.518698e+02
2.108780e+03,5.477712e+02
2.111673e+03,5.479176e+02
2.114565e+03,5.508244e+02
2.117458e+03,5.279039e+02
2.120351e+03,5.450495e+02
2.123244e+03,5.390688e+02
2.126136e+03,5.375628e+02
2.129029e+03,5.301480e+02
2.131922e+03,5.393404e+02
2.134814e+03,5.336360e+02
2.137707e+03,5.321262e+02
2.140600e+03,5.279830e+02
2.143492e+03,5.192725e+02
2.146385e+03,5.158571e+02
2.149278e+03,5.105087e+02
2.152170e+03,5.213078e+02
2.155063e+03,5.293367e+02
2.157956e+03,5.078979e+02
2.160849e+03,5.097993e+02
2.163741e+03,5.107321e+02
2.166634e+03,5.093222e+02
2.169527e+03,5.000336e+02
2.172419e+03,4.955512e+02
2.175312e+03,4.944936e+02
2.178205e+03,5.018208e+02
2.181098e+03,4.959390e+02
2.183990e+03,4.798802e+02
2.186883e+03,4.871204e+02
2.189776e+03,4.962852e+02
2.192668e+03,4.761431e+02
2.195561e+03,4.863458e+02
2.198454e+03,4.845008e+02
2.201346e+03,4.771751e+02
2.204239e+03,4.785783e+02
2.207132e+03,4.838755e+02
2.210024e+03,4.769420e+02
2.212917e+03,4.687403e+02
2.215810e+03,4.768098e+02
2.218703e+03,4.668634e+02
2.221595e+03,4.644262e+02
2.224488e+03,4.684355e+02
2.227381e+03,4.626455e+02
2.230273e+03,4.568280e+02
2.233166e+03,4.631812e+02
2.236059e+03,4.601986e+02
2.238952e+03,4.594376e+02
2.241844e+03,4.590071e+02
2.244737e+03,4.444896e+02
2.247630e+03,4.504166e+02
2.250522e+03,4.489338e+02
2.253415e+03,4.469173e+02
2.256308e+03,4.520264e+02
2.259200e+03,4.503198e+02
2.262093e+03,4.344750e+02
2.264986e+03,4.399288e+02
2.267879e+03,4.377784e+02
2.270771e+03,4.366452e+02
2.273664e+03,4.467749e+02
2.276557e+03,4.380959e+02
2.279449e+03,4.384553e+02
2.282342e+03,4.305405e+02
2.285235e+03,4.329021e+02
2.288127e+03,4.353460e+02
2.291020e+03,4.361766e+02
2.293913e+03,4.302912e+02
2.296805e+03,4.286762e+02
2.299698e+03,4.368120e+02
2.302591e+03,4.253101e+02
2.305484e+03,4.269276e+02
2.308376e+03,4.305424e+02
2.311269e+03,4.159556e+02
2.314162e+03,4.153017e+02
2.317054e+03,4.138737e+02
2.319947e+03,4.109586e+02
2.322840e+03,4.151358e+02
2.325733e+03,4.110794e+02
2.328625e+03,4.187111e+02
2.331518e+03,4.073324e+02
2.334411e+03,4.189136e+02
2.337303e+03,4.032291e+02
2.340196e+03,4.070792e+02
2.343089e+03,4.053808e+02
2.345981e+03,4.034649e+02
2.348874e+03,4.001352e+02
2.351767e+03,3.992746e+02
2.354659e+03,4.021129e+02
2.357552e+03,3.995341e+02
2.360445e+03,3.957646e+02
2.363338e+03,4.001041e+02
2.366230e+03,4.020306e+02
2.369123e+03,3.980449e+02
2.372016e+03,3.902968e+02
2.374908e+03,3.878663e+02
2.377801e+03,3.901013e+02
2.380694e+03,3.818644e+02
2.383587e+03,3.934161e+02
2.386479e+03,3.860674e+02
2.389372e+03,3.863795e+02
2.392265e+03,3.905494e+02
2.395157e+03,3.862047e+02
2.398050e+03,3.853428e+02
2.400943e+03,3.727334e+02
2.403835e+03,3.822325e+02
2.406728e+03,3.726334e+02
2.409621e+03,3.838659e+02
2.412513e+03,3.827751e+02
2.415406e+03,3.821948e+02
2.418299e+03,3.710979e+02
2.421192e+03,3.810347e+02
2.424084e+03,3.773644e+02
2.426977e+03,3.710691e+02
2.429870e+03,3.706999e+02
2.432762e+03,3.745802e+02
2.435655e+03,3.755782e+02
2.438548e+03,3.691825e+02
2.441441e+03,3.630717e+02
2.444333e+03,3.631357e+02
2.447226e+03,3.699976e+02
2.450119e+03,3.636021e+02
2.453011e+03,3.581915e+02
2.455904e+03,3.662476e+02
2.458797e+03,3.606055e+02
2.461689e+03,3.624962e+02
2.464582e+03,3.540931e+02
2.467475e+03,3.638902e+02
2.470367e+03,3.587967e+02
2.473260e+03,3.597505e+02
2.476153e+03,3.616934e+02
2.479046e+03,3.582601e+02
2.481938e+03,3.678105e+02
2.484831e+03,3.504223e+02
2.487724e+03,3.544432e+02
2.490616e+03,3.447259e+02
2.493509e+03,3.481731e+02
2.496402e+03,3.553143e+02
2.499295e+03,3.509461e+02
2.502187e+03,3.462405e+02
2.505080e+03,3.512231e+02
2.507973e+03,3.449745e+02
2.510865e+03,3.507172e+02
2.513758e+03,3.402087e+02
2.516651e+03,3.519083e+02
2.519543e+03,3.375375e+02
2.522436e+03,3.421066e+02
2.525329e+03,3.525501e+02
2.528221e+03,3.390960e+02
2.531114e+03,3.388742e+02
2.534007e+03,3.465599e+02
2.536900e+03,3.430295e+02
2.539792e+03,3.316810e+02
2.542685e+03,3.397731e+02
2.545578e+03,3.479077e+02
2.548470e+03,3.436400e+02
2.551363e+03,3.421159e+02
2.554256e+03,3.401001e+02
2.557149e+03,3.449400e+02
2.560041e+03,3.443037e+02
2.562934e+03,3.385687e+02
2.565827e+03,3.394907e+02
2.568719e+03,3.439533e+02
2.571612e+03,3.341674e+02
2.574505e+03,3.336320e+02
2.577397e+03,3.250786e+02
2.580290e+03,3.294228e+02
2.583183e+03,3.249452e+02
2.586075e+03,3.235930e+02
2.588968e+03,3.205087e+02
2.591861e+03,3.244996e+02
2.594754e+03,3.204922e+02
2.597646e+03,3.225581e+02
2.600539e+03,3.133647e+02
2.603432e+03,3.154196e+02
2.606324e+03,3.175589e+02
2.609217e+03,3.153387e+02
2.612110e+03,3.169096e+02
2.615003e+03,3.079401e+02
2.617895e+03,3.208251e+02
2.620788e+03,3.111299e+02
2.623681e+03,3.252579e+02
2.626573e+03,3.145970e+02
2.629466e+03,3.168604e+02
2.632359e+03,3.181544e+02
2.635251e+03,3.143479e+02
2.638144e+03,3.126515e+02
2.641037e+03,3.111835e+02
2.643929e+03,3.099071e+02
2.646822e+03,3.125974e+02
2.649715e+03,3.104970e+02
2.652608e+03,3.117364e+02
2.655500e+03,3.067411e+02
2.658393e+03,3.052826e+02
2.661286e+03,3.032635e+02
2.664178e+03,3.066588e+02
2.667071e+03,3.082759e+02
2.669964e+03,3.128753e+02
2.672857e+03,3.036908e+02
2.675749e+03,3.054120e+02
2.678642e+03,3.151588e+02
2.681535e+03,3.031556e+02
2.684427e+03,3.054209e+02
2.687320e+03,3.053571e+02
2.690213e+03,2.935405e+02
2.693105e+03,2.983222e+02
2.695998e+03,2.974936e+02
2.698891e+03,2.988363e+02
2.701783e+03,3.052025e+02
2.704676e+03,2.980151e+02
2.707569e+03,3.021686e+02
2.710462e+03,2.947236e+02
2.713354e+03,3.088401e+02
2.716247e+03,2.937055e+02
2.719140e+03,3.060734e+02
2.722032e+03,3.010775e+02
2.724925e+03,3.014446e+02
2.727818e+03,2.921358e+02
2.730711e+03,2.928198e+02
2.733603e+03,3.088152e+02
2.736496e+03,2.989261e+02
2.739389e+03,2.986615e+02
2.742281e+03,3.009019e+02
2.745174e+03,2.946953e+02
2.748067e+03,2.954555e+02
2.750959e+03,2.904932e+02
2.753852e+03,2.950425e+02
2.756745e+03,2.918803e+02
2.759637e+03,2.876203e+02
2.762530e+03,2.893714e+02
2.765423e+03,2.875096e+02
2.768316e+03,2.872164e+02
2.771208e+03,2.868195e+02
2.774101e+03,2.893600e+02
2.776994e+03,2.858805e+02
2.779886e+03,2.759111e+02
2.782779e+03,2.949770e+02
2.785672e+03,2.864988e+02
2.788565e+03,2.918250e+02
2.791457e+03,2.872339e+02
2.794350e+03,2.863861e+02
2.797243e+03,2.887119e+02
2.800135e+03,2.871560e+02
2.803028e+03,2.868939e+02
2.805921e+03,2.908373e+02
2.808813e+03,2.894565e+02
2.811706e+03,2.822450e+02
2.814599e+03,2.807347e+02
2.817491e+03,2.943612e+02
2.820384e+03,2.922525e+02
2.823277e+03,2.860843e+02
2.826170e+03,2.786073e+02
2.829062e+03,2.795438e+02
2.831955e+03,2.831640e+02
2.834848e+03,2.933839e+02
2.837740e+03,2.999765e+02
2.840633e+03,2.907192e+02
2.843526e+03,2.868202e+02
2.846419e+03,2.921067e+02
2.849311e+03,2.944147e+02
2.852204e+03,2.909718e+02
2.855097e+03,2.873700e+02
2.857990e+03,3.160682e+02
2.860882e+03,2.934354e+02
2.863775e+03,3.003037e+02
2.866667e+03,3.049470e+02
2.869560e+03,3.223377e+02
2.872453e+03,2.976388e+02
2.875345e+03,3.173276e+02
2.878238e+03,3.193076e+02
2.881131e+03,3.189918e+02
2.884024e+03,3.176108e+02
2.886916e+03,3.152133e+02
2.889809e+03,3.160325e+02
2.892702e+03,3.235166e+02
2.895594e+03,3.203653e+02
2.898487e+03,3.061708e+02
2.901380e+03,3.236579e+02
2.904273e+03,3.221409e+02
2.907165e+03,3.098373e+02
2.910058e+03,3.339649e+02
2.912951e+03,3.045339e+02
2.915844e+03,3.121676e+02
2.918736e+03,3.064159e+02
2.921629e+03,3.111847e+02
2.924521e+03,3.035084e+02
2.927414e+03,2.937559e+02
2.930307e+03,2.886164e+02
2.933199e+03,3.085973e+02
2.936092e+03,3.073255e+02
2.938985e+03,3.052219e+02
2.941878e+03,3.018771e+02
2.944770e+03,2.999508e+02
2.947663e+03,3.030777e+02
2.950556e+03,3.267791e+02
2.953448e+03,3.094092e+02
2.956341e+03,3.270146e+02
2.959234e+03,3.463796e+02
2.962127e+03,2.851535e+02
2.965019e+03,2.941396e+02
2.967912e+03,2.980697e+02
2.970805e+03,2.939224e+02
2.973698e+03,2.734326e+02
2.976590e+03,2.875587e+02
2.979483e+03,2.770104e+02
2.982375e+03,2.697540e+02
2.985268e+03,2.891135e+02
2.988161e+03,2.927430e+02
2.991053e+03,2.820582e+02
2.993946e+03,2.625312e+02
2.996839e+03,2.958315e+02
2.999732e+03,2.765898e+02
3.002624e+03,2.795309e+02
3.005517e+03,2.794557e+02
3.008410e+03,2.804283e+02
3.011302e+03,2.986235e+02
3.014195e+03,2.705446e+02
3.017088e+03,2.840854e+02
3.019981e+03,3.052464e+02
3.022873e+03,2.740458e+02
3.025766e+03,3.076539e+02
3.028659e+03,2.809574e+02
3.031552e+03,2.802451e+02
3.034444e+03,2.704693e+02
3.037337e+03,2.726475e+02
3.040229e+03,2.708317e+02
3.043122e+03,2.959897e+02
3.046015e+03,2.960254e+02
3.048907e+03,2.541146e+02
3.051800e+03,2.901539e+02
3.054693e+03,2.942810e+02
3.057586e+03,2.947815e+02
3.060478e+03,3.023287e+02
3.063371e+03,2.778058e+02
3.066264e+03,2.764425e+02
3.069156e+03,3.010762e+02
3.072049e+03,3.213997e+02
3.074942e+03,2.745948e+02
3.077835e+03,2.863211e+02
3.080727e+03,2.861681e+02
3.083620e+03,2.762583e+02
3.086513e+03,3.116874e+02
3.089406e+03,2.837362e+02
3.092298e+03,2.816752e+02
3.095191e+03,2.787669e+02
3.098083e+03,2.833366e+02
3.100976e+03,3.066485e+02
3.103869e+03,2.855295e+02
3.106761e+03,3.002546e+02
3.109654e+03,2.966051e+02
3.112547e+03,2.941625e+02
3.115440e+03,2.874297e+02
3.118332e+03,3.035762e+02
3.121225e+03,3.032485e+02
3.124118e+03,3.029923e+02
3.127010e+03,2.970488e+02
3.129903e+03,3.076710e+02
3.132796e+03,2.799810e+02
3.135689e+03,3.035907e+02
3.138581e+03,3.122426e+02
3.141474e+03,3.101521e+02
3.144367e+03,2.991499e+02
3.147260e+03,2.993151e+02
3.150152e+03,3.120570e+02
3.153045e+03,2.781405e+02
3.155938e+03,3.034820e+02
3.158830e+03,2.827517e+02
3.161723e+03,3.100195e+02
3.164615e+03,3.207432e+02
3.167508e+03,3.068667e+02
3.170401e+03,3.032829e+02
3.173294e+03,3.067342e+02
3.176186e+03,3.243352e+02
3.179079e+03,2.743547e+02
3.181972e+03,3.240411e+02
3.184865e+03,3.232080e+02
3.187757e+03,3.326771e+02
3.190650e+03,3.247990e+02
3.193543e+03,3.111252e+02
3.196435e+03,3.248136e+02
3.199328e+03,3.396395e+02
3.200292e+03,3.478990e+02