File: RAMAN_data/06022023_r1/red fibre1.CSV
1.995979e+02,6.192914e+03
2.024906e+02,6.210056e+03
2.053833e+02,6.229429e+03
2.082760e+02,6.236986e+03
2.111687e+02,6.206022e+03
2.140614e+02,6.249417e+03
2.169541e+02,6.270743e+03
2.198468e+02,6.260861e+03
2.227395e+02,6.276417e+03
2.256322e+02,6.266202e+03
2.285249e+02,6.275140e+03
2.314176e+02,6.284358e+03
2.343103e+02,6.319980e+03
2.372030e+02,6.333940e+03
2.400957e+02,6.326550e+03
2.429884e+02,6.329911e+03
2.458811e+02,6.319665e+03
2.487738e+02,6.309876e+03
2.516665e+02,6.350653e+03
2.545592e+02,6.327390e+03
2.574519e+02,6.349132e+03
2.603446e+02,6.357894e+03
2.632373e+02,6.365017e+03
2.661300e+02,6.373115e+03
2.690227e+02,6.393008e+03
2.719154e+02,6.396217e+03
2.748081e+02,6.379554e+03
2.777008e+02,6.407940e+03
2.805935e+02,6.409940e+03
2.834862e+02,6.430912e+03
2.863789e+02,6.432320e+03
2.892716e+02,6.434767e+03
2.921643e+02,6.432159e+03
2.950570e+02,6.421914e+03
2.979497e+02,6.431784e+03
3.008424e+02,6.434988e+03
3.037351e+02,6.424907e+03
3.066278e+02,6.428992e+03
3.095205e+02,6.436155e+03
3.124132e+02,6.463373e+03
3.153059e+02,6.458664e+03
3.181986e+02,6.442917e+03
3.210913e+02,6.462693e+03
3.239840e+02,6.450393e+03
3.268767e+02,6.477872e+03
3.297694e+02,6.503577e+03
3.326621e+02,6.466006e+03
3.355548e+02,6.463940e+03
3.384475e+02,6.458515e+03
3.413402e+02,6.492195e+03
3.442329e+02,6.488927e+03
3.471256e+02,6.513307e+03
3.500183e+02,6.468564e+03
3.529110e+02,6.475877e+03
3.558037e+02,6.502612e+03
3.586964e+02,6.477359e+03
3.615891e+02,6.498503e+03
3.644818e+02,6.481204e+03
3.673745e+02,6.465803e+03
3.702672e+02,6.503951e+03
3.731599e+02,6.524787e+03
3.760526e+02,6.532017e+03
3.789453e+02,6.498373e+03
3.818380e+02,6.492647e+03
3.847307e+02,6.488435e+03
3.876234e+02,6.500416e+03
3.905161e+02,6.495542e+03
3.934088e+02,6.481398e+03
3.963015e+02,6.490232e+03
3.991942e+02,6.485738e+03
4.020869e+02,6.473546e+03
4.049796e+02,6.506193e+03
4.078723e+02,6.485109e+03
4.107650e+02,6.463127e+03
4.136577e+02,6.475088e+03
4.165504e+02,6.479571e+03
4.194431e+02,6.490279e+03
4.223358e+02,6.474925e+03
4.252285e+02,6.474743e+03
4.281212e+02,6.448666e+03
4.310139e+02,6.461769e+03
4.339066e+02,6.478846e+03
4.367993e+02,6.460826e+03
4.396920e+02,6.446493e+03
4.425847e+02,6.451831e+03
4.454774e+02,6.460312e+03
4.483701e+02,6.466013e+03
4.512628e+02,6.483911e+03
4.541555e+02,6.445744e+03
4.570482e+02,6.428125e+03
4.599409e+02,6.425155e+03
4.628336e+02,6.435617e+03
4.657263e+02,6.424002e+03
4.686190e+02,6.418862e+03
4.715117e+02,6.416908e+03
4.744044e+02,6.396466e+03
4.772971e+02,6.392274e+03
4.801898e+02,6.410908e+03
4.830825e+02,6.397537e+03
4.859752e+02,6.392556e+03
4.888679e+02,6.399389e+03
4.917606e+02,6.417905e+03
4.946533e+02,6.409913e+03
4.975460e+02,6.389357e+03
5.004387e+02,6.389931e+03
5.033314e+02,6.360557e+03
5.062241e+02,6.388943e+03
5.091168e+02,6.372593e+03
5.120095e+02,6.364227e+03
5.149022e+02,6.376298e+03
5.177949e+02,6.400516e+03
5.206876e+02,6.355173e+03
5.235803e+02,6.336417e+03
5.264730e+02,6.350947e+03
5.293657e+02,6.345461e+03
5.322584e+02,6.324330e+03
5.351511e+02,6.327486e+03
5.380438e+02,6.320179e+03
5.409365e+02,6.317624e+03
5.438292e+02,6.324810e+03
5.467219e+02,6.329290e+03
5.496146e+02,6.302103e+03
5.525073e+02,6.271370e+03
5.554000e+02,6.284148e+03
5.582927e+02,6.289321e+03
5.611854e+02,6.284435e+03
5.640781e+02,6.307968e+03
5.669708e+02,6.260677e+03
5.698635e+02,6.227981e+03
5.727562e+02,6.261026e+03
5.756489e+02,6.271523e+03
5.785416e+02,6.246053e+03
5.814343e+02,6.253198e+03
5.843270e+02,6.243571e+03
5.872197e+02,6.190200e+03
5.901124e+02,6.201583e+03
5.930051e+02,6.232920e+03
5.958978e+02,6.233347e+03
5.987905e+02,6.215704e+03
6.016832e+02,6.214928e+03
6.045759e+02,6.229294e+03
6.074686e+02,6.216468e+03
6.103613e+02,6.204736e+03
6.132540e+02,6.176773e+03
6.161467e+02,6.174734e+03
6.190394e+02,6.164493e+03
6.219321e+02,6.142160e+03
6.248248e+02,6.145602e+03
6.277175e+02,6.139600e+03
6.306102e+02,6.137114e+03
6.335029e+02,6.138094e+03
6.363956e+02,6.115920e+03
6.392883e+02,6.092823e+03
6.421810e+02,6.091166e+03
6.450737e+02,6.116388e+03
6.479664e+02,6.076807e+03
6.508591e+02,6.105609e+03
6.537518e+02,6.073533e+03
6.566445e+02,6.077849e+03
6.595372e+02,6.054489e+03
6.624299e+02,6.062651e+03
6.653226e+02,6.044029e+03
6.682153e+02,6.043099e+03
6.711080e+02,6.043943e+03
6.740007e+02,6.022868e+03
6.768934e+02,6.017363e+03
6.797861e+02,6.002893e+03
6.826788e+02,6.000569e+03
6.855715e+02,5.981755e+03
6.884642e+02,5.980171e+03
6.913569e+02,5.967572e+03
6.942496e+02,5.961858e+03
6.971423e+02,5.948765e+03
7.000350e+02,5.965184e+03
7.029277e+02,5.933983e+03
7.058204e+02,5.939823e+03
7.087131e+02,5.939196e+03
7.116058e+02,5.921032e+03
7.144985e+02,5.894897e+03
7.173912e+02,5.885023e+03
7.202839e+02,5.880063e+03
7.231766e+02,5.875187e+03
7.260693e+02,5.867312e+03
7.289620e+02,5.854000e+03
7.318547e+02,5.837574e+03
7.347474e+02,5.869208e+03
7.376401e+02,5.824683e+03
7.405328e+02,5.793204e+03
7.434255e+02,5.796603e+03
7.463182e+02,5.815683e+03
7.492109e+02,5.798334e+03
7.521036e+02,5.783695e+03
7.549963e+02,5.770752e+03
7.578890e+02,5.774186e+03
7.607817e+02,5.780294e+03
7.636744e+02,5.764849e+03
7.665671e+02,5.737213e+03
7.694598e+02,5.744309e+03
7.723525e+02,5.722834e+03
7.752452e+02,5.723273e+03
7.781379e+02,5.731439e+03
7.810306e+02,5.703722e+03
7.839233e+02,5.696390e+03
7.868160e+02,5.690289e+03
7.897087e+02,5.677643e+03
7.926014e+02,5.673666e+03
7.954941e+02,5.655182e+03
7.983868e+02,5.645050e+03
8.012795e+02,5.635906e+03
8.041722e+02,5.633530e+03
8.070649e+02,5.658668e+03
8.099576e+02,5.618720e+03
8.128503e+02,5.598889e+03
8.157430e+02,5.595778e+03
8.186357e+02,5.605838e+03
8.215284e+02,5.572964e+03
8.244211e+02,5.578275e+03
8.273138e+02,5.573176e+03
8.302065e+02,5.539922e+03
8.330992e+02,5.561617e+03
8.359919e+02,5.549056e+03
8.388846e+02,5.548783e+03
8.417773e+02,5.568885e+03
8.446700e+02,5.537467e+03
8.475627e+02,5.502547e+03
8.504554e+02,5.503884e+03
8.533481e+02,5.502143e+03
8.562408e+02,5.492861e+03
8.591335e+02,5.475569e+03
8.620262e+02,5.471637e+03
8.649189e+02,5.458007e+03
8.678116e+02,5.461146e+03
8.707043e+02,5.444697e+03
8.735970e+02,5.439811e+03
8.764897e+02,5.423882e+03
8.793824e+02,5.428348e+03
8.822751e+02,5.400337e+03
8.851678e+02,5.410214e+03
8.880605e+02,5.405283e+03
8.909532e+02,5.393750e+03
8.938459e+02,5.355058e+03
8.967386e+02,5.345975e+03
8.996313e+02,5.364139e+03
9.025240e+02,5.350745e+03
9.054167e+02,5.343016e+03
9.083094e+02,5.329382e+03
9.112021e+02,5.329484e+03
9.140948e+02,5.308750e+03
9.169875e+02,5.308695e+03
9.198802e+02,5.263620e+03
9.227729e+02,5.280131e+03
9.256656e+02,5.266602e+03
9.285583e+02,5.264079e+03
9.314510e+02,5.226676e+03
9.343438e+02,5.238756e+03
9.372365e+02,5.221085e+03
9.401292e+02,5.188587e+03
9.430219e+02,5.208726e+03
9.459146e+02,5.222208e+03
9.488073e+02,5.196854e+03
9.517000e+02,5.163423e+03
9.545927e+02,5.172900e+03
9.574854e+02,5.162073e+03
9.603781e+02,5.158616e+03
9.632708e+02,5.180065e+03
9.661635e+02,5.147878e+03
9.690562e+02,5.121827e+03
9.719489e+02,5.119110e+03
9.748416e+02,5.118022e+03
9.777343e+02,5.110331e+03
9.806270e+02,5.099221e+03
9.835197e+02,5.056624e+03
9.864124e+02,5.064424e+03
9.893051e+02,5.065400e+03
9.921978e+02,5.071094e+03
9.950905e+02,5.080741e+03
9.979832e+02,5.050211e+03
1.000876e+03,5.019630e+03
1.003769e+03,5.019281e+03
1.006661e+03,5.029825e+03
1.009554e+03,5.010622e+03
1.012447e+03,5.004583e+03
1.015339e+03,4.968516e+03
1.018232e+03,4.950715e+03
1.021125e+03,4.979029e+03
1.024017e+03,4.966605e+03
1.026910e+03,4.964542e+03
1.029803e+03,4.942420e+03
1.032696e+03,4.929446e+03
1.035588e+03,4.955266e+03
1.038481e+03,4.955271e+03
1.041374e+03,4.935362e+03
1.044266e+03,4.906752e+03
1.047159e+03,4.910666e+03
1.050052e+03,4.885674e+03
1.052944e+03,4.922183e+03
1.055837e+03,4.893929e+03
1.058730e+03,4.887909e+03
1.061623e+03,4.860130e+03
1.064515e+03,4.848911e+03
1.067408e+03,4.866742e+03
1.070301e+03,4.850608e+03
1.073193e+03,4.846534e+03
1.076086e+03,4.842681e+03
1.078979e+03,4.825923e+03
1.081871e+03,4.862597e+03
1.084764e+03,4.843921e+03
1.087657e+03,4.857879e+03
1.090550e+03,4.854762e+03
1.093442e+03,4.824345e+03
1.096335e+03,4.798176e+03
1.099228e+03,4.795188e+03
1.102120e+03,4.785433e+03
1.105013e+03,4.784832e+03
1.107906e+03,4.772492e+03
1.110798e+03,4.747017e+03
1.113691e+03,4.760290e+03
1.116584e+03,4.750961e+03
1.119477e+03,4.757007e+03
1.122369e+03,4.736444e+03
1.125262e+03,4.718254e+03
1.128155e+03,4.717065e+03
1.131047e+03,4.700198e+03
1.133940e+03,4.712981e+03
1.136833e+03,4.687209e+03
1.139725e+03,4.662759e+03
1.142618e+03,4.645191e+03
1.145511e+03,4.664949e+03
1.148404e+03,4.669201e+03
1.151296e+03,4.671761e+03
1.154189e+03,4.662275e+03
1.157082e+03,4.622306e+03
1.159974e+03,4.620739e+03
1.162867e+03,4.612321e+03
1.165760e+03,4.625304e+03
1.168652e+03,4.601003e+03
1.171545e+03,4.586658e+03
1.174438e+03,4.566458e+03
1.177331e+03,4.582663e+03
1.180223e+03,4.565048e+03
1.183116e+03,4.557218e+03
1.186009e+03,4.553237e+03
1.188901e+03,4.549057e+03
1.191794e+03,4.548067e+03
1.194687e+03,4.528037e+03
1.197579e+03,4.561753e+03
1.200472e+03,4.538733e+03
1.203365e+03,4.515122e+03
1.206258e+03,4.497002e+03
1.209150e+03,4.518087e+03
1.212043e+03,4.501182e+03
1.214936e+03,4.501685e+03
1.217828e+03,4.468443e+03
1.220721e+03,4.469372e+03
1.223614e+03,4.483757e+03
1.226506e+03,4.472325e+03
1.229399e+03,4.469585e+03
1.232292e+03,4.446755e+03
1.235185e+03,4.432390e+03
1.238077e+03,4.435640e+03
1.240970e+03,4.438433e+03
1.243863e+03,4.438557e+03
1.246755e+03,4.418901e+03
1.249648e+03,4.393817e+03
1.252541e+03,4.394451e+03
1.255433e+03,4.396903e+03
1.258326e+03,4.404741e+03
1.261219e+03,4.397953e+03
1.264112e+03,4.369075e+03
1.267004e+03,4.391540e+03
1.269897e+03,4.384691e+03
1.272790e+03,4.378776e+03
1.275682e+03,4.365100e+03
1.278575e+03,4.375841e+03
1.281468e+03,4.347551e+03
1.284360e+03,4.343060e+03
1.287253e+03,4.336272e+03
1.290146e+03,4.347685e+03
1.293039e+03,4.347971e+03
1.295931e+03,4.312583e+03
1.298824e+03,4.310399e+03
1.301717e+03,4.289104e+03
1.304609e+03,4.323878e+03
1.307502e+03,4.298576e+03
1.310395e+03,4.276373e+03
1.313287e+03,4.281243e+03
1.316180e+03,4.270272e+03
1.319073e+03,4.295131e+03
1.321966e+03,4.275697e+03
1.324858e+03,4.243875e+03
1.327751e+03,4.261098e+03
1.330644e+03,4.244668e+03
1.333536e+03,4.258875e+03
1.336429e+03,4.256213e+03
1.339322e+03,4.257217e+03
1.342214e+03,4.207843e+03
1.345107e+03,4.228435e+03
1.348000e+03,4.227415e+03
1.350893e+03,4.190407e+03
1.353785e+03,4.217060e+03
1.356678e+03,4.191882e+03
1.359571e+03,4.197629e+03
1.362463e+03,4.200315e+03
1.365356e+03,4.190398e+03
1.368249e+03,4.182397e+03
1.371141e+03,4.163782e+03
1.374034e+03,4.170618e+03
1.376927e+03,4.152512e+03
1.379820e+03,4.157569e+03
1.382712e+03,4.126981e+03
1.385605e+03,4.134357e+03
1.388498e+03,4.122424e+03
1.391390e+03,4.116359e+03
1.394283e+03,4.110827e+03
1.397176e+03,4.098998e+03
1.400068e+03,4.120902e+03
1.402961e+03,4.104741e+03
1.405854e+03,4.092968e+03
1.408747e+03,4.076820e+03
1.411639e+03,4.069985e+03
1.414532e+03,4.064718e+03
1.417425e+03,4.069139e+03
1.420317e+03,4.054416e+03
1.423210e+03,4.034540e+03
1.426103e+03,4.053656e+03
1.428995e+03,4.047071e+03
1.431888e+03,4.039747e+03
1.434781e+03,4.016880e+03
1.437674e+03,4.024319e+03
1.440566e+03,4.018413e+03
1.443459e+03,4.021386e+03
1.446352e+03,4.005860e+03
1.449244e+03,3.992486e+03
1.452137e+03,3.995056e+03
1.455030e+03,3.987595e+03
1.457922e+03,3.988197e+03
1.460815e+03,3.977140e+03
1.463708e+03,3.988850e+03
1.466601e+03,3.972939e+03
1.469493e+03,3.963730e+03
1.472386e+03,3.947770e+03
1.475279e+03,3.939544e+03
1.478171e+03,3.934465e+03
1.481064e+03,3.940634e+03
1.483957e+03,3.925953e+03
1.486849e+03,3.932086e+03
1.489742e+03,3.926972e+03
1.492635e+03,3.881832e+03
1.495528e+03,3.906152e+03
1.498420e+03,3.891095e+03
1.501313e+03,3.885049e+03
1.504206e+03,3.890853e+03
1.507098e+03,3.901125e+03
1.509991e+03,3.873454e+03
1.512884e+03,3.862106e+03
1.515776e+03,3.847377e+03
1.518669e+03,3.840450e+03
1.521562e+03,3.846861e+03
1.524455e+03,3.831824e+03
1.527347e+03,3.836397e+03
1.530240e+03,3.824570e+03
1.533133e+03,3.818047e+03
1.536025e+03,3.809193e+03
1.538918e+03,3.804807e+03
1.541811e+03,3.799847e+03
1.544703e+03,3.788552e+03
1.547596e+03,3.773289e+03
1.550489e+03,3.802797e+03
1.553382e+03,3.776482e+03
1.556274e+03,3.781177e+03
1.559167e+03,3.776489e+03
1.562060e+03,3.767222e+03
1.564952e+03,3.758760e+03
1.567845e+03,3.758087e+03
1.570738e+03,3.751629e+03
1.573630e+03,3.743654e+03
1.576523e+03,3.746681e+03
1.579416e+03,3.727129e+03
1.582309e+03,3.726567e+03
1.585201e+03,3.693455e+03
1.588094e+03,3.683337e+03
1.590987e+03,3.703903e+03
1.593879e+03,3.703346e+03
1.596772e+03,3.696055e+03
1.599665e+03,3.682369e+03
1.602557e+03,3.667073e+03
1.605450e+03,3.665807e+03
1.608343e+03,3.655373e+03
1.611236e+03,3.650891e+03
1.614128e+03,3.658314e+03
1.617021e+03,3.667363e+03
1.619914e+03,3.641598e+03
1.622806e+03,3.628484e+03
1.625699e+03,3.631737e+03
1.628592e+03,3.603719e+03
1.631484e+03,3.596822e+03
1.634377e+03,3.611950e+03
1.637270e+03,3.575042e+03
1.640163e+03,3.578351e+03
1.643055e+03,3.576906e+03
1.645948e+03,3.582944e+03
1.648841e+03,3.541841e+03
1.651733e+03,3.545269e+03
1.654626e+03,3.523565e+03
1.657519e+03,3.538106e+03
1.660411e+03,3.537470e+03
1.663304e+03,3.531791e+03
1.666197e+03,3.529186e+03
1.669090e+03,3.517603e+03
1.671982e+03,3.485031e+03
1.674875e+03,3.501014e+03
1.677768e+03,3.476694e+03
1.680660e+03,3.478750e+03
1.683553e+03,3.477991e+03
1.686446e+03,3.462902e+03
1.689339e+03,3.463898e+03
1.692231e+03,3.463274e+03
1.695124e+03,3.434334e+03
1.698017e+03,3.441897e+03
1.700909e+03,3.439441e+03
1.703802e+03,3.434287e+03
1.706695e+03,3.421612e+03
1.709587e+03,3.423171e+03
1.712480e+03,3.417558e+03
1.715373e+03,3.391510e+03
1.718266e+03,3.382804e+03
1.721158e+03,3.393190e+03
1.724051e+03,3.380232e+03
1.726944e+03,3.376426e+03
1.729836e+03,3.383434e+03
1.732729e+03,3.354268e+03
1.735622e+03,3.366485e+03
1.738514e+03,3.346164e+03
1.741407e+03,3.337306e+03
1.744300e+03,3.328208e+03
1.747193e+03,3.318296e+03
1.750085e+03,3.310718e+03
1.752978e+03,3.306445e+03
1.755871e+03,3.308617e+03
1.758763e+03,3.299113e+03
1.761656e+03,3.290390e+03
1.764549e+03,3.276899e+03
1.767441e+03,3.272237e+03
1.770334e+03,3.253554e+03
1.773227e+03,3.261491e+03
1.776120e+03,3.253632e+03
1.779012e+03,3.247468e+03
1.781905e+03,3.231814e+03
1.784798e+03,3.235675e+03
1.787690e+03,3.228717e+03
1.790583e+03,3.197292e+03
1.793476e+03,3.202050e+03
1.796368e+03,3.203925e+03
1.799261e+03,3.188676e+03
1.802154e+03,3.208479e+03
1.805047e+03,3.174378e+03
1.807939e+03,3.166860e+03
1.810832e+03,3.171763e+03
1.813725e+03,3.166440e+03
1.816617e+03,3.175406e+03
1.819510e+03,3.164987e+03
1.822403e+03,3.130140e+03
1.825295e+03,3.134452e+03
1.828188e+03,3.124900e+03
1.831081e+03,3.116991e+03
1.833974e+03,3.108000e+03
1.836866e+03,3.109325e+03
1.839759e+03,3.090435e+03
1.842652e+03,3.107077e+03
1.845544e+03,3.083624e+03
1.848437e+03,3.087061e+03
1.851330e+03,3.081635e+03
1.854222e+03,3.052883e+03
1.857115e+03,3.069030e+03
1.860008e+03,3.044223e+03
1.862901e+03,3.031810e+03
1.865793e+03,3.021114e+03
1.868686e+03,3.027101e+03
1.871579e+03,3.003762e+03
1.874471e+03,3.006295e+03
1.877364e+03,3.019760e+03
1.880257e+03,3.000713e+03
1.883149e+03,2.975199e+03
1.886042e+03,2.979771e+03
1.888935e+03,2.968367e+03
1.891828e+03,2.970708e+03
1.894720e+03,2.955219e+03
1.897613e+03,2.943051e+03
1.900506e+03,2.950642e+03
1.903398e+03,2.935922e+03
1.906291e+03,2.934008e+03
1.909184e+03,2.920850e+03
1.912076e+03,2.910417e+03
1.914969e+03,2.897614e+03
1.917862e+03,2.892783e+03
1.920755e+03,2.885399e+03
1.923647e+03,2.872906e+03
1.926540e+03,2.872071e+03
1.929433e+03,2.855109e+03
1.932325e+03,2.868651e+03
1.935218e+03,2.847378e+03
1.938111e+03,2.862490e+03
1.941003e+03,2.857961e+03
1.943896e+03,2.809615e+03
1.946789e+03,2.829156e+03
1.949682e+03,2.815118e+03
1.952574e+03,2.809647e+03
1.955467e+03,2.810549e+03
1.958360e+03,2.801246e+03
1.961252e+03,2.798234e+03
1.964145e+03,2.782360e+03
1.967038e+03,2.770075e+03
1.969930e+03,2.765511e+03
1.972823e+03,2.754425e+03
1.975716e+03,2.747215e+03
1.978609e+03,2.735108e+03
1.981501e+03,2.730904e+03
1.984394e+03,2.731426e+03
1.987287e+03,2.712116e+03
1.990179e+03,2.713534e+03
1.993072e+03,2.710747e+03
1.995965e+03,2.710437e+03
1.998857e+03,2.687650e+03
2.001750e+03,2.674531e+03
2.004643e+03,2.698566e+03
2.007536e+03,2.681327e+03
2.010428e+03,2.653592e+03
2.013321e+03,2.654463e+03
2.016214e+03,2.664155e+03
2.019106e+03,2.656176e+03
2.021999e+03,2.631187e+03
2.024892e+03,2.633984e+03
2.027784e+03,2.616734e+03
2.030677e+03,2.608046e+03
2.033570e+03,2.611938e+03
2.036463e+03,2.594807e+03
2.039355e+03,2.583089e+03
2.042248e+03,2.576359e+03
2.045141e+03,2.575656e+03
2.048033e+03,2.593290e+03
2.050926e+03,2.567538e+03
2.053819e+03,2.561813e+03
2.056711e+03,2.539726e+03
2.059604e+03,2.536212e+03
2.062497e+03,2.559477e+03
2.065390e+03,2.538292e+03
2.068282e+03,2.518182e+03
2.071175e+03,2.524175e+03
2.074068e+03,2.500646e+03
2.076960e+03,2.505772e+03
2.079853e+03,2.518632e+03
2.082746e+03,2.477723e+03
2.085638e+03,2.452625e+03
2.088531e+03,2.478406e+03
2.091424e+03,2.467937e+03
2.094316e+03,2.451637e+03
2.097209e+03,2.460818e+03
2.100102e+03,2.444578e+03
2.102995e+03,2.410810e+03
2.105887e+03,2.408830e+03
2.108780e+03,2.421059e+03
2.111673e+03,2.425306e+03
2.114565e+03,2.404671e+03
2.117458e+03,2.386299e+03
2.120351e+03,2.398888e+03
2.123244e+03,2.395152e+03
2.126136e+03,2.387078e+03
2.129029e+03,2.376917e+03
2.131922e+03,2.347677e+03
2.134814e+03,2.352149e+03
2.137707e+03,2.352944e+03
2.140600e+03,2.341886e+03
2.143492e+03,2.341474e+03
2.146385e+03,2.330574e+03
2.149278e+03,2.313172e+03
2.152170e+03,2.334123e+03
2.155063e+03,2.304987e+03
2.157956e+03,2.308387e+03
2.160849e+03,2.306702e+03
2.163741e+03,2.279792e+03
2.166634e+03,2.264589e+03
2.169527e+03,2.269532e+03
2.172419e+03,2.271512e+03
2.175312e+03,2.247352e+03
2.178205e+03,2.250481e+03
2.181098e+03,2.237092e+03
2.183990e+03,2.233963e+03
2.186883e+03,2.230857e+03
2.189776e+03,2.209567e+03
2.192668e+03,2.222899e+03
2.195561e+03,2.230283e+03
2.198454e+03,2.208645e+03
2.201346e+03,2.199231e+03
2.204239e+03,2.212714e+03
2.207132e+03,2.184570e+03
2.210024e+03,2.162246e+03
2.212917e+03,2.158542e+03
2.215810e+03,2.175248e+03
2.218703e+03,2.174076e+03
2.221595e+03,2.146603e+03
2.224488e+03,2.124031e+03
2.227381e+03,2.126193e+03
2.230273e+03,2.130144e+03
2.233166e+03,2.143040e+03
2.236059e+03,2.124518e+03
2.238952e+03,2.119470e+03
2.241844e+03,2.089928e+03
2.244737e+03,2.079363e+03
2.247630e+03,2.085365e+03
2.250522e+03,2.068241e+03
2.253415e+03,2.081982e+03
2.256308e+03,2.066426e+03
2.259200e+03,2.061201e+03
2.262093e+03,2.065622e+03
2.264986e+03,2.055015e+03
2.267879e+03,2.035022e+03
2.270771e+03,2.037455e+03
2.273664e+03,2.032041e+03
2.276557e+03,2.044531e+03
2.279449e+03,2.027561e+03
2.282342e+03,2.017120e+03
2.285235e+03,2.016411e+03
2.288127e+03,2.010640e+03
2.291020e+03,1.981792e+03
2.293913e+03,1.981067e+03
2.296805e+03,1.988977e+03
2.299698e+03,1.983094e+03
2.302591e+03,1.959491e+03
2.305484e+03,1.961743e+03
2.308376e+03,1.953873e+03
2.311269e+03,1.956560e+03
2.314162e+03,1.964089e+03
2.317054e+03,1.935293e+03
2.319947e+03,1.925111e+03
2.322840e+03,1.935985e+03
2.325733e+03,1.931858e+03
2.328625e+03,1.919038e+03
2.331518e+03,1.895809e+03
2.334411e+03,1.902674e+03
2.337303e+03,1.892532e+03
2.340196e+03,1.894919e+03
2.343089e+03,1.876427e+03
2.345981e+03,1.892253e+03
2.348874e+03,1.875266e+03
2.351767e+03,1.853439e+03
2.354659e+03,1.866219e+03
2.357552e+03,1.865982e+03
2.360445e+03,1.863121e+03
2.363338e+03,1.855122e+03
2.366230e+03,1.830227e+03
2.369123e+03,1.822584e+03
2.372016e+03,1.821458e+03
2.374908e+03,1.847244e+03
2.377801e+03,1.809329e+03
2.380694e+03,1.811010e+03
2.383587e+03,1.807211e+03
2.386479e+03,1.792680e+03
2.389372e+03,1.794120e+03
2.392265e+03,1.793863e+03
2.395157e+03,1.803858e+03
2.398050e+03,1.776708e+03
2.400943e+03,1.779628e+03
2.403835e+03,1.797734e+03
2.406728e+03,1.771182e+03
2.409621e+03,1.774856e+03
2.412513e+03,1.742899e+03
2.415406e+03,1.742927e+03
2.418299e+03,1.747151e+03
2.421192e+03,1.729749e+03
2.424084e+03,1.730208e+03
2.426977e+03,1.708947e+03
2.429870e+03,1.718010e+03
2.432762e+03,1.732745e+03
2.435655e+03,1.709152e+03
2.438548e+03,1.696153e+03
2.441441e+03,1.703725e+03
2.444333e+03,1.700787e+03
2.447226e+03,1.687977e+03
2.450119e+03,1.709535e+03
2.453011e+03,1.690477e+03
2.455904e+03,1.679096e+03
2.458797e+03,1.687617e+03
2.461689e+03,1.648882e+03
2.464582e+03,1.656204e+03
2.467475e+03,1.668800e+03
2.470367e+03,1.652433e+03
2.473260e+03,1.651637e+03
2.476153e+03,1.646705e+03
2.479046e+03,1.642980e+03
2.481938e+03,1.629473e+03
2.484831e+03,1.623086e+03
2.487724e+03,1.614796e+03
2.490616e+03,1.627013e+03
2.493509e+03,1.628000e+03
2.496402e+03,1.603014e+03
2.499295e+03,1.622069e+03
2.502187e+03,1.585347e+03
2.505080e+03,1.609679e+03
2.507973e+03,1.597078e+03
2.510865e+03,1.594491e+03
2.513758e+03,1.595483e+03
2.516651e+03,1.587989e+03
2.519543e+03,1.581017e+03
2.522436e+03,1.572896e+03
2.525329e+03,1.575344e+03
2.528221e+03,1.579743e+03
2.531114e+03,1.563015e+03
2.534007e+03,1.556326e+03
2.536900e+03,1.559126e+03
2.539792e+03,1.534711e+03
2.542685e+03,1.563447e+03
2.545578e+03,1.570793e+03
2.548470e+03,1.539812e+03
2.551363e+03,1.551175e+03
2.554256e+03,1.543155e+03
2.557149e+03,1.517561e+03
2.560041e+03,1.556887e+03
2.562934e+03,1.509546e+03
2.565827e+03,1.531639e+03
2.568719e+03,1.518236e+03
2.571612e+03,1.479533e+03
2.574505e+03,1.513463e+03
2.577397e+03,1.500042e+03
2.580290e+03,1.502065e+03
2.583183e+03,1.503088e+03
2.586075e+03,1.486014e+03
2.588968e+03,1.479529e+03
2.591861e+03,1.489008e+03
2.594754e+03,1.480085e+03
2.597646e+03,1.461829e+03
2.600539e+03,1.463660e+03
2.603432e+03,1.459954e+03
2.606324e+03,1.456463e+03
2.609217e+03,1.458619e+03
2.612110e+03,1.444773e+03
2.615003e+03,1.438914e+03
2.617895e+03,1.429752e+03
2.620788e+03,1.439282e+03
2.623681e+03,1.459554e+03
2.626573e+03,1.445659e+03
2.629466e+03,1.438801e+03
2.632359e+03,1.422152e+03
2.635251e+03,1.421717e+03
2.638144e+03,1.418586e+03
2.641037e+03,1.420656e+03
2.643929e+03,1.423502e+03
2.646822e+03,1.397967e+03
2.649715e+03,1.394498e+03
2.652608e+03,1.404719e+03
2.655500e+03,1.406033e+03
2.658393e+03,1.385303e+03
2.661286e+03,1.397321e+03
2.664178e+03,1.406822e+03
2.667071e+03,1.385393e+03
2.669964e+03,1.392311e+03
2.672857e+03,1.392538e+03
2.675749e+03,1.358879e+03
2.678642e+03,1.376221e+03
2.681535e+03,1.362558e+03
2.684427e+03,1.353174e+03
2.687320e+03,1.357944e+03
2.690213e+03,1.356073e+03
2.693105e+03,1.357378e+03
2.695998e+03,1.355328e+03
2.698891e+03,1.358093e+03
2.701783e+03,1.348790e+03
2.704676e+03,1.324000e+03
2.707569e+03,1.341890e+03
2.710462e+03,1.317948e+03
2.713354e+03,1.342543e+03
2.716247e+03,1.323893e+03
2.719140e+03,1.301088e+03
2.722032e+03,1.328940e+03
2.724925e+03,1.304987e+03
2.727818e+03,1.311855e+03
2.730711e+03,1.301389e+03
2.733603e+03,1.313943e+03
2.736496e+03,1.308238e+03
2.739389e+03,1.293230e+03
2.742281e+03,1.320550e+03
2.745174e+03,1.309340e+03
2.748067e+03,1.287706e+03
2.750959e+03,1.275356e+03
2.753852e+03,1.288642e+03
2.756745e+03,1.297525e+03
2.759637e+03,1.270035e+03
2.762530e+03,1.299645e+03
2.765423e+03,1.256198e+03
2.768316e+03,1.251910e+03
2.771208e+03,1.260193e+03
2.774101e+03,1.260445e+03
2.776994e+03,1.252783e+03
2.779886e+03,1.257028e+03
2.782779e+03,1.246305e+03
2.785672e+03,1.245414e+03
2.788565e+03,1.236662e+03
2.791457e+03,1.273893e+03
2.794350e+03,1.265623e+03
2.797243e+03,1.257890e+03
2.800135e+03,1.234482e+03
2.803028e+03,1.239342e+03
2.805921e+03,1.250285e+03
2.808813e+03,1.241135e+03
2.811706e+03,1.247625e+03
2.814599e+03,1.273567e+03
2.817491e+03,1.241657e+03
2.820384e+03,1.221818e+03
2.823277e+03,1.224406e+03
2.826170e+03,1.213245e+03
2.829062e+03,1.219605e+03
2.831955e+03,1.204694e+03
2.834848e+03,1.206010e+03
2.837740e+03,1.228029e+03
2.840633e+03,1.216246e+03
2.843526e+03,1.208821e+03
2.846419e+03,1.216733e+03
2.849311e+03,1.228146e+03
2.852204e+03,1.209542e+03
2.855097e+03,1.201954e+03
2.857990e+03,1.208570e+03
2.860882e+03,1.209151e+03
2.863775e+03,1.197361e+03
2.866667e+03,1.200829e+03
2.869560e+03,1.197272e+03
2.872453e+03,1.190065e+03
2.875345e+03,1.202137e+03
2.878238e+03,1.204496e+03
2.881131e+03,1.205110e+03
2.884024e+03,1.181009e+03
2.886916e+03,1.222674e+03
2.889809e+03,1.200345e+03
2.892702e+03,1.217742e+03
2.895594e+03,1.200409e+03
2.898487e+03,1.202979e+03
2.901380e+03,1.199115e+03
2.904273e+03,1.162609e+03
2.907165e+03,1.191664e+03
2.910058e+03,1.185966e+03
2.912951e+03,1.153233e+03
2.915844e+03,1.204868e+03
2.918736e+03,1.181755e+03
2.921629e+03,1.158893e+03
2.924521e+03,1.190938e+03
2.927414e+03,1.170392e+03
2.930307e+03,1.158462e+03
2.933199e+03,1.165566e+03
2.936092e+03,1.146078e+03
2.938985e+03,1.148717e+03
2.941878e+03,1.126922e+03
2.944770e+03,1.162271e+03
2.947663e+03,1.142763e+03
2.950556e+03,1.155243e+03
2.953448e+03,1.157227e+03
2.956341e+03,1.186785e+03
2.959234e+03,1.194112e+03
2.962127e+03,1.155635e+03
2.965019e+03,1.122183e+03
2.967912e+03,1.144149e+03
2.970805e+03,1.120789e+03
2.973698e+03,1.100220e+03
2.976590e+03,1.120064e+03
2.979483e+03,1.136674e+03
2.982375e+03,1.108717e+03
2.985268e+03,1.109665e+03
2.988161e+03,1.078842e+03
2.991053e+03,1.087706e+03
2.993946e+03,1.095656e+03
2.996839e+03,1.129120e+03
2.999732e+03,1.094340e+03
3.002624e+03,1.087192e+03
3.005517e+03,1.043019e+03
3.008410e+03,1.082725e+03
3.011302e+03,1.095722e+03
3.014195e+03,1.080659e+03
3.017088e+03,1.084158e+03
3.019981e+03,1.081589e+03
3.022873e+03,1.077834e+03
3.025766e+03,1.069924e+03
3.028659e+03,1.049607e+03
3.031552e+03,1.071597e+03
3.034444e+03,1.076938e+03
3.037337e+03,1.049727e+03
3.040229e+03,1.055231e+03
3.043122e+03,1.073418e+03
3.046015e+03,1.096015e+03
3.048907e+03,1.064350e+03
3.051800e+03,1.059194e+03
3.054693e+03,1.043767e+03
3.057586e+03,1.064649e+03
3.060478e+03,1.036767e+03
3.063371e+03,1.070089e+03
3.066264e+03,1.034392e+03
3.069156e+03,1.051025e+03
3.072049e+03,1.048500e+03
3.074942e+03,1.061938e+03
3.077835e+03,1.049217e+03
3.080727e+03,1.078429e+03
3.083620e+03,1.044178e+03
3.086513e+03,1.083922e+03
3.089406e+03,1.050480e+03
3.092298e+03,1.027269e+03
3.095191e+03,1.054766e+03
3.098083e+03,1.050316e+03
3.100976e+03,1.052787e+03
3.103869e+03,1.080385e+03
3.106761e+03,1.018808e+03
3.109654e+03,1.001371e+03
3.112547e+03,1.038229e+03
3.115440e+03,1.068132e+03
3.118332e+03,1.027545e+03
3.121225e+03,1.054373e+03
3.124118e+03,1.013761e+03
3.127010e+03,1.003670e+03
3.129903e+03,1.037009e+03
3.132796e+03,1.018288e+03
3.135689e+03,1.040291e+03
3.138581e+03,1.046831e+03
3.141474e+03,1.073875e+03
3.144367e+03,1.037867e+03
3.147260e+03,1.077238e+03
3.150152e+03,1.033827e+03
3.153045e+03,1.049848e+03
3.155938e+03,1.000988e+03
3.158830e+03,1.089839e+03
3.161723e+03,1.025969e+03
3.164615e+03,1.038302e+03
3.167508e+03,1.080137e+03
3.170401e+03,1.007007e+03
3.173294e+03,1.044805e+03
3.176186e+03,1.038235e+03
3.179079e+03,1.060809e+03
3.181972e+03,1.055378e+03
3.184865e+03,1.019189e+03
3.187757e+03,1.049541e+03
3.190650e+03,1.030813e+03
3.193543e+03,1.023088e+03
3.196435e+03,1.074667e+03
3.199328e+03,1.101646e+03
3.200292e+03,1.096355e+03